"Time (s)","Linear Acceleration x (m/s^2)","Linear Acceleration y (m/s^2)","Linear Acceleration z (m/s^2)","Absolute acceleration (m/s^2)"
6.672083400E-4,1.133837461E0,-1.787842904E0,1.166124719E1,1.185186296E1
1.063420833E-2,1.439761372E-1,-1.977658434E0,8.367196614E0,8.598944190E0
2.060020831E-2,-6.528432356E-1,-2.207846358E0,5.886922925E0,6.321127380E0
3.056720831E-2,-1.202880214E0,-2.400184377E0,4.103041509E0,4.903341257E0
4.053320829E-2,-1.557994704E0,-2.364395032E0,2.784987885E0,3.971633024E0
5.049920839E-2,-1.789370635E0,-2.219556284E0,1.667783779E0,3.302995625E0
6.046620838E-2,-1.966313666E0,-1.972668859E0,5.075412422E-1,2.831149938E0
7.043220836E-2,-1.992183503E0,-1.282555178E0,-5.760495597E-1,2.438355181E0
8.039920835E-2,-1.656267541E0,-5.455145225E-1,-1.744726120E0,2.466754446E0
9.036520834E-2,-1.273489217E0,1.811511994E-1,-2.810272999E0,3.090667383E0
1.003312083E-1,-9.128390948E-1,9.340862685E-1,-3.469237831E0,3.706939910E0
1.102982083E-1,-5.392470017E-1,1.653815950E0,-3.827968020E0,4.204668083E0
1.202642083E-1,-1.751348531E-1,2.260016531E0,-4.076672906E0,4.664505217E0
1.302312083E-1,8.679731168E-2,2.689403158E0,-4.143808297E0,4.940806647E0
1.401972084E-1,1.821483690E-1,3.028296668E0,-4.127363588E0,5.122390938E0
1.501642084E-1,2.711771974E-1,3.372507927E0,-3.947545334E0,5.199082703E0
1.601302084E-1,3.829804192E-1,3.567346509E0,-3.580522624E0,5.068804334E0
1.700962083E-1,4.078592254E-1,3.696723171E0,-3.166012337E0,4.884234379E0
1.800632083E-1,3.686478703E-1,3.839639939E0,-2.752435851E0,4.738632633E0
1.900292083E-1,4.202926717E-1,3.915876814E0,-2.462740813E0,4.644978952E0
1.999962083E-1,6.243976278E-1,3.881216859E0,-2.442677262E0,4.628216601E0
2.099622083E-1,8.733405684E-1,3.861222012E0,-2.706259804E0,4.795372905E0
2.199292083E-1,1.088351239E0,3.872912058E0,-3.183468615E0,5.130148989E0
2.298952084E-1,1.211992076E0,3.824529565E0,-3.907624639E0,5.600489398E0
2.398612084E-1,1.259552232E0,3.714902165E0,-4.773884375E0,6.178749222E0
2.498282084E-1,1.249074022E0,3.521188588E0,-5.596039149E0,6.728640958E0
2.597942083E-1,1.209113053E0,3.195199299E0,-6.260805588E0,7.132246458E0
2.697612083E-1,1.146999470E0,2.714522504E0,-6.752842353E0,7.367843650E0
2.797272083E-1,1.132734968E0,2.296897259E0,-7.083709390E0,7.532447427E0
2.896932083E-1,1.228255156E0,1.799538358E0,-7.187477002E0,7.510444374E0
2.996602083E-1,1.039808751E0,1.218110237E0,-7.221118373E0,7.396590116E0
3.096262084E-1,1.270653171E0,7.851331276E-1,-7.190653794E0,7.344147023E0
3.195932084E-1,1.016838257E0,5.623242442E-1,-7.175825256E0,7.269294099E0
3.295592084E-1,-9.235684432E-2,2.619580387E-1,-7.392987921E0,7.398203985E0
3.395262084E-1,-1.294134127E0,-1.250207797E-2,-7.969860769E0,8.074256629E0
3.494922083E-1,-1.608889746E0,4.942388266E-1,-8.397020338E0,8.564038112E0
3.594582083E-1,-1.453863102E0,4.494263506E-1,-9.179979470E0,9.305252551E0
3.694252083E-1,-8.857764997E-1,2.675951931E-1,-9.604033583E0,9.648506012E0
3.793912083E-1,-8.007079174E-1,4.454075593E-1,-9.959990437E0,1.000204632E1
3.893582083E-1,-8.566850670E-1,1.169341974E0,-9.776856812E0,9.883734066E0
3.993242084E-1,-7.447398309E-1,2.873332589E0,-8.522706238E0,9.024810203E0
4.092902084E-1,-9.338434629E-1,5.116591439E0,-6.177026682E0,8.075099392E0
4.192572084E-1,-1.469851436E0,7.006395750E0,-1.891097131E0,7.404477902E0
4.292232083E-1,-1.761737425E0,7.764755062E0,5.303402962E0,9.566672509E0
4.391902083E-1,-1.574454762E0,7.730509089E0,1.378809587E1,1.588556786E1
4.491562083E-1,-9.268577944E-1,7.087356298E0,2.325858665E1,2.433210919E1
4.591232083E-1,-5.224195921E-1,5.267873526E0,3.108142210E1,3.152900591E1
4.690892083E-1,-9.421298446E-1,2.997071074E0,3.657987941E1,3.671454236E1
4.790552084E-1,-1.170322259E0,1.783690211E0,3.932506529E1,3.938288924E1
4.890222084E-1,-5.312290438E-2,1.370235639E0,3.771104198E1,3.773596501E1
4.989882084E-1,1.439265674E0,5.430405656E-1,3.307851990E1,3.311426969E1
5.089552084E-1,1.536641842E0,-1.579155777E0,2.848736569E1,2.857245185E1
5.189212083E-1,6.877076975E-1,-3.770142273E0,2.475630883E1,2.505118244E1
5.288882083E-1,7.236636152E-1,-6.105607620E0,2.208113049E1,2.292113560E1
5.388542083E-1,1.969975924E-1,-6.885260153E0,1.842890346E1,1.967409714E1
5.488202083E-1,7.778009384E-1,-7.981865687E0,1.548967070E1,1.744262173E1
5.587872083E-1,2.161828624E0,-8.922392664E0,1.258213337E1,1.557538680E1
5.687533333E-1,2.799620834E0,-7.759930524E0,8.858057504E0,1.210452731E1
5.787203333E-1,1.526980487E0,-5.608658609E0,4.475137264E0,7.335909918E0
5.886863334E-1,-9.445181398E-1,-4.759616292E0,7.544048399E-1,4.910721782E0
5.986523334E-1,-1.479157426E0,-4.981797330E0,-2.196570879E0,5.641908805E0
6.086193334E-1,-6.067977279E-2,-5.137542597E0,-4.721502678E0,6.977865971E0
6.185853333E-1,1.314382158E0,-3.254524564E0,-7.518376198E0,8.297319522E0
6.285523333E-1,2.011150847E0,-2.516398957E-1,-9.894643124E0,1.010009965E1
6.385183333E-1,1.581141492E0,1.058287561E-1,-1.076047894E1,1.087653967E1
6.484853333E-1,-4.622739990E-1,-3.752550048E-1,-1.089067187E1,1.090693575E1
6.584513333E-1,-2.219438463E0,-3.680307698E-1,-1.130209249E1,1.152382959E1
6.684173333E-1,-2.594390874E0,-8.765344638E-1,-1.180046705E1,1.211404967E1
6.783843334E-1,-3.020173423E0,-1.510395152E0,-1.216927667E1,1.262909481E1
6.883503334E-1,-4.230659330E0,-1.591436684E0,-1.247394233E1,1.326764434E1
6.983173334E-1,-5.454147105E0,-2.155356195E0,-1.267112331E1,1.396247281E1
7.082833333E-1,-6.032801600E0,-2.865425984E0,-1.253722558E1,1.420518872E1
7.182503333E-1,-5.666029150E0,-3.132763315E0,-1.224259959E1,1.384916376E1
7.282163333E-1,-4.954937561E0,-3.166877140E0,-1.202649234E1,1.338719669E1
7.381823333E-1,-3.926462029E0,-3.629946215E0,-1.150282039E1,1.268497105E1
7.481493333E-1,-2.830829763E0,-4.095472289E0,-1.056807514E1,1.168206756E1
7.581153334E-1,-2.063270735E0,-4.339870116E0,-1.006513507E1,1.115340767E1
7.680823334E-1,-1.318338530E0,-4.746874917E0,-9.914542369E0,1.107108795E1
7.780483334E-1,-6.074704501E-1,-5.491952863E0,-9.756109722E0,1.121214714E1
7.880153334E-1,-3.863958509E-1,-6.116777557E0,-1.001901808E1,1.174499862E1
7.979813333E-1,-2.402971745E-1,-6.470770916E0,-1.033494782E1,1.219589133E1
8.079473333E-1,-2.983687967E-1,-6.503699511E0,-1.060647965E1,1.244526182E1
8.179143333E-1,-5.221500720E-1,-6.460500281E0,-1.057880712E1,1.240652508E1
8.278803333E-1,-5.280287164E-1,-6.203065503E0,-9.962256818E0,1.174748470E1
8.378473333E-1,-2.344886966E-1,-5.938814625E0,-8.979671404E0,1.076842619E1
8.478133334E-1,-2.783735119E-1,-5.658789128E0,-7.595229077E0,9.475594490E0
8.577803334E-1,-3.149061844E-1,-5.327019281E0,-6.928060017E0,8.744959459E0
8.677463334E-1,-8.935101002E-2,-4.861471865E0,-6.668921360E0,8.253266287E0
8.777123333E-1,1.643317567E-1,-4.401756461E0,-6.286778920E0,7.676330768E0
8.876793333E-1,3.877692157E-1,-4.297558494E0,-5.895549322E0,7.305947972E0
8.976453333E-1,4.865957849E-1,-4.267492403E0,-5.462189950E0,6.948653533E0
9.076123333E-1,1.189651108E-1,-3.994696989E0,-5.277982192E0,6.620336302E0
9.175783333E-1,-5.369028895E-1,-4.059305506E0,-5.065804278E0,6.513723887E0
9.275453333E-1,-7.487834729E-1,-4.380169126E0,-4.959987216E0,6.659431766E0
9.375113334E-1,-5.069337165E-1,-4.203049655E0,-5.321640428E0,6.800181250E0
9.474773334E-1,-2.385582125E-1,-3.830657447E0,-5.349652684E0,6.584043616E0
9.574443334E-1,9.331659168E-2,-3.714853048E0,-5.277263569E0,6.454328155E0
9.674103333E-1,3.846576199E-2,-3.667722736E0,-5.336123396E0,6.475174328E0
9.773773333E-1,-2.199823393E-1,-3.749583170E0,-5.205759138E0,6.419321957E0
9.873433333E-1,-6.371425845E-1,-3.658972962E0,-4.980710918E0,6.213011754E0
9.973103333E-1,-9.190371434E-1,-3.035333499E0,-4.352298372E0,5.385200075E0
1.007276333E0,-6.413769919E-1,-1.731502057E0,-3.613357079E0,4.057808916E0
1.017242333E0,-4.231672360E-1,4.873168927E-1,-3.194994062E0,3.259529923E0
1.027209333E0,-2.291300889E-1,2.662320317E0,-2.955233077E0,3.984200372E0
1.037175333E0,8.904508370E-1,3.639215221E0,-2.356688109E0,4.426146062E0
1.047142333E0,2.338082415E0,3.831829521E0,-8.853795469E-1,4.575308055E0
1.057108333E0,1.906732585E0,3.995705341E0,1.176344599E0,4.580947166E0
1.067074333E0,1.217742594E0,5.093849863E0,2.478959820E0,5.794432262E0
1.077041333E0,9.026380424E-1,6.964820877E0,3.033932506E0,7.650374615E0
1.087007333E0,1.293389923E0,7.643230625E0,3.875833912E0,8.666828739E0
1.096974333E0,2.393023292E0,6.693767933E0,5.333248320E0,8.886879501E0
1.106940333E0,3.232663287E0,5.385651652E0,6.442795497E0,8.998053648E0
1.116907333E0,2.766397247E0,4.096653426E0,7.729064827E0,9.174637111E0
1.126873333E0,1.555191987E0,3.663007541E0,1.000619163E1,1.076847794E1
1.136839333E0,6.263432157E-1,3.548471696E0,1.326826553E1,1.374884822E1
1.146806333E0,1.274687165E-1,3.665055236E0,1.679407108E1,1.718981389E1
1.156772333E0,-4.784791186E-1,3.529192549E0,1.880071855E1,1.913507670E1
1.166739333E0,-1.286714011E0,2.759815621E0,1.900132950E1,1.924377141E1
1.176705333E0,-2.387995563E0,1.861645875E0,1.782315765E1,1.807852861E1
1.186672333E0,-3.086646033E0,1.111769704E0,1.543353159E1,1.577838119E1
1.196638333E0,-3.180702297E0,1.015403497E0,1.242514615E1,1.286593052E1
1.206604333E0,-2.835956894E0,1.453717506E0,9.393655441E0,9.919511512E0
1.216571333E0,-2.413046789E0,1.953189591E0,6.326762180E0,7.047387039E0
1.226537333E0,-2.098012990E0,2.204604954E0,3.618388023E0,4.728072905E0
1.236504333E0,-2.028762222E0,2.152285237E0,1.481703157E0,3.308119125E0
1.246470333E0,-2.011072202E0,2.019109931E0,-2.178555608E-2,2.849858053E0
1.256437333E0,-2.104246852E0,1.748960674E0,-8.442683583E-1,2.863478185E0
1.266403333E0,-2.179992269E0,1.491766508E0,-1.072046059E0,2.850792234E0
1.276369333E0,-1.990274387E0,1.450287822E0,-1.188336654E0,2.734350179E0
1.286336333E0,-1.419676479E0,1.347646968E0,-1.147311419E0,2.268911004E0
1.296302333E0,-9.530636993E-1,1.050638233E0,-1.001685929E0,1.736532698E0
1.306269333E0,-4.309669831E-1,6.961235949E-1,-9.907048577E-1,1.285230219E0
1.316235333E0,2.372007814E-1,6.112147146E-1,-1.168783565E0,1.340112928E0
1.326202333E0,3.542364572E-1,5.312888315E-1,-1.481817178E0,1.613546851E0
1.336168333E0,6.238478433E-1,-1.002432033E-1,-2.017415115E0,2.114047913E0
1.346134333E0,1.056261135E0,-6.067451030E-1,-2.239310517E0,2.549183948E0
1.356101333E0,1.474269007E0,-1.947140354E-1,-2.181653463E0,2.640264095E0
1.366067333E0,6.984606539E-1,3.226438048E-1,-2.227859915E0,2.356969688E0
1.376034333E0,5.961762607E-2,8.079983720E-1,-2.009975703E0,2.167122045E0
1.386000333E0,-1.151233439E-1,8.292807752E-1,-1.530999863E0,1.744970077E0
1.395967333E0,2.066014979E-1,5.026304582E-1,-1.152869782E0,1.274531401E0
1.405933333E0,6.918749350E-1,1.515984213E-1,-9.458251387E-1,1.181633700E0
1.415899333E0,7.893790832E-1,-1.194255790E-1,-1.087422482E0,1.349025375E0
1.425866333E0,5.620494251E-1,-1.997195444E-1,-1.493286492E0,1.608008706E0
1.435832333E0,3.466090567E-1,-2.431181636E-1,-1.938827952E0,1.984514577E0
1.445799333E0,4.279848301E-1,-3.874932271E-1,-2.295346139E0,2.366840914E0
1.455765333E0,3.952451733E-1,-4.315286082E-1,-2.389561740E0,2.460170928E0
1.465732333E0,1.284495869E-1,-2.737783313E-1,-2.352709664E0,2.372065900E0
1.475698333E0,-7.006133795E-2,-1.371563834E-1,-2.309440268E0,2.314570114E0
1.485664333E0,-1.153470730E-1,-1.228815758E-1,-2.206460860E0,2.212888238E0
1.495631333E0,-1.126824237E-2,-3.253332317E-2,-2.008054308E0,2.008349445E0
1.505597333E0,6.689777501E-2,1.160204530E-2,-1.826282499E0,1.827544168E0
1.515564333E0,1.471854546E-1,-5.258284092E-2,-1.564527213E0,1.572314826E0
1.525530333E0,2.860938100E-1,-1.625382695E-1,-1.316853191E0,1.357339561E0
1.535497333E0,3.674572311E-1,-2.066587275E-1,-1.224765392E0,1.295292597E0
1.545463333E0,3.944016393E-1,-2.808578476E-1,-1.264817065E0,1.354324921E0
1.555429333E0,3.112523324E-1,-3.638935724E-1,-1.369324350E0,1.450636317E0
1.565396333E0,1.260142216E-1,-4.133238870E-1,-1.481593230E0,1.543319383E0
1.575363000E0,2.796615073E-1,-6.110980627E-1,-1.619499226E0,1.753405014E0
1.585330000E0,4.347050350E-1,-7.862914610E-1,-1.667861547E0,1.894461630E0
1.595296000E0,5.649055707E-1,-1.037677295E0,-1.745321952E0,2.107615047E0
1.605263000E0,8.197468901E-1,-1.486075998E0,-1.809331421E0,2.480743241E0
1.615229000E0,9.617866487E-1,-1.984998152E0,-1.744070647E0,2.811944815E0
1.625195000E0,8.228960542E-1,-2.466678329E0,-1.543557343E0,3.023942652E0
1.635162000E0,5.254584266E-1,-2.741465304E0,-1.380839857E0,3.114234623E0
1.645128000E0,3.057207933E-1,-3.239339345E0,-1.439994383E0,3.558141147E0
1.655095000E0,3.504408833E-1,-3.826637194E0,-1.565967382E0,4.149483687E0
1.665061000E0,4.797443099E-1,-4.124496990E0,-1.854034554E0,4.547425003E0
1.675028000E0,6.331042781E-1,-4.267500297E0,-2.329416695E0,4.902913618E0
1.684994000E0,8.988807678E-1,-4.329238123E0,-2.966256248E0,5.324374657E0
1.694960000E0,1.185050957E0,-4.363276812E0,-3.818296725E0,5.917932087E0
1.704927000E0,1.298772577E0,-3.927896351E0,-4.760254515E0,6.306758518E0
1.714893000E0,2.132535536E0,-3.084220608E0,-5.368251507E0,6.548148503E0
1.724860000E0,2.870329459E0,-2.523765572E0,-4.215425579E0,5.690166665E0
1.734826000E0,3.603734609E0,-9.921269006E-1,-1.126346812E0,3.903828385E0
1.744793000E0,2.433881004E0,1.995602662E0,4.901896298E-1,3.185355961E0
1.754759000E0,-6.316229591E-1,5.331873055E0,-1.361132401E-1,5.370879318E0
1.764725000E0,-3.548319961E0,7.695656176E0,-3.014532030E-1,8.479656394E0
1.774692000E0,-5.016574230E0,7.192968707E0,8.388602686E-1,8.809568796E0
1.784658000E0,-5.544480740E0,7.487547339E0,4.128435967E0,1.019061408E1
1.794625000E0,-4.860868140E0,8.422586703E0,1.035506224E1,1.420546796E1
1.804591000E0,-3.562151257E0,7.887409181E0,1.826814245E1,2.021447931E1
1.814558000E0,-2.381357804E0,7.182116275E0,2.566223667E1,2.675451457E1
1.824524000E0,-3.530675988E-1,6.997201588E0,3.034496763E1,3.114325845E1
1.834490000E0,7.839717975E-1,7.000903460E0,3.062222388E1,3.142209186E1
1.844457000E0,8.079483783E-1,7.524043320E0,2.785500101E1,2.886459925E1
1.854423000E0,2.824629083E-2,7.854662434E0,2.378310294E1,2.504660666E1
1.864390000E0,-1.169541656E0,7.984319179E0,1.972490373E1,2.131171057E1
1.874356000E0,-2.576684043E0,8.093850977E0,1.631878717E1,1.839707963E1
1.884323000E0,-3.742124170E0,7.213404726E0,1.323135440E1,1.552757033E1
1.894289000E0,-4.550615462E0,5.351448948E0,1.071865497E1,1.281544659E1
1.904256000E0,-4.943439596E0,3.407919835E0,8.851827881E0,1.069609132E1
1.914222000E0,-5.054803326E0,1.732769441E0,6.963872459E0,8.777758611E0
1.924188000E0,-4.636216360E0,-3.825877056E-1,4.266885170E0,6.312462637E0
1.934155000E0,-3.440778263E0,-2.039023793E0,9.260662276E-1,4.105383264E0
1.944121000E0,-1.493442320E0,-2.780149899E0,-1.826522820E0,3.646339128E0
1.954088000E0,2.003672697E-1,-3.579353766E0,-4.027396665E0,5.391831259E0
1.964054000E0,6.336817637E-1,-4.619187807E0,-5.878017030E0,7.502635056E0
1.974021000E0,7.601684403E-1,-5.964564593E0,-7.637061812E0,9.720010286E0
1.983987000E0,7.262553205E-1,-6.194492315E0,-9.283155929E0,1.118374561E1
1.993953000E0,9.829134429E-1,-5.948130409E0,-1.106699349E1,1.260256796E1
2.003920000E0,1.481040668E0,-5.260361608E0,-1.296118146E1,1.406616901E1
2.013886000E0,1.897532138E0,-4.624987952E0,-1.489119181E1,1.570791951E1
2.023853000E0,2.114098680E0,-3.834114028E0,-1.598170689E1,1.657060043E1
2.033819000E0,1.348816119E0,-2.600969576E0,-1.657135531E1,1.682837380E1
2.043786000E0,3.686783490E-1,-2.604826984E0,-1.694190039E1,1.714494200E1
2.053752000E0,8.809122741E-2,-3.667506974E0,-1.694940353E1,1.734187555E1
2.063719000E0,1.018773448E-1,-3.911810076E0,-1.619244171E1,1.665856553E1
2.073685000E0,-1.031292428E-1,-4.471364640E0,-1.537342572E1,1.601080747E1
2.083651000E0,-1.848907131E-1,-5.017768232E0,-1.430064993E1,1.515654218E1
2.093618000E0,4.659689551E-2,-5.179909183E0,-1.339180901E1,1.435876663E1
2.103584000E0,1.660588780E-1,-5.298925749E0,-1.245978623E1,1.354077038E1
2.113551000E0,2.036819100E-2,-5.599103090E0,-1.133464745E1,1.264217557E1
2.123517000E0,-3.750276943E-1,-5.991606211E0,-1.009287426E1,1.174334286E1
2.133484000E0,-6.116998874E-1,-6.255374694E0,-8.890066917E0,1.088747809E1
2.143450000E0,-5.043134330E-1,-6.303581479E0,-7.688726056E0,9.955198635E0
2.153417000E0,-3.303562823E-1,-6.460330127E0,-6.286913406E0,9.020547700E0
2.163383000E0,-2.130842328E-1,-6.605289035E0,-5.058565425E0,8.322519588E0
2.173349000E0,1.153626412E-2,-6.696431340E0,-4.625744582E0,8.138786071E0
2.183316000E0,6.184740329E-1,-6.555623955E0,-4.833975626E0,8.168600610E0
2.193282000E0,1.053424432E0,-6.327628738E0,-5.335610011E0,8.343699579E0
2.203249000E0,1.030635347E0,-6.125660062E0,-6.232533715E0,8.799454354E0
2.213215000E0,5.481662348E-1,-5.998641581E0,-7.355168130E0,9.506980870E0
2.223182000E0,1.080243856E-2,-5.582548453E0,-7.989104540E0,9.746320089E0
2.233148000E0,-5.186652777E-1,-5.286089357E0,-8.343463351E0,9.890658979E0
2.243115000E0,-1.110358770E0,-5.178798212E0,-8.687717587E0,1.017493412E1
2.253081000E0,-1.325088410E0,-4.969581327E0,-8.999859501E0,1.036581251E1
2.263047000E0,-9.712942944E-1,-4.846015627E0,-8.866942348E0,1.015135196E1
2.273014000E0,-5.207752454E-1,-4.867086654E0,-8.157696725E0,9.513556391E0
2.282980000E0,-2.945740999E-1,-4.844131362E0,-7.576301056E0,8.997372963E0
2.292947000E0,-1.208872367E-1,-4.433243133E0,-7.290075172E0,8.533080007E0
2.302913000E0,-6.858886287E-2,-3.896679236E0,-7.192730141E0,8.180720040E0
2.312880000E0,-2.524611372E-1,-3.074942538E0,-7.222201862E0,7.853611142E0
2.322846000E0,-4.057137358E-1,-1.432604088E0,-7.326459471E0,7.476226755E0
2.332812000E0,-3.154290716E-1,8.561838144E-1,-7.670547062E0,7.724625457E0
2.342779000E0,-2.846138066E-1,2.915167370E0,-8.533757476E0,9.022428856E0
2.352745000E0,-1.174552135E-1,3.869347011E0,-9.407817982E0,1.017313527E1
2.362712000E0,1.368219227E-1,4.010763091E0,-8.297820570E0,9.217308014E0
2.372678000E0,5.483723491E-1,4.672469097E0,-5.272417982E0,7.066192120E0
2.382645000E0,7.046108285E-1,5.501880265E0,-1.236418893E0,5.682947699E0
2.392611000E0,2.120581926E-1,5.227155855E0,3.587652134E0,6.343451335E0
2.402578000E0,-4.314574184E-1,4.026235993E0,8.665020450E0,9.564481752E0
2.412544000E0,-5.807789339E-1,3.005919958E0,1.344745930E1,1.379155614E1
2.422510000E0,-5.801465575E-1,2.213785667E0,1.613964603E1,1.630109171E1
2.432477000E0,-5.072434728E-1,1.063197468E0,1.718329099E1,1.722362256E1
2.442443000E0,-2.373867229E-1,5.075321791E-1,1.935591635E1,1.936402435E1
2.452410000E0,-5.778579573E-1,1.117404665E0,2.142402040E1,2.146092176E1
2.462376000E0,-1.168106676E0,1.735663521E0,2.177152744E1,2.187181767E1
2.472343000E0,-1.245147178E0,1.964587861E0,2.153902109E1,2.166424304E1
2.482309000E0,-1.058854010E0,2.158831926E0,2.151093809E1,2.164491128E1
2.492276000E0,-2.373262773E-1,2.380853920E0,2.077137056E1,2.090872124E1
2.502242000E0,6.565519052E-1,2.572021181E0,1.984767654E1,2.002440055E1
2.512208000E0,8.238174292E-1,2.591642098E0,1.934267592E1,1.953290546E1
2.522175000E0,5.424408605E-1,2.433007430E0,1.863386240E1,1.879985626E1
2.532141000E0,5.301083518E-1,2.383375094E0,1.667199876E1,1.684983781E1
2.542108000E0,5.264780349E-1,2.264275205E0,1.340396537E1,1.360405855E1
2.552074000E0,3.385898928E-1,1.962476139E0,9.604706013E0,9.808992471E0
2.562041000E0,1.798413500E-1,1.606413450E0,5.845339281E0,6.064725748E0
2.572005958E0,-2.256752981E-2,1.417009856E0,2.616770507E0,2.975888794E0
2.581971958E0,-1.724216719E-1,1.361207246E0,-1.237761998E-1,1.377655598E0
2.591938958E0,-1.828247091E-1,1.425279573E0,-2.707400596E0,3.065104357E0
2.601904958E0,-2.917713102E-1,1.658809765E0,-4.652423673E0,4.947911313E0
2.611871958E0,-5.843279015E-1,1.679569427E0,-5.788185087E0,6.055202652E0
2.621837958E0,-9.863290208E-1,1.353928632E0,-6.094272793E0,6.320294973E0
2.631804958E0,-1.160484977E0,1.051071804E0,-5.837916825E0,6.044232803E0
2.641770958E0,-7.610363133E-1,7.900868887E-1,-5.418200178E0,5.528137727E0
2.651737958E0,-2.394658100E-1,2.476146725E-1,-5.055639478E0,5.067360993E0
2.661703958E0,1.293909156E-1,-1.782488608E-1,-4.844493012E0,4.849497625E0
2.671670958E0,6.953409451E-1,-3.321233109E-1,-4.667563868E0,4.730745965E0
2.681636958E0,1.215999100E0,-5.671661773E-1,-4.344312245E0,4.546798892E0
2.691602958E0,1.342134798E0,-8.560885048E-1,-3.486454958E0,3.832698986E0
2.701569958E0,9.860688928E-1,-1.112088377E0,-2.319408016E0,2.754764230E0
2.711535958E0,4.467498607E-1,-1.357677281E0,-1.237169675E0,1.890360242E0
2.721502958E0,1.294960193E-1,-1.351105011E0,-4.395398784E-1,1.426691724E0
2.731468958E0,1.235011614E-1,-1.112753936E0,-2.718978667E-1,1.152129467E0
2.741435958E0,3.841659421E-1,-9.723342218E-1,-6.639829123E-1,1.238503378E0
2.751401958E0,6.471667586E-1,-9.168494077E-1,-1.293036897E0,1.712127935E0
2.761367958E0,9.187166429E-1,-8.648315540E-1,-1.734813920E0,2.145123126E0
2.771334958E0,1.060621185E0,-7.881896134E-1,-1.863306484E0,2.284309790E0
2.781300958E0,1.067321875E0,-7.142891398E-1,-1.727773288E0,2.152808745E0
2.791267958E0,1.142173471E0,-8.329952189E-1,-1.776858324E0,2.270609341E0
2.801233958E0,1.088855196E0,-9.388552576E-1,-2.059747202E0,2.511894379E0
2.811200958E0,7.731429733E-1,-1.125088638E0,-2.640783268E0,2.972761471E0
2.821166958E0,2.540504469E-1,-1.345806703E0,-3.325056018E0,3.596072140E0
2.831133958E0,-1.855220662E-1,-1.515476236E0,-4.167371407E0,4.438250906E0
2.841099958E0,-4.399360272E-1,-1.659277542E0,-4.953671638E0,5.242671873E0
2.851065958E0,-5.495334600E-1,-1.718190579E0,-5.346713873E0,5.642828646E0
2.861032958E0,-6.280998655E-1,-1.742415593E0,-5.593517244E0,5.892194558E0
2.870998958E0,-3.955605575E-1,-1.729527453E0,-5.548438720E0,5.825195756E0
2.880965958E0,-1.431960455E-1,-1.628922599E0,-5.404817655E0,5.646764368E0
2.890931958E0,-2.054727660E-1,-1.612631671E0,-5.548413577E0,5.781668720E0
2.900898958E0,-2.833751836E-1,-1.443153634E0,-5.672242987E0,5.859806687E0
2.910864958E0,-2.526092545E-1,-1.141805973E0,-5.728075710E0,5.846228156E0
2.920830958E0,-2.652427121E-1,-8.718490899E-1,-5.459592032E0,5.535125987E0
2.930797958E0,-4.663152290E-1,-5.633356664E-1,-4.481500788E0,4.540775956E0
2.940763958E0,-5.477335408E-1,3.132178009E-2,-2.682625358E0,2.738151182E0
2.950730958E0,-6.022349263E-1,8.559782848E-1,3.593324518E-1,1.106573785E0
2.960696958E0,1.887963608E-2,1.695812115E0,6.133214080E0,6.363367828E0
2.970663958E0,2.144639126E0,2.229367327E0,1.437620765E1,1.470526783E1
2.980629958E0,4.434983557E0,1.467725827E0,2.317134853E1,2.363756948E1
2.990596958E0,4.692001137E0,4.816313526E-1,3.005597484E1,3.042381414E1
3.000562958E0,3.154048349E0,-8.038699454E-1,3.443381093E1,3.458730349E1
3.010528958E0,-6.564075521E-1,-1.799493481E0,3.507089548E1,3.512316554E1
3.020495958E0,-4.309993767E0,-1.783760085E0,3.234539132E1,3.267999672E1
3.030461958E0,-6.110881809E0,-9.893256457E-1,2.767848760E1,2.836230452E1
3.040428958E0,-5.741771643E0,3.742045525E-1,2.113114506E1,2.190053109E1
3.050394958E0,-4.102311777E0,1.863822501E0,1.472553668E1,1.539948788E1
3.060361958E0,-2.491327558E0,3.016825600E0,9.677721949E0,1.043869014E1
3.070327958E0,-1.594649729E0,3.641866641E0,6.019592739E0,7.213986217E0
3.080294958E0,-1.549055334E0,4.096979409E0,4.481299644E0,6.266327409E0
3.090260958E0,-1.582985996E0,4.049007682E0,4.797633426E0,6.474379844E0
3.100226958E0,-1.009549557E0,3.137013656E0,5.359589442E0,6.291680536E0
3.110193958E0,-1.101331985E0,2.101847740E0,5.353493720E0,5.855816858E0
3.120159958E0,-1.240063316E0,6.635198128E-1,4.519113003E0,4.732905863E0
3.130126958E0,-7.427525085E-1,-8.920342630E-1,2.096504554E0,2.396401002E0
3.140092958E0,5.000708395E-1,-1.731734776E0,-6.740547413E-1,1.924402758E0
3.150059958E0,1.804964574E0,-1.700441063E0,-3.584557788E0,4.358721310E0
3.160025958E0,2.515080410E0,-2.227141877E0,-7.018126434E0,7.780738336E0
3.169991958E0,2.588047814E0,-3.157770394E0,-9.435470050E0,1.028093383E1
3.179958958E0,1.945012552E0,-4.273906506E0,-1.034117978E1,1.135734784E1
3.189924958E0,6.271828759E-1,-4.601229253E0,-9.950543675E0,1.098080090E1
3.199891958E0,-1.239157729E0,-4.407830549E0,-9.440139052E0,1.049193535E1
3.209857958E0,-1.992207330E0,-4.613877073E0,-9.129078289E0,1.042097990E1
3.219824958E0,-1.386526274E0,-4.416236506E0,-9.374387112E0,1.045489042E1
3.229790958E0,-6.272303845E-1,-4.168195864E0,-1.052897247E1,1.134136394E1
3.239757958E0,1.424327646E-1,-4.136630255E0,-1.208808107E1,1.277707716E1
3.249723958E0,7.811669612E-1,-3.922687651E0,-1.379527508E1,1.436340192E1
3.259689958E0,1.184931162E0,-3.707525318E0,-1.533486801E1,1.582112457E1
3.269656958E0,1.738439048E0,-3.583691815E0,-1.664573541E1,1.711565145E1
3.279622958E0,1.784121882E0,-3.509664311E0,-1.707745990E1,1.752542356E1
3.289589958E0,1.409448383E0,-3.599832469E0,-1.682277389E1,1.726125893E1
3.299555958E0,8.630079536E-1,-3.785146521E0,-1.600502441E1,1.646915066E1
3.309522958E0,3.098768480E-1,-3.930986019E0,-1.414174132E1,1.468119621E1
3.319488958E0,-1.085371133E-1,-4.154239730E0,-1.201675790E1,1.271502884E1
3.329454958E0,-1.259743144E-1,-4.350015327E0,-1.049067905E1,1.135750192E1
3.339421958E0,-8.157991424E-2,-4.457759339E0,-9.532628555E0,1.052374842E1
3.349387958E0,-5.227008797E-2,-4.594228967E0,-8.714963858E0,9.851916920E0
3.359354958E0,1.956870121E-1,-4.856701122E0,-8.162018986E0,9.499704897E0
3.369320958E0,3.752517888E-1,-5.116534721E0,-7.846956974E0,9.375205342E0
3.379287958E0,2.304332140E-1,-5.272967035E0,-7.441693473E0,9.123381093E0
3.389253958E0,2.032487775E-1,-5.417058801E0,-6.982209327E0,8.839518268E0
3.399219958E0,3.482978788E-1,-5.533157022E0,-6.522827507E0,8.560631795E0
3.409186958E0,3.777372940E-1,-5.412383952E0,-6.265772213E0,8.288334388E0
3.419152958E0,2.362644960E-1,-5.180423738E0,-6.318588942E0,8.174177465E0
3.429119958E0,3.537390053E-2,-5.134137179E0,-6.652942089E0,8.403704797E0
3.439085958E0,-2.977349585E-1,-5.122291889E0,-7.188168143E0,8.831550348E0
3.449052958E0,-6.002443148E-1,-4.829712421E0,-7.805612481E0,9.198586930E0
3.459018958E0,-7.254261853E-1,-4.519102186E0,-8.470115211E0,9.627636231E0
3.468985958E0,-9.011627899E-1,-4.329742446E0,-8.969675004E0,1.000069166E1
3.478951958E0,-9.593681672E-1,-4.350697405E0,-8.958833097E0,1.000548078E1
3.488917958E0,-7.488526163E-1,-4.372582363E0,-8.716275389E0,9.780271643E0
3.498884958E0,-5.005716535E-1,-4.135383044E0,-8.487299008E0,9.454428029E0
3.508850958E0,-2.399698766E-1,-3.540993108E0,-8.265481959E0,8.995243729E0
3.518817958E0,-1.067178252E-1,-2.765664006E0,-8.021636694E0,8.485690387E0
3.528783958E0,7.018602982E-2,-1.837935416E0,-7.837438876E0,8.050365259E0
3.538750958E0,-7.103943095E-2,-6.346193647E-1,-7.610005576E0,7.636751483E0
3.548716958E0,-4.387674612E-1,6.980534685E-1,-7.017334721E0,7.065605573E0
3.558682958E0,-5.418258065E-1,2.075124795E0,-5.706390141E0,6.096114054E0
3.568649958E0,-1.969742766E-1,3.152024628E0,-3.599663485E0,4.788698709E0
3.578616750E0,7.229298627E-1,3.744903936E0,-8.059468764E-1,3.898266723E0
3.588583750E0,2.235326078E0,4.462418400E0,2.616193387E0,5.635097913E0
3.598549750E0,3.235195423E0,5.132442656E0,6.613250604E0,8.974605317E0
3.608516750E0,3.331883227E0,5.070407791E0,1.130694802E1,1.283189598E1
3.618482750E0,1.728681214E0,4.749849103E0,1.747112486E1,1.818762241E1
3.628448750E0,-7.537452739E-1,4.414770024E0,2.288099919E1,2.331519783E1
3.638415750E0,-2.140648401E0,3.791832519E0,2.570837821E1,2.607452933E1
3.648381750E0,-2.181430245E0,2.767055351E0,2.601171305E1,2.624927521E1
3.658348750E0,-1.632334157E0,1.712159760E0,2.536255049E1,2.547263185E1
3.668314750E0,-1.186730716E0,1.116731066E0,2.424323905E1,2.429794349E1
3.678281750E0,-8.396284465E-1,1.304867569E0,2.258411734E1,2.263735875E1
3.688247750E0,-1.252644624E-1,1.778314866E0,2.050630692E1,2.058365172E1
3.698213750E0,6.515428148E-1,2.231859995E0,1.779879815E1,1.795001177E1
3.708180750E0,1.190304242E0,2.797978936E0,1.446712483E1,1.478320707E1
3.718146750E0,1.454580701E0,3.337096897E0,1.099682924E1,1.158370727E1
3.728113750E0,1.593940754E0,3.672006114E0,8.060694925E0,8.999948817E0
3.738079750E0,1.772780330E0,3.662394753E0,5.925312234E0,7.187851591E0
3.748046750E0,1.653989905E0,3.424259294E0,4.269378422E0,5.717414314E0
3.758012750E0,1.377993286E0,2.938079100E0,3.013622203E0,4.428667190E0
3.767979750E0,1.094070474E0,2.452801424E0,2.021822746E0,3.361694847E0
3.777945750E0,8.317468384E-1,2.152080292E0,1.349282434E0,2.672791701E0
3.787911750E0,6.174332285E-1,1.740203884E0,8.371598983E-1,2.027404756E0
3.797878750E0,1.791089863E-1,1.244904372E0,4.392065871E-1,1.332204696E0
3.807844750E0,-2.438970128E-1,8.411415598E-1,1.431474406E-1,8.874097510E-1
3.817811750E0,-3.584895757E-1,6.397187215E-1,-2.075673848E-1,7.621279668E-1
3.827777750E0,-3.422960043E-1,4.003933543E-1,-7.600573432E-1,9.247532415E-1
3.837744750E0,-3.326669557E-1,1.562592369E-1,-1.401560635E0,1.448950125E0
3.847710750E0,-2.484217344E-1,-1.352197856E-2,-2.014568106E0,2.029872128E0
3.857676750E0,-1.013581121E-1,-1.290992126E-1,-2.514498612E0,2.519849866E0
3.867643750E0,1.193488343E-1,-2.609580186E-1,-2.906441571E0,2.920572861E0
3.877609750E0,1.661724602E-1,-3.643739212E-1,-3.224595006E0,3.249368338E0
3.887576750E0,1.118243448E-1,-7.263686103E-1,-3.478676407E0,3.555461374E0
3.897542750E0,-1.125252615E-1,-8.123241422E-1,-3.479508466E0,3.574844277E0
3.907509750E0,-3.195829336E-1,-8.221612054E-1,-3.238050034E0,3.356046830E0
3.917475750E0,-2.932459049E-1,-8.560142452E-1,-2.937675058E0,3.073871873E0
3.927441750E0,-1.671654636E-1,-9.535884869E-1,-2.695188101E0,2.863793672E0
3.937408750E0,-1.082610516E-1,-9.577803558E-1,-2.606746041E0,2.779242448E0
3.947374750E0,-1.246961130E-1,-9.051849434E-1,-2.611174722E0,2.766431335E0
3.957341750E0,-1.338306333E-1,-9.197950888E-1,-2.600049224E0,2.761193513E0
3.967307750E0,-2.339283872E-1,-8.684524423E-1,-2.788761678E0,2.930208837E0
3.977274750E0,-3.734366669E-1,-7.972649306E-1,-3.232384082E0,3.350133306E0
3.987240750E0,-4.166510989E-1,-7.107226306E-1,-3.751042635E0,3.840448626E0
3.997206750E0,-3.760554886E-1,-6.182550547E-1,-4.203575027E0,4.265407372E0
4.007173750E0,-3.854279906E-1,-4.423304620E-1,-4.634257543E0,4.671247580E0
4.017139750E0,-3.441976650E-1,-2.216305232E-1,-5.039756101E0,5.056355771E0
4.027106750E0,-1.706012509E-1,-1.980691677E-1,-5.350067251E0,5.356449923E0
4.037072750E0,2.991289347E-2,-2.978732452E-1,-5.562870818E0,5.570920479E0
4.047039750E0,1.928309761E-1,-3.899221605E-1,-5.552966804E0,5.569978761E0
4.057005750E0,4.042316128E-1,-5.013171735E-1,-5.259913126E0,5.299189391E0
4.066971750E0,4.549278496E-1,-7.756524521E-1,-4.755532304E0,4.839802018E0
4.076938750E0,4.979183333E-1,-1.134045841E0,-4.197110930E0,4.376039625E0
4.086904750E0,6.223138994E-1,-1.489300445E0,-3.830394614E0,4.156586737E0
4.096871750E0,6.367113523E-1,-1.728381398E0,-3.636019133E0,4.075946361E0
4.106837750E0,6.344202670E-1,-1.865444811E0,-3.712148711E0,4.202668375E0
4.116804750E0,7.616578723E-1,-2.149498454E0,-4.062161286E0,4.658499826E0
4.126770750E0,9.101626781E-1,-2.189874648E0,-4.486224169E0,5.074460993E0
4.136737750E0,1.112483064E0,-2.212045535E0,-4.743441432E0,5.350794393E0
4.146703750E0,1.185094373E0,-2.250842104E0,-4.849069043E0,5.475783911E0
4.156669750E0,1.089352794E0,-2.215650344E0,-4.917519473E0,5.502526122E0
4.166636750E0,7.026365161E-1,-2.149429457E0,-4.707162382E0,5.222176056E0
4.176602750E0,-1.691713509E-1,-1.958902321E0,-4.525071900E0,4.933780797E0
4.186569750E0,-3.772246394E-1,-1.458076605E0,-4.869826659E0,5.097401054E0
4.196535750E0,-4.636465598E-1,-7.583446938E-1,-4.953488036E0,5.032603554E0
4.206502750E0,-9.407946329E-1,-3.491688216E-1,-3.811059042E0,3.940962373E0
4.216468750E0,-1.708195933E0,1.049709696E-1,-8.795048493E-1,1.924183211E0
4.226434750E0,-2.304642920E0,8.823080045E-1,3.367925465E0,4.175256679E0
4.236401750E0,-2.430570602E0,1.748121598E0,7.865871547E0,8.416385077E0
4.246367750E0,-2.237537349E0,2.769231393E0,1.183588481E1,1.235974858E1
4.256334750E0,-2.361150119E0,3.474410863E0,1.553246648E1,1.609049644E1
4.266300750E0,-2.771750373E0,2.838301335E0,2.011333192E1,2.050084573E1
4.276267750E0,-2.714338317E0,1.175901965E0,2.608512134E1,2.625231291E1
4.286233750E0,-1.826834915E0,-2.548222429E-1,3.174444490E1,3.179798802E1
4.296199750E0,-7.097202717E-1,-1.219725823E0,3.484771427E1,3.487627595E1
4.306166750E0,-1.870209999E-2,-1.538630772E0,3.384352515E1,3.387848770E1
4.316132750E0,4.274114740E-1,-9.463758002E-1,2.930378434E1,2.932217735E1
4.326099750E0,6.955111722E-1,3.429956236E-1,2.309267541E1,2.310569279E1
4.336065750E0,8.124624288E-1,1.990974591E0,1.695926311E1,1.709504841E1
4.346032750E0,8.463126180E-1,3.437861087E0,1.237480747E1,1.287132448E1
4.355998750E0,6.759979903E-1,4.158276063E0,1.010480141E1,1.094784201E1
4.365964750E0,1.303137524E-1,3.519436178E0,9.815730271E0,1.042842143E1
4.375931750E0,-1.052863464E0,2.279699867E0,1.014167746E1,1.044792681E1
4.385897750E0,-1.361455460E0,1.530131259E0,9.958559039E0,1.016699369E1
4.395864750E0,-8.663857439E-1,-5.775496629E-1,7.743353083E0,7.813047091E0
4.405830750E0,-2.997234504E-1,-2.377769368E0,3.001866376E0,3.841200731E0
4.415797750E0,1.155334969E0,-1.793164455E0,-4.681578475E0,5.144649129E0
4.425763750E0,5.629665609E-1,-2.782725012E0,-1.101120287E1,1.137132703E1
4.435729750E0,-5.893656432E-1,-3.204521515E0,-1.434793987E1,1.471324874E1
4.445696750E0,-4.245163348E-1,-1.764386506E0,-1.534913288E1,1.545603940E1
4.455662750E0,1.023757852E0,-1.519113643E0,-1.567902460E1,1.578567701E1
4.465629750E0,1.890316381E0,-1.684845369E0,-1.672131184E1,1.691195641E1
4.475595750E0,1.964764300E0,-4.652018461E-1,-1.626821928E1,1.639303725E1
4.485562750E0,1.882498215E0,3.113572168E-1,-1.638129625E1,1.649204686E1
4.495528750E0,1.407261670E0,6.625810423E-1,-1.648169177E1,1.655492563E1
4.505494750E0,3.083078208E-1,2.671838415E-1,-1.620653584E1,1.621167002E1
4.515461750E0,-6.808845815E-1,-1.190757401E0,-1.544601188E1,1.550679819E1
4.525427750E0,-1.009606128E0,-2.603132169E0,-1.484811654E1,1.510834758E1
4.535394750E0,-8.086127682E-1,-3.586592034E0,-1.404390103E1,1.451718475E1
4.545360750E0,-4.494314669E-1,-4.219632358E0,-1.315227899E1,1.381990335E1
4.555327750E0,-3.239826711E-1,-4.572067727E0,-1.239976339E1,1.321979199E1
4.565293750E0,1.219746727E-1,-4.543323399E0,-1.134637345E1,1.222280066E1
4.575259250E0,8.679994293E-1,-4.311128712E0,-9.614438118E0,1.057244882E1
4.585226250E0,1.571834917E0,-4.122720606E0,-7.675249978E0,8.853075873E0
4.595192250E0,1.775405730E0,-4.319974964E0,-6.058074435E0,7.649478091E0
4.605159250E0,1.304734252E0,-4.831848993E0,-4.958654051E0,7.045377645E0
4.615125250E0,5.707404341E-1,-5.098177972E0,-4.451350790E0,6.792031149E0
4.625092250E0,5.804681544E-1,-5.711195968E0,-4.181552074E0,7.102118023E0
4.635058250E0,9.318216419E-1,-6.301191137E0,-4.330097664E0,7.702145616E0
4.645024250E0,1.084182102E0,-6.347106982E0,-5.138499786E0,8.238045759E0
4.654991250E0,6.823105712E-1,-5.935841900E0,-6.674521238E0,8.958180649E0
4.664957250E0,4.429629846E-1,-5.717080021E0,-8.502628069E0,1.025553042E1
4.674924250E0,2.333733402E-1,-5.345876552E0,-1.022722456E1,1.154248593E1
4.684890250E0,-6.616592288E-2,-4.913862040E0,-1.172052392E1,1.270909513E1
4.694857250E0,-2.425894292E-1,-4.511125706E0,-1.263405196E1,1.341746525E1
4.704823250E0,-4.290001260E-1,-4.166887842E0,-1.296016638E1,1.362031233E1
4.714789250E0,-4.924009006E-1,-4.074195440E0,-1.274036604E1,1.338500855E1
4.724756250E0,-3.152444093E-1,-3.830565645E0,-1.209846455E1,1.269430804E1
4.734722250E0,-1.927011314E-1,-3.654912656E0,-1.149496407E1,1.206356992E1
4.744689250E0,-1.597151972E-1,-3.455806777E0,-1.107042113E1,1.159837633E1
4.754655250E0,-1.503228512E-1,-3.025479187E0,-1.078286910E1,1.120028514E1
4.764622250E0,-1.667361318E-1,-2.518691066E0,-1.036577434E1,1.066868705E1
4.774588250E0,-1.782131928E-1,-1.537207852E0,-9.735930980E0,9.858149927E0
4.784554250E0,-4.214104401E-1,7.325830311E-2,-8.865515043E0,8.875827315E0
4.794521250E0,-8.686296129E-1,1.600837545E0,-7.523557416E0,7.740872977E0
4.804487250E0,-7.770022818E-1,2.711534869E0,-5.296403845E0,6.000670594E0
4.814454250E0,4.246869273E-1,3.693354591E0,-1.958873377E0,4.202191336E0
4.824420250E0,2.266567605E0,4.823679848E0,1.383695637E0,5.506344487E0
4.834387250E0,3.770005448E0,5.642513988E0,4.431163863E0,8.104697302E0
4.844353250E0,4.226677961E0,5.902522126E0,8.476513234E0,1.116045925E1
4.854319250E0,3.743153572E0,5.077822060E0,1.342711450E1,1.483519057E1
4.864286250E0,2.744536847E0,3.639730945E0,1.827495563E1,1.883491776E1
4.874252250E0,1.082413465E0,2.591569592E0,2.204951810E1,2.222766520E1
4.884219250E0,-8.872404233E-1,1.851716426E0,2.421764930E1,2.430453840E1
4.894185250E0,-2.324008021E0,1.022999030E0,2.502051878E1,2.514903379E1
4.904151250E0,-2.841825160E0,1.703407940E-1,2.519402906E1,2.535437017E1
4.914118250E0,-2.698445877E0,-1.979083693E-1,2.490324001E1,2.504979323E1
4.924084250E0,-2.391229805E0,-3.778090686E-2,2.354459267E1,2.366574004E1
4.934051250E0,-2.308603093E0,3.449116100E-1,2.110592251E1,2.123460801E1
4.944017250E0,-2.316732623E0,9.640897939E-1,1.782144090E1,1.799723521E1
4.953984250E0,-1.911599808E0,1.563416242E0,1.427536891E1,1.448739595E1
4.963950250E0,-1.200954360E0,2.008637275E0,1.091170197E1,1.115984565E1
4.973916250E0,-4.014256071E-1,2.314389351E0,7.975119755E0,8.313848428E0
4.983883250E0,3.174188060E-1,2.577703213E0,5.444887455E0,6.032587168E0
4.993849250E0,8.526295113E-1,2.728965127E0,3.648950835E0,4.635630480E0
5.003816250E0,1.154969444E0,2.330477380E0,2.460935193E0,3.580681676E0
5.013782250E0,1.264322975E0,2.125240111E0,1.628083524E0,2.960711751E0
5.023749250E0,1.198492025E0,1.897661215E0,1.042662631E0,2.474802332E0
5.033715250E0,1.052963233E0,1.633226442E0,7.529564846E-1,2.084011432E0
5.043681250E0,9.902732601E-1,1.289470680E0,3.375568360E-1,1.660518107E0
5.053648250E0,9.216524568E-1,1.087977091E0,-2.452737397E-1,1.446822936E0
5.063614250E0,6.791495664E-1,9.316006172E-1,-6.638776624E-1,1.330359874E0
5.073581250E0,3.850238018E-1,5.865078896E-1,-9.757184440E-1,1.201774236E0
5.083547250E0,8.818770647E-2,1.940144160E-1,-1.108853112E0,1.129147417E0
5.093514250E0,-2.985670173E-1,-2.704702690E-1,-1.039961218E0,1.115264885E0
5.103480250E0,-3.614155589E-1,-8.566036445E-1,-5.790462577E-1,1.095301593E0
5.113446250E0,-6.133580846E-1,-8.342962244E-1,-1.028221178E0,1.459279658E0
5.123413250E0,-9.096561630E-1,-5.246241751E-1,-2.344546950E0,2.568969689E0
5.133379250E0,-9.297890036E-1,-7.678443727E-1,-3.352921509E0,3.563169266E0
5.143346250E0,-5.159137972E-1,-1.058048995E0,-4.247500480E0,4.407595155E0
5.153312250E0,-5.317076384E-1,-1.021291058E0,-4.989829651E0,5.120951902E0
5.163279250E0,-6.862135877E-1,-8.494679949E-1,-5.558007104E0,5.664267643E0
5.173245250E0,-5.580290258E-1,-7.508965105E-1,-5.845964348E0,5.920349747E0
5.183211250E0,-3.831130779E-1,-7.628382790E-1,-6.032955966E0,6.093049775E0
5.193178250E0,-2.340140123E-1,-8.494995698E-1,-6.092885249E0,6.156270196E0
5.203144250E0,-2.005391778E-1,-9.019265825E-1,-6.137220592E0,6.206380919E0
5.213111250E0,-2.336517773E-1,-8.940863433E-1,-6.051148993E0,6.121306043E0
5.223077250E0,-2.043427916E-1,-8.228771970E-1,-5.930598702E0,5.990900084E0
5.233044250E0,-1.259219452E-1,-8.106319579E-1,-5.942131750E0,5.998492331E0
5.243010250E0,7.344833761E-3,-8.613074371E-1,-6.104694870E0,6.165160493E0
5.252976250E0,1.996192646E-1,-1.040497407E0,-6.288186929E0,6.376815629E0
5.262943250E0,3.676891463E-1,-1.243749547E0,-6.384478877E0,6.514881332E0
5.272909250E0,4.893659764E-1,-1.436656500E0,-6.431485228E0,6.608136136E0
5.282876250E0,5.319779990E-1,-1.695234995E0,-6.471363239E0,6.710839325E0
5.292842250E0,5.994405419E-1,-2.031521815E0,-6.534709634E0,6.869413356E0
5.302808250E0,6.156001264E-1,-2.378181304E0,-6.580776338E0,7.024338192E0
5.312775250E0,6.280380312E-1,-2.802633320E0,-6.397293050E0,7.012456321E0
5.322741250E0,8.228445257E-1,-3.071748204E0,-6.125487569E0,6.901761232E0
5.332708250E0,1.148079305E0,-3.096632785E0,-5.951346962E0,6.806302326E0
5.342674250E0,1.533936627E0,-3.084230548E0,-5.802744654E0,6.748131976E0
5.352641250E0,2.152024013E0,-3.040021797E0,-5.571074461E0,6.701478235E0
5.362607250E0,2.850497750E0,-2.851316068E0,-5.120655254E0,6.517396027E0
5.372573250E0,3.051066895E0,-2.575578627E0,-3.987552568E0,5.642977046E0
5.382540250E0,2.609987737E0,-2.280802506E0,-1.941138772E0,3.972671115E0
5.392506250E0,1.507602230E0,-2.050599087E0,1.279042756E0,2.848468268E0
5.402473250E0,6.004286483E-1,-1.068712854E0,5.067138612E0,5.213305616E0
5.412439250E0,-1.869946875E-1,1.392382845E-2,8.266568372E0,8.268694790E0
5.422406250E0,-1.922284425E0,8.078396201E-2,1.038895855E1,1.056561230E1
5.432372250E0,-2.766757143E0,1.040489075E0,1.162477693E1,1.199470722E1
5.442338250E0,-2.841826622E0,2.791594654E0,1.254131161E1,1.315877944E1
5.452305250E0,-3.167205754E0,4.377886080E0,1.324470827E1,1.430452292E1
5.462271250E0,-3.675922287E0,5.758675944E0,1.409862863E1,1.566671894E1
5.472238250E0,-4.071868249E0,5.960048203E0,1.550717376E1,1.710481580E1
5.482204250E0,-3.582424724E0,3.995290189E0,1.753937590E1,1.834191423E1
5.492171250E0,-2.713998301E0,1.931180964E0,2.104681651E1,2.130877125E1
5.502137250E0,-2.977888991E0,1.660327117E-1,2.499119149E1,2.516853277E1
5.512103250E0,-4.542458596E0,-1.314230861E0,2.719974331E1,2.760773749E1
5.522070250E0,-6.007826972E0,-1.901810984E0,2.634406177E1,2.708727488E1
5.532036250E0,-6.490662559E0,-1.233434474E0,2.224593777E1,2.320628812E1
5.542003250E0,-6.226537396E0,9.361579370E-1,1.614193112E1,1.732651436E1
5.551969250E0,-5.591809273E0,3.528286231E0,1.002146105E1,1.200611578E1
5.561936250E0,-4.996639903E0,5.633185340E0,4.602503654E0,8.825090780E0
5.571902083E0,-5.563594118E0,5.448994539E0,1.711648421E0,7.973384558E0
5.581868083E0,-5.605718045E0,3.459812412E0,1.572929077E0,6.772627452E0
5.591835083E0,-4.250686628E0,1.581122196E0,2.896191986E0,5.381097679E0
5.601801083E0,-2.439548417E0,2.941377515E-1,3.805287840E0,4.529694144E0
5.611768083E0,-1.448388939E-1,-1.212866747E0,3.509255590E0,3.715763562E0
5.621734083E0,1.839417246E0,-1.971628055E0,2.627094351E0,3.764624512E0
5.631700083E0,2.647581825E0,-2.632153070E0,2.081511124E0,4.274413160E0
5.641667083E0,2.618695995E0,-3.591491416E0,5.028266323E-1,4.473165985E0
5.651633083E0,2.817578218E0,-4.922091411E0,-2.155984771E0,6.067454261E0
5.661600083E0,3.256930693E0,-5.350780027E0,-5.848164656E0,8.569683441E0
5.671566083E0,2.601485301E0,-3.976641664E0,-9.466360306E0,1.059213775E1
5.681533083E0,2.512783624E0,-3.136200308E0,-1.260166891E1,1.322693817E1
5.691499083E0,3.183851023E0,-2.558391906E0,-1.471325519E1,1.526964816E1
5.701465083E0,3.521620697E0,-1.872133733E0,-1.610568423E1,1.659215964E1
5.711432083E0,3.245465765E0,-1.333123361E0,-1.701605945E1,1.737401926E1
5.721398083E0,2.255460088E0,-1.068210871E0,-1.770748101E1,1.788247909E1
5.731365083E0,1.083124925E0,-1.192276215E0,-1.841561391E1,1.848592756E1
5.741331083E0,1.333026297E0,-2.169101830E0,-1.948831018E1,1.965391044E1
5.751298083E0,1.523877662E0,-4.075639118E0,-2.035087623E1,2.081084334E1
5.761264083E0,2.205077116E0,-4.904046904E0,-2.046062145E1,2.115535562E1
5.771230083E0,2.932244748E0,-4.925323752E0,-1.933289937E1,2.016476807E1
5.781197083E0,2.986566551E0,-4.769613276E0,-1.685566331E1,1.777026101E1
5.791163083E0,2.282033052E0,-4.626830702E0,-1.363837089E1,1.458150876E1
5.801130083E0,1.536490545E0,-4.362914577E0,-1.028161186E1,1.127419040E1
5.811096083E0,4.141020052E-1,-4.063012348E0,-7.409550160E0,8.460554555E0
5.821063083E0,-1.010494394E0,-3.946805369E0,-5.508795767E0,6.851656905E0
5.831029083E0,-1.790022892E0,-3.977242758E0,-4.306609983E0,6.129398947E0
5.840995083E0,-1.466723468E0,-4.128717218E0,-3.946583467E0,5.896872447E0
5.850962083E0,-8.326859012E-1,-4.480717554E0,-4.604821490E0,6.478778941E0
5.860928083E0,-1.976871984E-1,-4.863040965E0,-5.475602878E0,7.326013550E0
5.870895083E0,-1.820852190E-2,-5.062236307E0,-6.163229592E0,7.975711064E0
5.880861083E0,3.912651563E-2,-4.905882930E0,-6.883688421E0,8.453069530E0
5.890827083E0,2.729933426E-1,-4.730814369E0,-7.557295851E0,8.920081308E0
5.900794083E0,5.059032910E-1,-4.670313229E0,-8.306317744E0,9.542676682E0
5.910760083E0,6.804020400E-1,-4.493410690E0,-9.060691009E0,1.013655800E1
5.920727083E0,7.207337947E-1,-4.190934224E0,-9.458627948E0,1.037058482E1
5.930693083E0,6.454302818E-1,-3.870306831E0,-9.599564556E0,1.037051083E1
5.940660083E0,4.409014025E-1,-3.550714688E0,-9.815325644E0,1.044713292E1
5.950626083E0,-6.006333008E-2,-3.461575055E0,-9.891585031E0,1.047996011E1
5.960592083E0,-1.237482794E-1,-3.466865616E0,-9.664474497E0,1.026822955E1
5.970559083E0,4.765393049E-1,-3.424741105E0,-9.011369745E0,9.651980419E0
5.980525083E0,9.895637736E-1,-3.063695711E0,-7.606212487E0,8.259536081E0
5.990492083E0,1.020058904E0,-2.002769887E0,-5.674631574E0,6.103527741E0
6.000458083E0,7.265041195E-1,-1.051039645E0,-3.639202942E0,3.856979469E0
6.010425083E0,3.606433976E-1,1.652224338E-1,-1.960871370E0,2.000594573E0
6.020391083E0,1.016158372E-2,1.809898601E0,-1.330771319E0,2.246505844E0
6.030357083E0,5.092208549E-2,3.277424600E0,-1.994405737E0,3.836894487E0
6.040324083E0,4.175410451E-1,5.692608839E0,-1.918912336E0,6.021823683E0
6.050290083E0,5.336614855E-1,8.306344056E0,-1.472095013E-1,8.324771276E0
6.060257083E0,3.625937364E-1,9.709568224E0,2.385102654E0,1.000479405E1
6.070223083E0,-4.312403405E-1,8.568495199E0,7.320890583E0,1.127832067E1
6.080189083E0,-2.000821740E0,6.341856183E0,1.509371948E1,1.649371987E1
6.090156083E0,-2.783708222E0,3.351207690E0,2.411136796E1,2.450178952E1
6.100122083E0,-2.609070601E0,8.474033430E-2,3.216029888E1,3.226606970E1
6.110089083E0,-1.221586115E0,-2.864466164E0,3.704508856E1,3.717574512E1
6.120055083E0,1.557776749E0,-4.288989399E0,3.804594711E1,3.831861414E1
6.130022083E0,2.574483736E0,-3.306798087E0,3.528781315E1,3.553579374E1
6.139988083E0,1.710252983E0,-1.667159881E0,3.050040299E1,3.059377339E1
6.149954083E0,2.646925621E-1,-4.242532101E-1,2.477912233E1,2.478416746E1
6.159921083E0,-8.212328868E-1,3.822326334E-1,1.852044045E1,1.854257910E1
6.169887083E0,-1.339883766E0,9.947957160E-1,1.238726789E1,1.249917248E1
6.179854083E0,-1.520456895E0,1.625555480E0,7.380725725E0,7.709042224E0
6.189820083E0,-1.523159916E0,1.889445000E0,3.522103093E0,4.277292220E0
6.199787083E0,-1.175728376E0,1.811187620E0,9.299324065E-1,2.351066160E0
6.209753083E0,-1.021735593E0,1.588739071E0,-6.451139474E-1,1.996047961E0
6.219719083E0,-7.964955832E-1,1.564258241E0,-1.072043136E0,2.056838726E0
6.229686083E0,-4.586485791E-1,1.283010677E0,-1.036892014E0,1.712197408E0
6.239652083E0,-2.229258277E-1,9.605705009E-1,-9.998563349E-1,1.404316311E0
6.249619083E0,1.214883305E-2,7.678677616E-1,-1.046443441E0,1.298003224E0
6.259585083E0,1.970326026E-1,5.136483666E-1,-1.238850165E0,1.355509580E0
6.269551083E0,2.846951560E-1,2.157996798E-1,-1.604633265E0,1.643918717E0
6.279518083E0,3.676550131E-1,-7.661489725E-2,-2.159475558E0,2.191888396E0
6.289484083E0,3.782871515E-1,-3.647390798E-1,-2.871250688E0,2.918940951E0
6.299451083E0,1.880409005E-1,-6.553158769E-1,-3.633552192E0,3.696958184E0
6.309417083E0,-5.683654413E-2,-9.676744294E-1,-4.472517126E0,4.576355934E0
6.319384083E0,-1.117106165E-1,-1.185172141E0,-5.238505885E0,5.372062562E0
6.329350083E0,-7.509425573E-2,-1.250382628E0,-5.633894607E0,5.771469857E0
6.339316083E0,-1.461312930E-1,-1.357397492E0,-5.909385003E0,6.065040266E0
6.349283083E0,2.106912598E-2,-1.480217380E0,-6.106564225E0,6.283439666E0
6.359249083E0,5.111499976E-1,-1.659111773E0,-6.092988744E0,6.335490355E0
6.369216083E0,5.876929741E-1,-1.586442577E0,-5.998246894E0,6.232266753E0
6.379182083E0,3.598689339E-1,-1.511617513E0,-6.270557574E0,6.460215588E0
6.389149083E0,-1.335620999E-1,-1.710882436E0,-6.561769379E0,6.782460831E0
6.399115083E0,-2.682854752E-1,-1.578557315E0,-6.348605624E0,6.547412745E0
6.409081083E0,-1.040487175E-1,-1.094590292E0,-5.770618297E0,5.874435255E0
6.419048083E0,-3.132713029E-1,-8.719367981E-1,-5.356107425E0,5.435650783E0
6.429014083E0,-7.887144010E-1,-9.331428203E-1,-5.292168707E0,5.431378789E0
6.438981083E0,-1.076301955E0,-9.988164076E-1,-5.297626498E0,5.497354511E0
6.448947083E0,-1.144581939E0,-1.014940105E0,-5.237525892E0,5.456358557E0
6.458913083E0,-1.300816910E0,-9.763949668E-1,-5.157063527E0,5.407474085E0
6.468880083E0,-1.331922782E0,-1.002410983E0,-5.056516560E0,5.324209406E0
6.478846083E0,-1.039888858E0,-1.107377275E0,-4.770031060E0,5.006081260E0
6.488813083E0,-6.588494955E-1,-1.148126521E0,-4.451184729E0,4.643847829E0
6.498779083E0,-4.874341294E-1,-1.225484599E0,-3.964187679E0,4.177821022E0
6.508746083E0,-4.081013732E-1,-1.268363694E0,-3.215566905E0,3.480684374E0
6.518712083E0,-2.881821613E-1,-1.317812427E0,-2.374243789E0,2.730698102E0
6.528678083E0,-9.209876284E-2,-1.458320142E0,-1.800151877E0,2.318561321E0
6.538645083E0,3.270852037E-2,-1.574811004E0,-1.699896103E0,2.317487067E0
6.548611083E0,-4.755028859E-3,-1.735074706E0,-2.074047153E0,2.704103999E0
6.558578083E0,-1.633378031E-1,-1.911267686E0,-2.671824966E0,3.289114175E0
6.568544083E0,-4.390426458E-1,-1.948459486E0,-3.330016211E0,3.883073625E0
6.578510208E0,-4.479760949E-1,-1.973632919E0,-3.884529891E0,4.380123509E0
6.588477208E0,-2.215782637E-1,-2.120297459E0,-4.305539358E0,4.804417489E0
6.598443208E0,1.514882835E-1,-2.183807577E0,-4.537375612E0,5.037831049E0
6.608410208E0,7.314148305E-1,-2.220356622E0,-4.907532429E0,5.435883160E0
6.618376208E0,1.542094955E0,-2.464222498E0,-5.572708173E0,6.285342135E0
6.628343208E0,2.480813680E0,-2.674730740E0,-5.930949535E0,6.963101567E0
6.638309208E0,3.089176708E0,-2.542202135E0,-5.487819466E0,6.791315551E0
6.648275208E0,3.211308963E0,-1.944923967E0,-4.543655521E0,5.894068203E0
6.658242208E0,2.861346089E0,-9.066226275E-1,-3.429478519E0,4.557476159E0
6.668208208E0,1.834049648E0,3.145462883E-1,-1.899841642E0,2.659337463E0
6.678175208E0,-2.245125427E-1,1.729958539E0,3.930556834E-1,1.788198870E0
6.688141208E0,-2.251576660E0,2.924053384E0,3.977930975E0,5.426197609E0
6.698107208E0,-2.326724930E0,3.767204924E0,9.145038849E0,1.016057171E1
6.708074208E0,5.846521296E-1,2.962084259E0,1.584780448E1,1.613284439E1
6.718040208E0,3.871100298E0,-1.206959085E0,2.353466878E1,2.388143217E1
6.728007208E0,3.741601721E0,-6.368927037E0,3.254996201E1,3.337757992E1
6.737973208E0,-2.325515141E-1,-9.792026829E0,3.982992793E1,4.101659455E1
6.747940208E0,-4.043996326E0,-1.158752198E1,4.350250794E1,4.520058373E1
6.757906208E0,-6.378084362E0,-1.121461697E1,4.193532317E1,4.387503759E1
6.767872208E0,-7.446955968E0,-8.868250955E0,3.659226381E1,3.838094317E1
6.777839208E0,-7.498060048E0,-5.340894139E0,2.920058332E1,3.061731734E1
6.787805208E0,-8.084430528E0,-1.172092942E0,2.212463144E1,2.358455289E1
6.797772208E0,-9.092671770E0,2.470424055E0,1.570457576E1,1.831429427E1
6.807738208E0,-9.709756504E0,4.241816110E0,1.010271162E1,1.464025810E1
6.817705208E0,-8.512906305E0,3.464093451E0,6.511697917E0,1.126373504E1
6.827671208E0,-5.620036122E0,9.541601984E-1,3.596015992E0,6.739922752E0
6.837637208E0,-4.017013764E0,2.231800354E-1,1.830702994E0,4.420145062E0
6.847604208E0,-2.880477594E0,1.886034027E-2,1.470972347E0,3.234388123E0
6.857570208E0,-2.049915694E0,-1.310591554E0,1.894326548E0,3.083549520E0
6.867537208E0,-2.509645423E0,-2.683322931E0,1.271430266E0,3.887811341E0
6.877503208E0,-2.204975228E0,-3.669269032E0,7.516303360E-2,4.281483443E0
6.887469208E0,-1.062249050E0,-4.393249932E0,-1.956989404E0,4.925324917E0
6.897436208E0,5.470330444E-1,-4.966044931E0,-4.058467015E0,6.436769526E0
6.907402208E0,2.500381680E0,-5.203708520E0,-6.014641317E0,8.337049903E0
6.917369208E0,3.811539098E0,-5.252857291E0,-8.962315114E0,1.106541604E1
6.927335208E0,4.074576094E0,-5.052142843E0,-1.256680080E1,1.414393156E1
6.937302208E0,4.439953690E0,-4.797003096E0,-1.715017587E1,1.835355442E1
6.947268208E0,5.258408053E0,-4.961895747E0,-2.209004165E1,2.324308939E1
6.957234208E0,5.932970917E0,-5.271568966E0,-2.608236379E1,2.726314883E1
6.967201208E0,5.989738610E0,-5.551754091E0,-2.885791310E1,2.999130025E1
6.977167208E0,5.505392688E0,-5.332344925E0,-2.944974722E1,3.043075520E1
6.987134208E0,4.370794285E0,-4.575267908E0,-2.741211886E1,2.813291986E1
6.997100208E0,3.305548537E0,-3.934830564E0,-2.296076924E1,2.352884330E1
7.007066208E0,2.770385048E0,-4.626674874E0,-1.887658149E1,1.963177227E1
7.017033208E0,1.719386480E0,-4.758675767E0,-1.744790557E1,1.816674692E1
7.026999208E0,5.806741226E-1,-4.973669701E0,-1.585526085E1,1.662720269E1
7.036966208E0,1.936239682E0,-6.963960752E0,-1.354268472E1,1.535089844E1
7.046932208E0,3.477834408E0,-8.004622466E0,-1.141204587E1,1.436677083E1
7.056899208E0,4.397310823E0,-9.104488993E0,-8.992338227E0,1.353108307E1
7.066865208E0,4.352003088E0,-9.907231010E0,-6.695089989E0,1.272467631E1
7.076831208E0,3.298815469E0,-1.004177427E1,-4.962851767E0,1.167687080E1
7.086798208E0,1.662767453E0,-9.571698480E0,-4.291684381E0,1.062077032E1
7.096764208E0,5.795293839E-1,-9.352557117E0,-4.763100940E0,1.051157978E1
7.106731208E0,-2.425810969E-1,-8.878170172E0,-6.002832280E0,1.071982960E1
7.116697208E0,-4.503740381E-1,-8.148669208E0,-7.426692442E0,1.103446452E1
7.126663208E0,-4.579933986E-1,-7.254250451E0,-8.890131236E0,1.148339414E1
7.136630208E0,-5.297287944E-1,-6.262501865E0,-1.051227282E1,1.224775171E1
7.146596208E0,-3.372884488E-1,-5.413877916E0,-1.208615967E1,1.324760707E1
7.156563208E0,-5.095322192E-2,-4.722406073E0,-1.325295050E1,1.406927192E1
7.166529208E0,-1.172458832E-1,-4.256757500E0,-1.393292087E1,1.456914600E1
7.176496208E0,-2.241625138E-1,-4.037659113E0,-1.403663060E1,1.460753020E1
7.186462208E0,-7.950459123E-3,-3.876733798E0,-1.355718113E1,1.410057759E1
7.196428208E0,8.689561799E-2,-3.833111231E0,-1.262215054E1,1.319162525E1
7.206395208E0,5.934689999E-2,-3.734994952E0,-1.144386993E1,1.203810069E1
7.216361208E0,8.666290794E-2,-3.341186147E0,-9.981538596E0,1.052625993E1
7.226328208E0,1.228438613E-1,-2.602736312E0,-8.376567947E0,8.772469293E0
7.236294208E0,-3.504225377E-1,-1.562566349E0,-6.609403721E0,6.800634316E0
7.246261208E0,-9.439459898E-1,-4.072325501E-1,-4.542788379E0,4.657660211E0
7.256227208E0,-1.154688486E0,1.332872223E0,-2.394918374E0,2.974136494E0
7.266193208E0,-4.804505074E-1,3.299960646E0,-8.895842797E-1,3.451366852E0
7.276160208E0,9.463209095E-1,4.585100586E0,1.031269916E0,4.793974164E0
7.286126208E0,3.394287929E0,5.867958065E0,5.107296705E0,8.487555716E0
7.296093208E0,5.266588308E0,5.895707781E0,1.061220057E1,1.323310710E1
7.306059208E0,5.271523942E0,3.867476487E0,1.624812357E1,1.751421876E1
7.316025208E0,3.651817432E0,1.290920351E0,2.261848961E1,2.294773013E1
7.325992208E0,1.953995337E0,-2.296017399E0,2.947302381E1,2.962682781E1
7.335958208E0,1.419304303E0,-6.770305063E0,3.625814923E1,3.691212322E1
7.345925208E0,8.732113449E-1,-9.795312964E0,4.230567178E1,4.343363350E1
7.355891208E0,-2.022150483E0,-1.047089675E1,4.672237314E1,4.792399110E1
7.365857208E0,-5.978088033E0,-9.612928367E0,4.793468805E1,4.925322575E1
7.375824208E0,-7.859540182E0,-7.272997209E0,4.363710149E1,4.493178704E1
7.385790208E0,-8.503220392E0,-5.541215070E0,3.341388110E1,3.492130112E1
7.395757208E0,-6.438375587E0,-2.844051487E0,2.263448291E1,2.370360997E1
7.405723208E0,-4.836198737E0,-1.254553740E0,1.351402634E1,1.440804051E1
7.415690208E0,-3.533601058E0,-1.666210878E-1,6.293873931E0,7.219899451E0
7.425656208E0,-2.354170883E0,7.916228791E-1,1.530481800E0,2.917389564E0
7.435622208E0,-1.828764642E0,1.099124734E0,-1.227929320E0,2.461760694E0
7.445589208E0,-1.375593150E0,9.114990592E-1,-2.611040236E0,3.088789109E0
7.455555208E0,-7.115223835E-1,6.828421562E-1,-2.923818911E0,3.085653016E0
7.465522208E0,-3.145881324E-1,5.387120911E-1,-2.687146425E0,2.758610578E0
7.475488208E0,-1.347736065E-1,3.736728944E-1,-2.362819499E0,2.395978160E0
7.485454208E0,1.198907981E-1,5.420953631E-2,-2.159166241E0,2.163171591E0
7.495421208E0,4.851359178E-1,-2.959976046E-1,-2.316117788E0,2.384821387E0
7.505387208E0,8.284635537E-1,-5.988282654E-1,-2.830266384E0,3.009211683E0
7.515354208E0,8.877359017E-1,-8.547721504E-1,-3.240760219E0,3.467165594E0
7.525320208E0,8.050868241E-1,-1.285315503E0,-3.538763564E0,3.850071207E0
7.535287208E0,7.166651559E-1,-1.691087418E0,-3.896709056E0,4.307868043E0
7.545253208E0,7.370404366E-1,-2.002523573E0,-4.472848663E0,4.955774857E0
7.555219208E0,8.130674694E-1,-2.314423265E0,-5.345287153E0,5.881303300E0
7.565186208E0,8.961145963E-1,-2.535632496E0,-6.261217816E0,6.814345315E0
7.575153000E0,7.059730835E-1,-2.374779394E0,-7.020270023E0,7.444606529E0
7.585120000E0,3.832542881E-1,-2.214611147E0,-7.516114495E0,7.844957839E0
7.595086000E0,2.273772398E-1,-2.198875852E0,-7.819049968E0,8.125533694E0
7.605053000E0,1.446512713E-1,-2.210124725E0,-8.091692770E0,8.389342475E0
7.615019000E0,4.213964067E-2,-2.132795298E0,-8.258619667E0,8.529677036E0
7.624985000E0,-1.063658959E-1,-1.907677495E0,-8.350716822E0,8.566505622E0
7.634952000E0,-3.316309753E-1,-1.665619140E0,-8.493769537E0,8.661892817E0
7.644918000E0,-5.377229615E-1,-1.375429136E0,-8.734818664E0,8.858781427E0
7.654885000E0,-7.903374419E-1,-1.113299628E0,-8.942366753E0,9.045993172E0
7.664851000E0,-1.145115790E0,-1.038512570E0,-9.168213703E0,9.297630937E0
7.674817000E0,-1.429664985E0,-9.852909207E-1,-9.350954980E0,9.510788569E0
7.684784000E0,-1.655673172E0,-9.634778827E-1,-9.303979034E0,9.499135179E0
7.694750000E0,-1.820431483E0,-1.058299548E0,-8.894084539E0,9.139951231E0
7.704717000E0,-1.750819796E0,-1.256084541E0,-8.285546095E0,8.561156021E0
7.714683000E0,-1.311661156E0,-1.457627832E0,-7.643860955E0,7.891371502E0
7.724649000E0,-6.318947815E-1,-1.553718635E0,-7.075008733E0,7.271112788E0
7.734616000E0,-1.083828930E-1,-1.500652229E0,-6.738137190E0,6.904071028E0
7.744582000E0,4.145097754E-1,-1.353902758E0,-6.552976921E0,6.704205960E0
7.754549000E0,9.745841572E-1,-1.275885260E0,-6.240283030E0,6.443510671E0
7.764515000E0,1.396260719E0,-1.310044986E0,-5.457925576E0,5.784004966E0
7.774482000E0,1.588767430E0,-1.266245978E0,-4.514557437E0,4.950635280E0
7.784448000E0,1.444229814E0,-1.196527433E0,-3.618003861E0,4.075221417E0
7.794414000E0,1.183648210E0,-1.159035379E0,-2.765027245E0,3.223315337E0
7.804381000E0,1.095102069E0,-1.068931540E0,-2.171341898E0,2.656424066E0
7.814347000E0,9.843833598E-1,-8.939331463E-1,-1.666568143E0,2.132035751E0
7.824314000E0,6.471489246E-1,-6.485221432E-1,-1.192964140E0,1.504176233E0
7.834280000E0,2.826394760E-1,-3.795234722E-1,-1.191615772E0,1.282135441E0
7.844246000E0,1.161220483E-2,-2.011338396E-1,-1.389886669E0,1.404412552E0
7.854213000E0,-1.259350649E-1,-2.195086783E-1,-8.692535108E-1,9.053426791E-1
7.864179000E0,-8.471134490E-2,-1.789817728E-1,4.813141412E-1,5.204553674E-1
7.874146000E0,-1.273780664E-1,8.998937979E-2,1.866052921E0,1.872558882E0
7.884112000E0,-4.717916581E-1,6.301460255E-1,2.854711838E0,2.961258358E0
7.894079000E0,-1.061452001E0,1.532161413E0,4.297141002E0,4.683974780E0
7.904045000E0,-1.849856865E0,2.745231788E0,6.800953243E0,7.563810747E0
7.914011000E0,-2.075427534E0,3.312598818E0,1.046533956E1,1.117157296E1
7.923978000E0,-1.349333012E0,3.076618058E0,1.517969343E1,1.554700521E1
7.933944000E0,2.963706935E-1,1.897557281E0,2.035520083E1,2.044560491E1
7.943911000E0,2.576289648E0,-3.448229882E-1,2.595383263E1,2.608366538E1
7.953877000E0,4.135123135E0,-3.029223744E0,3.261002460E1,3.301043993E1
7.963843000E0,3.621868871E0,-6.046773521E0,3.881012908E1,3.944499364E1
7.973810000E0,1.461559938E0,-7.897561702E0,4.290808936E1,4.365331340E1
7.983776000E0,-7.268425271E-1,-7.968769678E0,4.319744701E1,4.393232316E1
7.993743000E0,-1.946961429E0,-6.574895208E0,3.885254946E1,3.945301643E1
8.003709000E0,-2.357119926E0,-4.345902980E0,3.140685473E1,3.179360645E1
8.013676000E0,-2.031565816E0,-2.366749121E0,2.337137710E1,2.357859259E1
8.023642000E0,-1.290450674E0,-5.952977896E-1,1.616612690E1,1.622847193E1
8.033608000E0,-4.032866662E-1,7.641860622E-1,1.093325948E1,1.096735079E1
8.043575000E0,3.890731813E-1,1.152522019E0,7.831467115E0,7.925374572E0
8.053541000E0,6.600481747E-1,4.951121083E-1,6.166523913E0,6.221480271E0
8.063508000E0,2.388660319E-1,-1.153234795E0,5.012343185E0,5.148843722E0
8.073474000E0,-6.934788993E-1,-3.231583014E0,2.773992780E0,4.314982932E0
8.083440000E0,-1.253912446E0,-4.957830763E0,-1.461523247E-1,5.116028029E0
8.093407000E0,-1.044814407E0,-6.203217530E0,-3.644985838E0,7.270314067E0
8.103373000E0,-1.038154720E0,-7.382322600E0,-7.738520359E0,1.074528499E1
8.113340000E0,-1.289239715E0,-8.991935939E0,-1.200960208E1,1.505814042E1
8.123306000E0,-1.592180596E0,-1.024110118E1,-1.612972447E1,1.917245952E1
8.133273000E0,-1.462928333E0,-1.086424947E1,-1.877184617E1,2.173831374E1
8.143239000E0,-2.201208744E0,-1.112226020E1,-2.067021606E1,2.357557686E1
8.153205000E0,-3.218836083E0,-1.140641851E1,-2.184509009E1,2.485307325E1
8.163172000E0,-3.422354564E0,-1.090140736E1,-2.211176054E1,2.488941839E1
8.173138000E0,-2.490867967E0,-8.518064134E0,-2.219912730E1,2.390738574E1
8.183105000E0,-1.871657478E0,-6.396308963E0,-2.164055682E1,2.264353262E1
8.193071000E0,-1.628327937E0,-4.814186309E0,-2.138854183E1,2.198402973E1
8.203037000E0,-1.569072838E0,-3.810847957E0,-2.119137606E1,2.158839899E1
8.213004000E0,-1.184088359E0,-3.566847156E0,-2.041903371E1,2.076201825E1
8.222970000E0,-6.891364646E-1,-3.852832135E0,-1.887606811E1,1.927758210E1
8.232937000E0,-5.025499128E-1,-4.299868144E0,-1.654048786E1,1.709763613E1
8.242903000E0,-5.355561295E-1,-4.830531031E0,-1.350715002E1,1.435492780E1
8.252870000E0,-2.753342754E-1,-5.252634512E0,-1.062005455E1,1.185122512E1
8.262836000E0,-2.946806654E-1,-5.950894387E0,-9.058523446E0,1.084236264E1
8.272802000E0,2.398907930E-2,-6.964191717E0,-8.145700577E0,1.071694824E1
8.282769000E0,3.987257284E-1,-7.837714865E0,-6.642685488E0,1.028173268E1
8.292735000E0,4.219036527E-1,-8.220381800E0,-5.256748613E0,9.766580037E0
8.302702000E0,3.293542157E-1,-8.221544226E0,-4.754168733E0,9.502861885E0
8.312668000E0,-1.879247054E-1,-8.169537921E0,-5.099309408E0,9.632217916E0
8.322634000E0,-8.158625847E-1,-7.703862158E0,-6.014066536E0,9.807350315E0
8.332601000E0,-1.157356205E0,-7.063428322E0,-7.342973177E0,1.025430388E1
8.342567000E0,-1.187704862E0,-6.586254594E0,-8.711911612E0,1.098575425E1
8.352534000E0,-1.080543379E0,-6.204102214E0,-9.911580169E0,1.174299279E1
8.362500000E0,-6.578294487E-1,-5.565907862E0,-1.084879294E1,1.221099415E1
8.372466000E0,3.475432956E-1,-4.937782415E0,-1.130688253E1,1.234293620E1
8.382433000E0,1.044024594E0,-4.657564252E0,-1.181824610E1,1.274573783E1
8.392399000E0,1.430876966E0,-4.454907652E0,-1.231994071E1,1.317856404E1
8.402366000E0,1.928524866E0,-4.064103439E0,-1.229972337E1,1.309653924E1
8.412332000E0,2.246369861E0,-3.905817849E0,-1.197889367E1,1.279826098E1
8.422299000E0,1.997998120E0,-3.843823915E0,-1.155609554E1,1.234140684E1
8.432265000E0,1.049010076E0,-3.713501464E0,-1.126740915E1,1.190987087E1
8.442231000E0,1.887662476E-1,-3.608711174E0,-1.044621565E1,1.105358994E1
8.452198000E0,-1.328713976E-1,-3.039210788E0,-8.751727642E0,9.265376071E0
8.462164000E0,-4.376925968E-1,-2.056893176E0,-6.783958896E0,7.102427940E0
8.472131000E0,-6.457255661E-1,-8.425030839E-1,-4.967076380E0,5.079234265E0
8.482097000E0,-7.610383599E-1,6.302640662E-1,-2.957053900E0,3.117784461E0
8.492063000E0,-8.987268399E-1,2.384098687E0,-9.606700498E-1,2.722962252E0
8.502030000E0,-5.141974202E-1,3.675950646E0,1.030155437E0,3.852042622E0
8.511996000E0,5.263533430E-1,4.127623789E0,4.254072166E0,5.950752556E0
8.521963000E0,2.233095073E0,4.233099958E0,9.017478915E0,1.020885767E1
8.531929000E0,3.772461279E0,4.458729392E0,1.414028185E1,1.529899679E1
8.541896000E0,4.796422175E0,4.011882248E0,1.784833108E1,1.891200114E1
8.551862000E0,6.896374540E0,2.560906209E0,1.954475803E1,2.088338547E1
8.561828000E0,8.113635616E0,2.786323096E0,1.827588884E1,2.018917513E1
8.571795000E0,7.749226027E0,3.185462515E0,1.512079911E1,1.728688060E1
8.581760458E0,6.199270075E0,2.358969693E0,1.328170360E1,1.484585255E1
8.591727458E0,4.203670337E0,1.502709207E-1,1.585624318E1,1.640469059E1
8.601693458E0,1.144529972E0,-2.279408091E0,2.199149267E1,2.213891145E1
8.611659458E0,-2.107248228E0,-3.357441114E0,2.675842588E1,2.705043921E1
8.621626458E0,-3.066220539E0,-3.507939967E0,2.703531025E1,2.743383589E1
8.631592458E0,-3.494321802E0,-1.977744096E0,2.315701115E1,2.350253012E1
8.641559458E0,-3.136379818E0,-6.251402973E-1,1.791252883E1,1.819577885E1
8.651525458E0,-2.012707522E0,-5.987987369E-2,1.294640555E1,1.310206067E1
8.661492458E0,-7.381500189E-1,3.394144233E-1,8.740427898E0,8.778106142E0
8.671458458E0,6.867692924E-1,4.262593167E-1,6.326020753E0,6.377451500E0
8.681424458E0,1.446484500E0,1.150419397E-1,6.065177048E0,6.236339045E0
8.691391458E0,1.189394707E0,-6.717617556E-1,6.902649187E0,7.036511169E0
8.701357458E0,4.531371398E-1,-1.326869764E0,7.255026961E0,7.389271469E0
8.711324458E0,-1.949555254E-1,-1.624722105E0,6.650676293E0,6.849030933E0
8.721290458E0,-5.243153691E-1,-1.604747578E0,5.424140949E0,5.680794524E0
8.731256458E0,-6.401947580E-1,-1.250641660E0,3.715983900E0,3.972718242E0
8.741223458E0,-6.811545036E-1,-8.411009216E-1,1.840477200E0,2.135129631E0
8.751189458E0,-5.499833301E-1,-6.053180169E-1,1.472995484E-1,8.310166797E-1
8.761156458E0,-3.372266145E-1,-4.343171453E-1,-1.396502209E0,1.500856952E0
8.771122458E0,-1.849779828E-1,-2.717910820E-1,-2.819824426E0,2.838925332E0
8.781089458E0,-1.217419535E-1,-9.194870867E-2,-3.959358464E0,3.962296697E0
8.791055458E0,-1.483929777E-1,-8.332253069E-2,-4.737757353E0,4.740812995E0
8.801021458E0,-2.670072921E-1,-2.491512477E-1,-5.013851767E0,5.027134251E0
8.810988458E0,-4.142453351E-1,-4.330941271E-1,-5.097257620E0,5.132368358E0
8.820954458E0,-5.939720797E-1,-5.674982261E-1,-5.089358032E0,5.155232511E0
8.830921458E0,-6.033558741E-1,-7.813072213E-1,-4.981116714E0,5.077992025E0
8.840887458E0,-7.693687418E-1,-8.702546272E-1,-4.733984145E0,4.874410453E0
8.850853458E0,-1.063592813E0,-9.087077446E-1,-4.401790960E0,4.618738257E0
8.860820458E0,-1.084991502E0,-9.998012980E-1,-3.997922605E0,4.261477954E0
8.870786458E0,-9.766512942E-1,-1.045461401E0,-3.565103517E0,3.841458105E0
8.880753458E0,-9.548899309E-1,-9.856383184E-1,-3.372382797E0,3.640915188E0
8.890719458E0,-9.661210435E-1,-9.281764877E-1,-3.460939463E0,3.711199729E0
8.900685458E0,-8.991693279E-1,-8.285998669E-1,-3.710954125E0,3.907206641E0
8.910652458E0,-6.509695684E-1,-6.970973756E-1,-3.870531072E0,3.986316208E0
8.920618458E0,-5.239553633E-1,-5.489429643E-1,-4.066777663E0,4.136973309E0
8.930585458E0,-6.153916731E-1,-3.720919535E-1,-4.183792727E0,4.245147926E0
8.940551458E0,-8.094544749E-1,-2.166047683E-1,-4.269595939E0,4.351043973E0
8.950518458E0,-8.491972688E-1,-9.590910092E-2,-4.336289281E0,4.419699004E0
8.960484458E0,-7.508220316E-1,-4.546356350E-3,-4.229790434E0,4.295914513E0
8.970450458E0,-7.641453510E-1,5.415925026E-2,-3.969238504E0,4.042487557E0
8.980417458E0,-8.039901057E-1,4.800615214E-2,-3.680567315E0,3.767662463E0
8.990383458E0,-7.201986283E-1,3.762354366E-2,-3.202370909E0,3.282572320E0
9.000350458E0,-5.989644689E-1,-2.137720115E-2,-2.611192848E0,2.679093785E0
9.010316458E0,-4.681970457E-1,-1.225802615E-1,-2.053638031E0,2.109896575E0
9.020282458E0,-2.219596118E-1,-2.103532907E-1,-1.622425173E0,1.650993040E0
9.030249458E0,1.060523755E-1,-2.857464488E-1,-1.426231792E0,1.458435896E0
9.040215458E0,2.319100014E-1,-3.200688373E-1,-1.455541545E0,1.508253128E0
9.050182458E0,3.253725908E-1,-3.288016538E-1,-1.617079648E0,1.681940677E0
9.060148458E0,5.254260111E-1,-2.209917149E-1,-1.777574024E0,1.866729557E0
9.070115458E0,5.087213931E-1,-1.955911360E-1,-1.800219705E0,1.880915823E0
9.080081458E0,3.832702583E-1,-1.930758466E-1,-1.582920799E0,1.640064825E0
9.090047458E0,3.615924372E-1,-2.810573839E-3,-1.646466585E0,1.685707331E0
9.100014458E0,4.158754292E-1,2.764488643E-1,-1.846836632E0,1.913160185E0
9.109980458E0,4.480318628E-1,4.853877867E-1,-1.336196950E0,1.490555649E0
9.119947458E0,6.915807469E-1,5.754402068E-1,5.129411459E-2,9.011361979E-1
9.129913458E0,9.151747651E-1,4.670927991E-1,2.593486310E0,2.789604232E0
9.139879458E0,6.735638675E-1,2.703497250E-1,6.159308449E0,6.201923720E0
9.149846458E0,2.242358232E-1,2.259992156E-1,9.910687884E0,9.915800103E0
9.159812458E0,-4.377718996E-1,-7.377227336E-2,1.407362827E1,1.408062851E1
9.169779458E0,-1.635030893E0,-7.503389054E-1,1.921929265E1,1.930330398E1
9.179745458E0,-2.017380470E0,-1.409878884E0,2.444938848E1,2.457295627E1
9.189712458E0,-1.101992136E0,-2.734715863E0,2.953027273E1,2.967709664E1
9.199678458E0,5.327225688E-1,-4.907579207E0,3.393353017E1,3.429070715E1
9.209644458E0,2.050795700E0,-6.439560817E0,3.585002995E1,3.648147960E1
9.219611458E0,2.277454244E0,-6.802718518E0,3.476284545E1,3.549534055E1
9.229577458E0,1.691242223E0,-6.165366164E0,3.138841496E1,3.203286802E1
9.239544458E0,8.279738494E-1,-5.011207071E0,2.610227941E1,2.659185453E1
9.249510458E0,2.772285174E-1,-3.536021220E0,2.036860733E1,2.067511708E1
9.259476458E0,1.922250584E-1,-1.964619143E0,1.501706482E1,1.514625085E1
9.269443458E0,5.370713989E-1,-6.260978519E-1,1.046240776E1,1.049487591E1
9.279409458E0,1.213339494E0,6.863212495E-1,6.984842328E0,7.122587447E0
9.289376458E0,1.178210153E0,1.205925955E0,3.623951064E0,3.996931059E0
9.299342458E0,-2.573418812E-1,6.163684505E-1,4.692542589E-1,8.162931275E-1
9.309308458E0,-5.072492104E-1,-2.228739336E-1,-2.470077315E0,2.531453435E0
9.319275458E0,-1.661111375E-1,-1.221028729E0,-6.045494151E0,6.169805798E0
9.329241458E0,4.353001354E-1,-2.525340812E0,-9.451773257E0,9.793000057E0
9.339208458E0,9.330359624E-1,-4.065858480E0,-1.206957931E1,1.277014119E1
9.349174458E0,9.821802020E-1,-5.647413955E0,-1.364575008E1,1.480082625E1
9.359141458E0,2.334576498E-1,-7.084123957E0,-1.515470360E1,1.673034237E1
9.369107458E0,-1.305422469E0,-8.877947393E0,-1.789307631E1,2.001709913E1
9.379073458E0,-1.876189654E0,-8.131161475E0,-2.034418935E1,2.198913175E1
9.389040458E0,-2.744404700E0,-7.219924371E0,-2.086724150E1,2.225086140E1
9.399006458E0,-2.917733421E0,-6.717541543E0,-1.994240612E1,2.124471921E1
9.408973458E0,-2.207361623E0,-6.112947630E0,-1.873148518E1,1.982697937E1
9.418939458E0,-1.358129271E0,-5.317995273E0,-1.759986885E1,1.843586105E1
9.428905458E0,-3.021703640E-1,-4.469570130E0,-1.614285732E1,1.675291636E1
9.438872458E0,7.646942583E-1,-3.870775486E0,-1.456117496E1,1.508626781E1
9.448838458E0,8.760811584E-1,-3.951838360E0,-1.269513549E1,1.332482681E1
9.458805458E0,2.008974659E-1,-4.452885684E0,-1.104456942E1,1.191012445E1
9.468771458E0,-6.446409076E-1,-4.991794315E0,-9.621047226E0,1.085809017E1
9.478738458E0,-1.281888888E0,-5.337350727E0,-8.516727460E0,1.013238365E1
9.488704458E0,-1.781619566E0,-5.670221019E0,-7.609043124E0,9.655211647E0
9.498670458E0,-2.099774902E0,-5.990734391E0,-7.118182819E0,9.537634918E0
9.508637458E0,-1.933745698E0,-6.240469556E0,-6.778694063E0,9.414538008E0
9.518603458E0,-1.600079307E0,-6.458562514E0,-6.553214902E0,9.339052901E0
9.528570458E0,-1.372391215E0,-6.579950711E0,-6.561685764E0,9.393344935E0
9.538536458E0,-1.274207986E0,-6.524523200E0,-6.694678345E0,9.434602647E0
9.548502458E0,-1.242208221E0,-6.393016981E0,-6.956335983E0,9.529132053E0
9.558469458E0,-1.256704638E0,-6.236764176E0,-7.308999685E0,9.690098572E0
9.568435458E0,-1.227852722E0,-6.008978873E0,-7.762979847E0,9.893397067E0
9.578402875E0,-9.875194408E-1,-5.992636490E0,-8.435334218E0,1.039431336E1
9.588368875E0,-8.216198994E-1,-6.020371588E0,-9.398296376E0,1.119142118E1
9.598334875E0,-6.747160614E-1,-6.376948248E0,-1.048069669E1,1.228681056E1
9.608301875E0,-4.086014564E-1,-7.145340212E0,-1.109663303E1,1.320447297E1
9.618267875E0,-4.212027908E-1,-7.187614412E0,-1.135294222E1,1.344353040E1
9.628234875E0,-2.584245662E-1,-7.120190168E0,-1.140264238E1,1.344559945E1
9.638200875E0,-5.094930428E-1,-6.888110086E0,-1.140086600E1,1.332986831E1
9.648167875E0,-7.559195611E-1,-6.606992329E0,-1.153304231E1,1.331295710E1
9.658133875E0,-9.853700043E-1,-6.320497473E0,-1.174622711E1,1.337510724E1
9.668099875E0,-1.139270036E0,-6.064337972E0,-1.198713356E1,1.348204370E1
9.678066875E0,-1.054054542E0,-5.739832122E0,-1.196872887E1,1.331567402E1
9.688032875E0,-8.263467886E-1,-5.177497206E0,-1.201765603E1,1.311157438E1
9.697999875E0,-9.549651407E-1,-4.455641769E0,-1.220336243E1,1.302638694E1
9.707965875E0,-1.499582189E0,-3.766395377E0,-1.171789735E1,1.239933866E1
9.717931875E0,-2.245606507E0,-3.181586981E0,-1.070834282E1,1.139446578E1
9.727898875E0,-2.760778658E0,-2.477024977E0,-9.394158887E0,1.009988974E1
9.737864875E0,-3.191968127E0,-1.017260572E0,-7.298288171E0,8.030472578E0
9.747831875E0,-2.348684002E0,2.068433534E0,-4.646562424E0,5.602256347E0
9.757797875E0,8.796820199E-1,5.554865395E0,-1.782608476E0,5.899835844E0
9.767764875E0,4.845665379E0,6.855575593E0,3.039566299E0,8.928513480E0
9.777730875E0,9.494943835E0,6.567311370E0,9.301996828E0,1.482601369E1
9.787696875E0,1.197938600E1,5.209632919E0,1.572152918E1,2.044046095E1
9.797663875E0,1.049536033E1,1.654566733E0,2.251454950E1,2.489568475E1
9.807629875E0,7.479987473E0,-1.316686546E0,2.897027319E1,2.994930058E1
9.817596875E0,5.017119775E0,-3.075224959E0,3.282082375E1,3.334418946E1
9.827562875E0,2.931403334E0,-4.351682661E0,3.323366992E1,3.364531295E1
9.837528875E0,9.288129571E-1,-4.913036413E0,3.294503732E1,3.332230640E1
9.847495875E0,-1.113177859E0,-4.839967852E0,3.234629881E1,3.272533423E1
9.857461875E0,-2.716304736E0,-4.577457690E0,3.067245147E1,3.113086425E1
9.867428875E0,-3.010888630E0,-3.251538391E0,2.816868542E1,2.851513266E1
9.877394875E0,-2.403917824E0,-1.966083725E0,2.402197807E1,2.422188549E1
9.887361875E0,-2.144952244E0,-1.172549171E0,1.860623080E1,1.876612683E1
9.897327875E0,-1.638037239E0,-6.286291847E-1,1.316496745E1,1.328136697E1
9.907293875E0,-1.130066080E0,1.432442302E-1,9.036007572E0,9.107524422E0
9.917260875E0,-6.845979289E-1,8.443142590E-1,5.600291829E0,5.704805821E0
9.927226875E0,-1.218681803E-1,1.245786425E0,2.711826353E0,2.986777166E0
9.937193875E0,3.375373940E-1,1.447934318E0,5.571297240E-1,1.587714965E0
9.947159875E0,5.848567821E-1,1.566897967E0,-8.884130824E-1,1.893806880E0
9.957125875E0,6.171815789E-1,1.589345135E0,-1.605983972E0,2.342245841E0
9.967092875E0,5.908397993E-1,1.450156552E0,-1.758351887E0,2.354537545E0
9.977058875E0,4.341447256E-1,1.087649208E0,-1.364763522E0,1.798344215E0
9.987025875E0,1.425301208E-1,7.148152430E-1,-7.680493176E-1,1.058855713E0
9.996991875E0,-7.881008819E-2,4.648695415E-1,-3.995694816E-1,6.180376131E-1
1.000695887E1,-1.430520578E-1,2.755828917E-1,-4.092507166E-1,5.137080595E-1
1.001692487E1,-1.568924173E-1,1.707027732E-1,-7.141368198E-1,7.508302504E-1
1.002689087E1,-2.897207648E-1,1.390579710E-1,-9.898564267E-1,1.040716573E0
1.003685787E1,-5.043474200E-1,1.459704032E-1,-1.099745489E0,1.218652461E0
1.004682388E1,-6.451635025E-1,8.891846225E-2,-1.275092962E0,1.431783677E0
1.005679088E1,-5.957426897E-1,-1.431051213E-1,-1.555403218E0,1.671725934E0
1.006675688E1,-4.284160622E-1,-2.956847785E-1,-2.075620054E0,2.139899161E0
1.007672288E1,-2.672477954E-1,-3.661239928E-1,-2.644523731E0,2.683090369E0
1.008668987E1,-3.308304915E-1,-3.956916813E-1,-3.214473476E0,3.255589109E0
1.009665587E1,-6.203808099E-1,-4.421089987E-1,-3.775301564E0,3.851393853E0
1.010662287E1,-9.012079597E-1,-3.927713625E-1,-4.303032657E0,4.413902488E0
1.011658887E1,-8.864076336E-1,-1.700371774E-1,-4.769915285E0,4.854556927E0
1.012655587E1,-7.906455901E-1,6.758387268E-2,-5.149898933E0,5.210676257E0
1.013652188E1,-6.709861225E-1,2.185414392E-1,-5.291686896E0,5.338532846E0
1.014648788E1,-6.273350497E-1,3.030474463E-1,-5.249839543E0,5.295866525E0
1.015645488E1,-5.919303051E-1,2.988931458E-1,-5.219556813E0,5.261510422E0
1.016642088E1,-4.647308894E-1,2.472879593E-1,-5.309303972E0,5.335338303E0
1.017638787E1,-3.003259329E-1,1.655662501E-1,-5.424584168E0,5.435413622E0
1.018635387E1,-2.110953389E-1,4.829829365E-2,-5.490184080E0,5.494453130E0
1.019631987E1,-1.772535186E-1,7.363807976E-2,-5.635723616E0,5.638991227E0
1.020628687E1,-1.641213300E-1,6.578000665E-2,-5.927000325E0,5.929637061E0
1.021625288E1,-2.189956582E-1,3.191717282E-2,-6.180708089E0,6.184668971E0
1.022621988E1,-1.865308571E-1,1.342424235E-1,-6.320157750E0,6.324334651E0
1.023618588E1,-9.809782337E-2,8.849731654E-2,-6.199219789E0,6.200627464E0
1.024615288E1,-1.095626784E-1,-1.946508855E-1,-5.854515901E0,5.858775417E0
1.025611887E1,-1.847133232E-1,-4.998809512E-1,-5.499205164E0,5.524966734E0
1.026608487E1,-1.833110695E-1,-6.793842591E-1,-5.149600725E0,5.197456450E0
1.027605187E1,-8.845097736E-2,-8.497681032E-1,-4.824706035E0,4.899767109E0
1.028601787E1,3.781383399E-2,-1.012180365E0,-4.628336653E0,4.737872850E0
1.029598487E1,1.510186699E-1,-1.154357095E0,-4.657109631E0,4.800418425E0
1.030595088E1,2.703017961E-1,-1.263048575E0,-4.789179522E0,4.960301932E0
1.031591688E1,4.140089979E-1,-1.352000805E0,-4.724049141E0,4.931120553E0
1.032588388E1,4.575882597E-1,-1.464140607E0,-4.330106435E0,4.593791078E0
1.033584988E1,4.633548568E-1,-1.507194971E0,-3.500700529E0,3.839432067E0
1.034581687E1,6.628865594E-1,-1.294992498E0,-2.212160141E0,2.647654934E0
1.035578287E1,9.544584064E-1,-1.104242875E0,-6.592092454E-2,1.461057407E0
1.036574887E1,9.614863211E-1,-9.778270961E-1,3.258991837E0,3.535764354E0
1.037571587E1,5.238728079E-1,-3.324204956E-1,7.338386037E0,7.364567586E0
1.038568188E1,-1.067804489E0,1.344030757E0,1.132023523E1,1.144964413E1
1.039564888E1,-3.799804906E0,2.611796865E0,1.721279838E1,1.781966409E1
1.040561488E1,-5.657629625E0,2.170009902E0,2.705948030E1,2.772964461E1
1.041558188E1,-4.694685593E0,2.897149541E-1,3.652332046E1,3.682495003E1
1.042554787E1,-3.547337629E0,-4.559131055E0,4.220961840E1,4.260306521E1
1.043551387E1,-3.109023327E0,-7.421204830E0,4.452257109E1,4.524378016E1
1.044548087E1,-2.692546329E0,-7.957741245E0,4.376429948E1,4.456331856E1
1.045544687E1,-2.338471401E0,-7.614595056E0,3.890805123E1,3.971507216E1
1.046541387E1,-1.525301021E0,-5.738467966E0,3.111561896E1,3.167709426E1
1.047537988E1,-7.875682736E-1,-3.626184116E0,2.249182956E1,2.279587401E1
1.048534588E1,-1.062301528E0,-2.219598676E0,1.453250840E1,1.473936577E1
1.049531288E1,-2.288652247E0,-7.010128905E-1,8.071806389E0,8.419228383E0
1.050527888E1,-3.792130727E0,4.617379555E-1,3.567645301E0,5.227002046E0
1.051524587E1,-4.501351501E0,8.612144664E-1,1.900122893E-1,4.586933656E0
1.052521187E1,-4.093117907E0,6.608023193E-1,-2.576967341E0,4.881704066E0
1.053517887E1,-3.289074884E0,-8.054223812E-1,-4.845319224E0,5.911331254E0
1.054514487E1,-2.735975646E0,-3.002453436E0,-7.338394808E0,8.387629446E0
1.055511088E1,-2.214900438E0,-3.801607895E0,-9.814675434E0,1.075573616E1
1.056507788E1,-1.869415947E0,-4.524351231E0,-1.256021683E1,1.348048652E1
1.057504388E1,2.001080187E0,-7.743311568E0,-1.391376072E1,1.604854926E1
1.058501046E1,4.411727426E0,-1.020050513E1,-1.463769045E1,1.837867312E1
1.059497646E1,3.396271012E0,-1.094962701E1,-1.427874392E1,1.831151322E1
1.060494246E1,4.139651804E-1,-1.127579054E1,-1.279965564E1,1.706300102E1
1.061490946E1,-3.855515130E0,-1.063480590E1,-1.308288073E1,1.729525547E1
1.062487546E1,-8.354874777E0,-8.797054088E0,-1.569055531E1,1.983395117E1
1.063484246E1,-9.278389279E0,-5.100108138E0,-2.003483188E1,2.266040819E1
1.064480846E1,-4.786459105E0,-2.373245670E0,-2.607809064E1,2.661971633E1
1.065477546E1,2.217863515E-2,-3.628208422E0,-3.036935753E1,3.058532761E1
1.066474146E1,2.947314485E0,-5.164453238E0,-3.198394217E1,3.253199651E1
1.067470746E1,4.492568106E0,-4.829324166E0,-2.993530702E1,3.065335457E1
1.068467446E1,3.367423189E0,-3.391147681E0,-2.420295173E1,2.467027147E1
1.069464046E1,1.234730802E0,-2.271615214E0,-1.782593624E1,1.801246232E1
1.070460746E1,-3.551364899E-1,-3.523086010E0,-1.200295028E1,1.251435466E1
1.071457346E1,-6.799931735E-1,-4.965345020E0,-7.010482954E0,8.617651253E0
1.072453946E1,-1.406615845E0,-5.186289665E0,-3.106380678E0,6.206913044E0
1.073450646E1,-1.990416182E0,-5.696923499E0,-1.452491637E0,6.206965916E0
1.074447246E1,-1.827073774E0,-6.675904105E0,-1.337006789E0,7.049360350E0
1.075443946E1,-8.439521702E-1,-7.128145305E0,-1.514661573E0,7.336000984E0
1.076440546E1,6.831813678E-3,-6.926122835E0,-1.758116829E0,7.145781901E0
1.077437146E1,2.960594389E-1,-6.581615998E0,-2.727524958E0,7.130547856E0
1.078433846E1,8.570044711E-2,-5.311411893E0,-4.080319814E0,6.698317002E0
1.079430446E1,2.420549206E-1,-4.548676233E0,-5.319060051E0,7.002959795E0
1.080427146E1,-2.078261241E-2,-4.514601876E0,-7.115327039E0,8.426739636E0
1.081423746E1,-4.407169229E-1,-4.105129550E0,-8.836446195E0,9.753414858E0
1.082420446E1,-7.999455135E-1,-3.473243174E0,-1.026840533E1,1.086938265E1
1.083417046E1,-1.018354879E0,-3.090049989E0,-1.134158458E1,1.179902523E1
1.084413646E1,-1.048058076E0,-2.794754197E0,-1.212277727E1,1.248482301E1
1.085410346E1,-9.096145016E-1,-2.604324124E0,-1.241581049E1,1.271857904E1
1.086406946E1,-6.967600644E-1,-2.633398234E0,-1.203392298E1,1.233837766E1
1.087403646E1,-8.336908183E-1,-2.588778132E0,-1.115449941E1,1.148127474E1
1.088400246E1,-1.210065565E0,-2.445727462E0,-1.043665663E1,1.078747621E1
1.089396846E1,-1.311550644E0,-2.178079352E0,-9.913529631E0,1.023436683E1
1.090393546E1,-1.045188482E0,-1.782229284E0,-9.255532513E0,9.483334977E0
1.091390146E1,-7.237221605E-1,-1.152830898E0,-8.243987010E0,8.355603788E0
1.092386846E1,-7.762949149E-1,-4.670609683E-1,-6.978564173E0,7.037125667E0
1.093383446E1,-6.981375222E-1,3.365195400E-1,-5.025104733E0,5.084517576E0
1.094380146E1,8.887957826E-2,1.846108654E0,-2.453858893E0,3.072041700E0
1.095376746E1,1.210979996E0,3.771290374E0,-1.778915960E-1,3.964939981E0
1.096373346E1,2.637404162E0,5.253104044E0,2.201245728E0,6.276661976E0
1.097370046E1,3.012330553E0,6.547592220E0,5.444726656E0,9.032726476E0
1.098366646E1,2.216957197E0,6.850332980E0,9.132760865E0,1.162967249E1
1.099363346E1,1.619414734E0,6.308831694E0,1.284305367E1,1.440027392E1
1.100359946E1,1.102758121E0,5.479615822E0,1.745262895E1,1.832584301E1
1.101356546E1,-5.794336358E-1,4.419756238E0,2.245749237E1,2.289560989E1
1.102353246E1,-2.572811725E0,3.591775591E0,2.645321058E1,2.681963016E1
1.103349846E1,-3.928265310E0,2.616283434E0,2.941160934E1,2.978789974E1
1.104346546E1,-4.328074527E0,1.152806779E0,3.028403028E1,3.061345591E1
1.105343146E1,-4.026569284E0,1.210671848E-1,2.880515952E1,2.908547975E1
1.106339846E1,-3.242189863E0,-4.477954160E-1,2.555701251E1,2.576573702E1
1.107336446E1,-2.450283321E0,-6.344117155E-1,2.112775835E1,2.127882843E1
1.108333046E1,-1.896447333E0,-3.775332262E-1,1.646382970E1,1.657699406E1
1.109329746E1,-1.436430359E0,8.305619001E-2,1.202297232E1,1.210876104E1
1.110326346E1,-1.214027711E0,2.734717910E-1,8.225952442E0,8.319551892E0
1.111323046E1,-1.216519210E0,2.358839884E-1,5.079568623E0,5.228534942E0
1.112319646E1,-1.274642872E0,5.332733765E-2,2.769606199E0,3.049307586E0
1.113316246E1,-1.521302841E0,-1.949479240E-1,1.313772878E0,2.019496522E0
1.114312946E1,-1.760342279E0,-5.119687539E-1,4.329395413E-1,1.883707406E0
1.115309546E1,-1.849370230E0,-8.349673386E-1,-5.277755320E-2,2.029809394E0
1.116306246E1,-2.031551636E0,-1.042988029E0,-4.276986820E-1,2.323349358E0
1.117302846E1,-2.010121883E0,-1.092685123E0,-7.597696602E-1,2.410767658E0
1.118299446E1,-1.617755587E0,-1.076906265E0,-1.157433534E0,2.261970961E0
1.119296146E1,-1.065924244E0,-1.051600100E0,-1.601146570E0,2.192196981E0
1.120292746E1,-5.263965393E-1,-1.043797576E0,-1.990594522E0,2.308478557E0
1.121289446E1,-5.132572610E-2,-9.217360720E-1,-2.230936135E0,2.414395940E0
1.122286046E1,2.130604054E-1,-7.914093827E-1,-2.493697727E0,2.624928933E0
1.123282746E1,4.005560165E-1,-8.324379793E-1,-2.845489610E0,2.991690029E0
1.124279346E1,6.535001703E-1,-8.207167970E-1,-3.177316759E0,3.346039498E0
1.125275946E1,7.281079376E-1,-7.146443582E-1,-3.372019685E0,3.522978070E0
1.126272646E1,6.212734605E-1,-6.638304462E-1,-3.492972264E0,3.609363768E0
1.127269246E1,3.801267952E-1,-8.322581774E-1,-3.407468430E0,3.528171078E0
1.128265946E1,9.222780358E-2,-9.677728088E-1,-3.240912246E0,3.383578337E0
1.129262546E1,-1.344252951E-1,-8.472557008E-1,-3.156564991E0,3.271057157E0
1.130259146E1,-2.815465400E-1,-7.094988084E-1,-3.164620115E0,3.255376704E0
1.131255846E1,-3.728612643E-1,-6.951143655E-1,-3.028733162E0,3.129765817E0
1.132252446E1,-3.210214583E-1,-7.049600534E-1,-2.922382250E0,3.023299765E0
1.133249146E1,-3.388149010E-1,-5.587621205E-1,-2.950430759E0,3.021928574E0
1.134245746E1,-4.785761459E-1,-3.738179053E-1,-2.961618236E0,3.023236268E0
1.135242346E1,-6.537160056E-1,-2.718344244E-1,-2.998705371E0,3.081147915E0
1.136239046E1,-5.963926808E-1,-1.587884501E-1,-3.167534952E0,3.227100196E0
1.137235646E1,-3.551243204E-1,-7.695447430E-2,-3.366461322E0,3.386014930E0
1.138232346E1,-1.748801154E-1,3.534100994E-2,-3.469833663E0,3.474417604E0
1.139228946E1,-1.209037369E-1,2.183668998E-1,-3.482442598E0,3.491376271E0
1.140225646E1,-3.700035838E-2,3.128612669E-1,-3.546483058E0,3.560448466E0
1.141222246E1,1.370141864E-1,3.592163846E-1,-3.437157083E0,3.458591926E0
1.142218846E1,2.026708168E-1,4.448090968E-1,-3.025913050E0,3.065139537E0
1.143215546E1,4.932046004E-2,4.046473499E-1,-2.553680804E0,2.586011917E0
1.144212146E1,7.914747253E-2,3.412034521E-1,-2.135223647E0,2.163761572E0
1.145208846E1,1.884633253E-1,3.327654813E-1,-1.743647309E0,1.785093059E0
1.146205446E1,1.766939400E-1,3.120327164E-1,-1.407012579E0,1.451988141E0
1.147202046E1,2.271741953E-2,2.200468048E-1,-1.099006401E0,1.121049396E0
1.148198746E1,-1.193065882E-1,1.158096609E-1,-9.144940031E-1,9.294865363E-1
1.149195346E1,-3.928605326E-2,8.484668054E-2,-8.472387439E-1,8.523824507E-1
1.150192046E1,1.726169689E-1,6.513622820E-2,-8.737231225E-1,8.929901684E-1
1.151188646E1,2.485331970E-1,1.292970677E-1,-1.105684506E0,1.140624701E0
1.152185246E1,3.453185032E-1,2.255819985E-1,-1.435690833E0,1.493767142E0
1.153181946E1,4.711835111E-1,1.950832140E-1,-1.909312377E0,1.976245206E0
1.154178546E1,6.067066210E-1,2.284456723E-1,-2.538858113E0,2.620320756E0
1.155175246E1,6.630565672E-1,3.012332015E-1,-3.219489217E0,3.300832664E0
1.156171846E1,5.598357423E-1,3.515711501E-1,-3.798950043E0,3.856039388E0
1.157168546E1,5.967510055E-1,2.360740229E-1,-4.212267498E0,4.260873171E0
1.158165183E1,6.896408600E-1,1.794614272E-1,-4.436308243E0,4.493177244E0
1.159161783E1,6.658853770E-1,1.237699872E-1,-4.315560316E0,4.368384506E0
1.160158483E1,6.629543140E-1,-2.742417231E-2,-3.987536781E0,4.042364418E0
1.161155083E1,7.854955088E-1,-2.431419910E-1,-3.519440271E0,3.614219285E0
1.162151783E1,9.726189081E-1,-4.417252021E-1,-2.911743826E0,3.101509439E0
1.163148383E1,1.204570279E0,-6.660899565E-1,-2.194036696E0,2.590069962E0
1.164144983E1,1.678050613E0,-7.543465139E-1,-1.451553744E0,2.343480487E0
1.165141683E1,2.235535263E0,-6.357336248E-1,-4.490164608E-1,2.367148270E0
1.166138283E1,2.689321589E0,-3.493413144E-1,9.616447806E-1,2.877368702E0
1.167134983E1,2.716732459E0,1.372592213E-1,3.486364326E0,4.422014424E0
1.168131583E1,1.823376433E0,1.183245995E0,8.088123629E0,8.375112927E0
1.169128283E1,3.014589771E-1,2.875878759E0,1.374110998E1,1.404206750E1
1.170124883E1,-2.608617442E0,4.649728691E0,1.947644384E1,2.019298706E1
1.171121483E1,-5.664614124E0,5.610226248E0,2.487916819E1,2.612538041E1
1.172118183E1,-6.937979234E0,5.366293859E0,3.035592063E1,3.159769902E1
1.173114783E1,-6.933987340E0,3.108059998E0,3.642612570E1,3.721025196E1
1.174111483E1,-6.366257783E0,-5.728297904E-2,4.073968451E1,4.123414136E1
1.175108083E1,-5.877436402E0,-2.970401339E0,4.038106776E1,4.091452281E1
1.176104683E1,-5.721476542E0,-3.996512842E0,3.529170739E1,3.597515836E1
1.177101383E1,-6.340508984E0,-2.720888953E0,2.727924439E1,2.813827403E1
1.178097983E1,-7.035714859E0,-1.024495332E0,1.933220122E1,2.059817657E1
1.179094683E1,-6.590966281E0,4.820374417E-1,1.358120267E1,1.510371684E1
1.180091283E1,-4.562770654E0,1.633168847E0,9.189583522E0,1.038915597E1
1.181087883E1,-1.690831895E0,2.370379949E0,6.674825878E0,7.282232769E0
1.182084583E1,1.538819929E0,2.371886484E0,6.130915539E0,6.751439670E0
1.183081183E1,4.020888714E0,1.458045615E0,2.669931638E0,5.042021223E0
1.184077883E1,3.339262998E0,2.053267318E-1,-1.556554534E0,3.689945590E0
1.185074483E1,1.212179260E0,-7.796952170E-1,-4.916694431E0,5.123591252E0
1.186071183E1,-3.997554231E-1,-2.102628635E0,-7.785255985E0,8.074098236E0
1.187067783E1,-4.499891451E-1,-4.910388794E0,-1.029005173E1,1.141050274E1
1.188064383E1,1.757779737E-1,-7.820960253E0,-1.220741455E1,1.449894090E1
1.189061083E1,7.128556218E-1,-1.014216629E1,-1.324505676E1,1.669740186E1
1.190057683E1,-3.722432502E-1,-1.071158920E1,-1.408429476E1,1.769870241E1
1.191054383E1,-1.338393310E-1,-1.112242860E1,-1.513295313E1,1.878117678E1
1.192050983E1,5.645572228E-1,-1.050170222E1,-1.613492849E1,1.925981287E1
1.193047583E1,-3.195994520E-1,-9.039144019E0,-1.745833583E1,1.966219109E1
1.194044283E1,-8.000352683E-1,-7.935724724E0,-1.821906560E1,1.988844224E1
1.195040883E1,-7.863953222E-2,-7.197996728E0,-1.806793496E1,1.944910319E1
1.196037583E1,-3.385494009E-1,-6.303920617E0,-1.809485671E1,1.916449504E1
1.197034183E1,-1.565324481E0,-5.934700524E0,-1.846974275E1,1.946284430E1
1.198030883E1,-2.186992555E0,-5.897940248E0,-1.861872747E1,1.965262446E1
1.199027483E1,-2.801728756E0,-5.812111309E0,-1.797154127E1,1.909467511E1
1.200024083E1,-3.250286210E0,-6.019568181E0,-1.609132931E1,1.748514915E1
1.201020783E1,-2.933867936E0,-6.606111154E0,-1.387809738E1,1.564767946E1
1.202017383E1,-3.057052397E0,-6.917376570E0,-1.186742469E1,1.407236429E1
1.203014083E1,-2.842670082E0,-7.276452913E0,-1.008706330E1,1.275838494E1
1.204010683E1,-2.049245749E0,-7.433590987E0,-8.688581221E0,1.161676060E1
1.205007283E1,-1.428579303E0,-7.145703324E0,-7.463231108E0,1.043080694E1
1.206003983E1,-8.344314413E-1,-6.745699979E0,-6.618771545E0,9.487301029E0
1.207000583E1,-2.651231365E-1,-6.391962728E0,-6.312067543E0,8.987195027E0
1.207997283E1,3.240640935E-1,-6.039666815E0,-6.461139382E0,8.850362416E0
1.208993883E1,6.621878171E-1,-5.731263612E0,-6.925390763E0,9.013706924E0
1.209990483E1,7.413091233E-1,-5.511576118E0,-7.822975788E0,9.598226956E0
1.210987183E1,7.544542488E-1,-5.386917574E0,-8.973410790E0,1.049333995E1
1.211983783E1,6.335224271E-1,-5.208778056E0,-9.764867681E0,1.108536695E1
1.212980483E1,3.710172352E-1,-5.064541279E0,-1.026239206E1,1.145006214E1
1.213977083E1,2.196361841E-1,-4.915173571E0,-1.054483947E1,1.163618540E1
1.214973783E1,-8.325074698E-2,-4.768962774E0,-1.048627493E1,1.152006504E1
1.215970383E1,-5.997556338E-1,-4.408879247E0,-1.038610043E1,1.129907099E1
1.216966983E1,-7.000997016E-1,-3.817220837E0,-1.031001646E1,1.101624954E1
1.217963683E1,-4.447740135E-1,-3.652200133E0,-1.042019671E1,1.105065108E1
1.218960283E1,2.331448603E-1,-3.859024629E0,-1.052312291E1,1.121082260E1
1.219956983E1,8.149643062E-1,-3.756461250E0,-1.039218621E1,1.108028439E1
1.220953583E1,3.127253191E-1,-3.361412543E0,-9.948990655E0,1.050615565E1
1.221950183E1,-3.419947265E-1,-2.861159271E0,-9.316365191E0,9.751812813E0
1.222946883E1,-4.043704842E-1,-2.072789417E0,-8.480193472E0,8.739202067E0
1.223943483E1,-4.483927090E-1,-1.219759883E0,-7.489665200E0,7.601575824E0
1.224940183E1,-4.403979573E-1,-6.120602220E-2,-6.621789293E0,6.636700233E0
1.225936783E1,1.281393190E-1,1.265191579E0,-5.652314506E0,5.793598941E0
1.226933483E1,1.422822573E0,2.393981650E0,-3.944821116E0,4.828787203E0
1.227930083E1,2.312364022E0,3.398110254E0,-1.197183491E0,4.281054657E0
1.228926683E1,2.676940695E0,4.637357737E0,2.583341390E0,5.945145163E0
1.229923383E1,2.899655292E0,4.911291604E0,7.950517595E0,9.784657176E0
1.230919983E1,3.065858304E0,4.619414094E0,1.445348913E1,1.548036891E1
1.231916683E1,4.158055038E0,3.627381626E0,2.133811310E1,2.204001792E1
1.232913283E1,6.373251638E0,1.813420964E0,2.775609185E1,2.853607308E1
1.233909883E1,6.477050241E0,9.923697062E-2,3.354082181E1,3.416063167E1
1.234906583E1,5.385033016E0,-1.020669718E0,3.791641023E1,3.831050133E1
1.235903183E1,3.827587074E0,-1.633027198E0,3.947639591E1,3.969512608E1
1.236899883E1,1.595614374E0,-1.687136747E0,3.698374191E1,3.705657272E1
1.237896483E1,-7.804486125E-2,-1.590943033E0,3.095011235E1,3.099107364E1
1.238893183E1,-8.261103418E-1,-1.387035128E0,2.393387924E1,2.398826589E1
1.239889783E1,-1.306492656E0,-9.695290200E-1,1.746908301E1,1.754467927E1
1.240886383E1,-1.674974685E0,-6.512363476E-1,1.220883192E1,1.234039002E1
1.241883083E1,-1.952990347E0,-6.552558699E-1,8.483945045E0,8.730455606E0
1.242879683E1,-2.326426868E0,-1.022569406E0,6.320068873E0,6.811841213E0
1.243876383E1,-2.487628610E0,-1.519490204E0,5.225162539E0,5.983265842E0
1.244872983E1,-2.336329566E0,-1.897378648E0,4.471866916E0,5.390368753E0
1.245869583E1,-1.993128120E0,-2.258911846E0,3.639480684E0,4.724517127E0
1.246866283E1,-1.515163264E0,-2.344490232E0,2.644792703E0,3.845423593E0
1.247862883E1,-1.145427812E0,-2.237946216E0,1.364234349E0,2.860339752E0
1.248859583E1,-8.701918428E-1,-2.021265799E0,-1.053738427E-1,2.203146141E0
1.249856183E1,-5.922160877E-1,-1.784124513E0,-1.516713946E0,2.415417431E0
1.250852883E1,-4.950645997E-1,-1.485855704E0,-2.116404968E0,2.632874117E0
1.251849483E1,-6.233747305E-1,-1.180781174E0,-2.011445108E0,2.414280775E0
1.252846083E1,-5.974629405E-1,-9.748526175E-1,-1.958183990E0,2.267550249E0
1.253842783E1,-4.185745405E-1,-9.231084135E-1,-2.109963090E0,2.340785772E0
1.254839383E1,-1.168524387E-1,-1.065603743E0,-2.455258132E0,2.679077887E0
1.255836083E1,-8.166447960E-2,-1.219855924E0,-2.565595091E0,2.842005583E0
1.256832683E1,-3.772138951E-1,-1.289704277E0,-2.438680691E0,2.784383406E0
1.257829250E1,-3.182991774E-1,-1.183882976E0,-2.512564353E0,2.795688269E0
1.258825950E1,-2.192431051E-1,-1.155536405E0,-2.956903042E0,3.182233103E0
1.259822550E1,-2.350379694E-1,-1.181645831E0,-3.535110224E0,3.734773623E0
1.260819250E1,-3.360421148E-1,-1.141355738E0,-3.909777583E0,4.086805351E0
1.261815850E1,-6.176093028E-1,-9.553455752E-1,-4.059675635E0,4.216051788E0
1.262812550E1,-7.532116424E-1,-8.212167339E-1,-4.336047206E0,4.476944279E0
1.263809150E1,-7.040260338E-1,-7.522353767E-1,-4.841731957E0,4.950139297E0
1.264805750E1,-6.277728599E-1,-6.272828633E-1,-5.412660525E0,5.484931770E0
1.265802450E1,-6.616139129E-1,-5.175557685E-1,-5.978115515E0,6.036842060E0
1.266799050E1,-6.706633562E-1,-5.185576889E-1,-6.454508055E0,6.509943598E0
1.267795750E1,-5.776527932E-1,-4.745382415E-1,-6.906198447E0,6.946542038E0
1.268792350E1,-4.495033146E-1,-4.074638075E-1,-7.218721014E0,7.244170972E0
1.269788950E1,-3.960751124E-1,-4.214909855E-1,-7.360001439E0,7.382692688E0
1.270785650E1,-5.730949616E-1,-4.327076992E-1,-7.268110106E0,7.303499045E0
1.271782250E1,-7.199553110E-1,-4.234347461E-1,-6.921891205E0,6.972102300E0
1.272778950E1,-6.452827857E-1,-4.776974921E-1,-6.594133717E0,6.642829536E0
1.273775550E1,-5.870172552E-1,-5.707129522E-1,-6.460167575E0,6.511840571E0
1.274772250E1,-6.009203991E-1,-5.266481888E-1,-6.494907637E0,6.543874147E0
1.275768850E1,-5.701280844E-1,-4.408071162E-1,-6.678233051E0,6.717004811E0
1.276765450E1,-5.240493938E-1,-4.413550003E-1,-6.999930484E0,7.033381035E0
1.277762150E1,-4.802437352E-1,-4.668399435E-1,-7.323062239E0,7.353625917E0
1.278758750E1,-3.334055322E-1,-4.380156554E-1,-7.528463230E0,7.548561159E0
1.279755450E1,-2.081239667E-1,-4.016303328E-1,-7.638772123E0,7.652154079E0
1.280752050E1,-1.070141329E-1,-4.901979621E-1,-7.643996610E0,7.660445825E0
1.281748650E1,-1.521357805E-2,-6.845328055E-1,-7.520231520E0,7.551337546E0
1.282745350E1,-8.124207309E-2,-7.866713107E-1,-7.252005705E0,7.295000944E0
1.283741950E1,-1.953969902E-1,-8.586704890E-1,-6.842180207E0,6.898617613E0
1.284738650E1,-2.361146976E-1,-1.096816546E0,-6.231277149E0,6.331474677E0
1.285735250E1,-8.188265383E-2,-1.243886664E0,-5.450297298E0,5.591037421E0
1.286731950E1,1.345353324E-1,-1.244054333E0,-4.133920655E0,4.319151644E0
1.287728550E1,-2.007524550E-2,-1.016590262E0,-2.273578709E0,2.490586060E0
1.288725150E1,-3.658393796E-1,-8.181165402E-1,1.656077653E-1,9.113611013E-1
1.289721850E1,-3.404406097E-1,-3.702615557E-1,3.093399274E0,3.134024968E0
1.290718450E1,-4.637142048E-1,4.927132881E-1,6.266694319E0,6.303114701E0
1.291715150E1,-9.581633484E-1,8.667352612E-1,9.761423671E0,9.846557729E0
1.292711750E1,-9.975757015E-1,6.597879005E-1,1.506855306E1,1.511594419E1
1.293708350E1,-1.205255572E0,1.012972444E0,2.209479894E1,2.215082153E1
1.294705050E1,-1.726821654E0,9.288250170E-1,2.957540388E1,2.964032968E1
1.295701650E1,-2.348279813E0,-1.555576441E0,3.770020826E1,3.780528983E1
1.296698350E1,-2.490951582E0,-5.490652442E0,4.482877340E1,4.523241126E1
1.297694950E1,-2.146877294E0,-9.040984722E0,4.867828548E1,4.955727963E1
1.298691550E1,-2.074721045E0,-1.079933018E1,4.819405183E1,4.943274857E1
1.299688250E1,-1.656819372E0,-9.800635099E0,4.293574903E1,4.407126097E1
1.300684850E1,-2.491555892E0,-7.701919713E0,3.409593542E1,3.504369030E1
1.301681550E1,-4.995475137E0,-5.880859362E0,2.426021001E1,2.545775065E1
1.302678150E1,-6.718651929E0,-4.469672748E0,1.539109250E1,1.737826189E1
1.303674850E1,-6.350031760E0,-3.109169507E0,8.616252918E0,1.114583567E1
1.304671450E1,-4.260494455E0,-1.644438332E0,4.406428971E0,6.346070179E0
1.305668050E1,-1.623075529E0,-5.278180705E-1,1.794570710E0,2.476580328E0
1.306664750E1,8.322228017E-1,4.517723997E-1,-2.790764934E-1,9.872065549E-1
1.307661350E1,3.632311998E0,1.415070919E0,-1.801334769E0,4.294289593E0
1.308658050E1,7.015104593E0,2.097459258E0,-2.905232951E0,7.877271500E0
1.309654650E1,8.785649679E0,1.926591484E0,-4.073627676E0,9.873896772E0
1.310651250E1,8.744444935E0,1.137669507E0,-5.378780004E0,1.032912791E1
1.311647950E1,6.894178326E0,-1.770829260E-1,-7.669099876E0,1.031388123E1
1.312644550E1,3.547472992E0,-1.908152874E0,-9.889320989E0,1.067821528E1
1.313641250E1,-1.158383122E-1,-3.707422114E0,-1.099414771E1,1.160300311E1
1.314637850E1,-2.317148652E0,-5.253827929E0,-1.206588971E1,1.336254393E1
1.315634550E1,-2.393662100E0,-6.060069505E0,-1.341819983E1,1.491650587E1
1.316631150E1,-2.718169413E0,-7.192057711E0,-1.468212812E1,1.657344337E1
1.317627750E1,-3.322973532E0,-7.813309171E0,-1.572960301E1,1.787485285E1
1.318624450E1,-3.747048402E0,-7.378190373E0,-1.620500971E1,1.819561498E1
1.319621050E1,-3.951876074E0,-6.663823172E0,-1.668210275E1,1.839337968E1
1.320617750E1,-3.377774515E0,-5.578212157E0,-1.719696295E1,1.839188262E1
1.321614350E1,-2.405859831E0,-4.918362057E0,-1.778965076E1,1.861317063E1
1.322610950E1,-2.952924888E0,-6.516247051E0,-1.924179274E1,2.052870743E1
1.323607650E1,-3.903142456E0,-7.986684963E0,-2.113098134E1,2.292465986E1
1.324604250E1,-3.646444134E0,-7.402900706E0,-2.090469877E1,2.247456171E1
1.325600950E1,-2.554723655E0,-7.479590448E0,-1.918445143E1,2.074883281E1
1.326597550E1,-1.126645897E0,-8.135826384E0,-1.817874437E1,1.994812645E1
1.327594250E1,-6.078154358E-1,-8.514215496E0,-1.731445105E1,1.930418401E1
1.328590850E1,-8.111438817E-1,-8.180241834E0,-1.481966984E1,1.694688541E1
1.329587450E1,-1.486966090E0,-6.637080932E0,-1.115586064E1,1.306580033E1
1.330584150E1,-5.002171661E-1,-6.608257667E0,-8.081876464E0,1.045160341E1
1.331580750E1,6.891057667E-1,-7.588302466E0,-6.462480149E0,9.991038522E0
1.332577450E1,1.512797627E0,-8.078414912E0,-5.595221123E0,9.942627599E0
1.333574050E1,2.149366307E0,-7.918859600E0,-5.106137202E0,9.664406345E0
1.334570650E1,1.816724495E0,-7.486184937E0,-5.226962312E0,9.309381710E0
1.335567350E1,2.440964759E-1,-6.300826271E0,-5.910090178E0,8.642289089E0
1.336563950E1,-9.032664719E-1,-5.283305497E0,-7.221666257E0,8.993423754E0
1.337560650E1,-1.229004185E0,-4.621036988E0,-9.033549403E0,1.022102974E1
1.338557250E1,-1.336464899E0,-4.076616188E0,-1.066270414E1,1.149339799E1
1.339553850E1,-1.401262135E0,-3.719224719E0,-1.177036208E1,1.242326815E1
1.340550550E1,-1.196262847E0,-3.357159279E0,-1.224065480E1,1.274892910E1
1.341547150E1,-8.441088755E-1,-3.078913382E0,-1.198971803E1,1.240748024E1
1.342543850E1,-2.919933217E-1,-2.965328295E0,-1.116391577E1,1.155471537E1
1.343540450E1,8.411183171E-3,-2.994098057E0,-1.024570878E1,1.067423264E1
1.344537150E1,2.544736026E-1,-3.066433378E0,-9.111244281E0,9.616784432E0
1.345533750E1,5.644728036E-1,-2.880562963E0,-7.588107753E0,8.136071030E0
1.346530350E1,5.947343373E-1,-2.763586491E0,-6.374429852E0,6.973125207E0
1.347527050E1,4.464230745E-1,-2.614215859E0,-5.635444120E0,6.228294192E0
1.348523650E1,9.706270175E-2,-2.011441015E0,-5.007982916E0,5.397704050E0
1.349520350E1,-2.946112297E-1,-9.511344105E-1,-4.260946738E0,4.375742171E0
1.350516950E1,-2.884348889E-1,5.958447236E-1,-3.000713305E0,3.072866082E0
1.351513550E1,7.184923377E-2,2.525678196E0,-1.494509729E0,2.935604196E0
1.352510250E1,9.458207533E-1,4.579155429E0,-4.141050750E-1,4.694115929E0
1.353506850E1,2.365358653E0,6.356607538E0,1.017276360E0,6.858296592E0
1.354503550E1,2.230582379E0,7.791283295E0,3.583985345E0,8.861407568E0
1.355500150E1,9.656317046E-1,8.202094048E0,8.133019136E0,1.159106516E1
1.356496850E1,-1.720207722E-1,6.889583584E0,1.401653489E1,1.561919343E1
1.357493450E1,-2.641587114E-1,4.797434621E0,2.007977826E1,2.064661362E1
1.358490113E1,-5.085028169E-1,2.654959257E0,2.566366573E1,2.580564129E1
1.359486813E1,-1.377650785E0,9.874368489E-1,2.969452102E1,2.974285682E1
1.360483413E1,-2.440846792E0,-2.784012862E-1,3.152134322E1,3.161693088E1
1.361480113E1,-3.778009117E0,-8.210849523E-1,3.200531492E1,3.223798561E1
1.362476713E1,-5.155861924E0,-6.944241017E-1,3.105901089E1,3.149170200E1
1.363473312E1,-5.592235535E0,-3.271189713E-1,2.824056407E1,2.879078957E1
1.364470012E1,-4.259446634E0,5.504144892E-2,2.393089015E1,2.430706519E1
1.365466612E1,-2.465724648E0,2.977545467E-1,1.824076345E1,1.840907132E1
1.366463312E1,-1.432426332E0,5.630222556E-1,1.214825008E1,1.224535909E1
1.367459913E1,-7.593812589E-1,9.564140077E-1,6.909552410E0,7.016644651E0
1.368456613E1,-3.108444891E-1,1.213430126E0,2.729213634E0,3.002939231E0
1.369453213E1,-3.862712321E-1,1.303719175E0,-3.605919421E-2,1.360216681E0
1.370449813E1,-7.548835076E-1,1.140845130E0,-1.303606909E0,1.889647505E0
1.371446512E1,-1.134046864E0,7.472393695E-1,-1.432371953E0,1.973858753E0
1.372443112E1,-1.249483180E0,2.822741894E-1,-1.071049109E0,1.669740438E0
1.373439812E1,-1.058164258E0,-5.711984172E-2,-5.586564320E-1,1.197944607E0
1.374436412E1,-9.100848370E-1,-3.935804710E-1,-7.946366072E-3,9.915760901E-1
1.375433013E1,-7.182949211E-1,-6.153712079E-1,3.717069143E-1,1.016265392E0
1.376429713E1,-3.792454371E-1,-7.418742567E-1,2.592275351E-1,8.725843394E-1
1.377426313E1,3.000206351E-3,-7.589259070E-1,-1.817992902E-1,7.804027905E-1
1.378423013E1,2.628573404E-1,-8.380970608E-1,-6.287008131E-1,1.080169143E0
1.379419613E1,4.458118942E-1,-1.055420671E0,-1.079746842E0,1.574329788E0
1.380416212E1,6.455698109E-1,-1.243786823E0,-1.494788057E0,2.048940550E0
1.381412912E1,5.998319399E-1,-1.494401994E0,-1.951714631E0,2.530261978E0
1.382409512E1,5.039870853E-1,-1.815565284E0,-2.376855741E0,3.033104597E0
1.383406212E1,4.463094923E-1,-1.978677019E0,-2.739524614E0,3.408716770E0
1.384402813E1,3.317542054E-1,-1.960920487E0,-3.142319419E0,3.718795684E0
1.385399513E1,2.115852260E-1,-2.006766751E0,-3.537677152E0,4.072719083E0
1.386396113E1,1.569284508E-1,-2.085816721E0,-3.885261962E0,4.412541042E0
1.387392713E1,1.735221179E-1,-1.997196321E0,-4.303681698E0,4.747691989E0
1.388389412E1,2.012076607E-1,-1.730570596E0,-4.623417390E0,4.940784095E0
1.389386012E1,2.751067456E-1,-1.487835425E0,-5.025088946E0,5.247938346E0
1.390382712E1,5.011318168E-1,-1.335832376E0,-5.343738810E0,5.530924489E0
1.391379312E1,6.743776537E-1,-1.158054509E0,-5.607706098E0,5.765608654E0
1.392375913E1,6.567490295E-1,-8.825100258E-1,-5.801831903E0,5.905200815E0
1.393372613E1,6.442422006E-1,-5.782054281E-1,-5.850483077E0,5.914179720E0
1.394369213E1,6.368354595E-1,-4.098637971E-1,-5.819470029E0,5.868541485E0
1.395365913E1,6.159902819E-1,-3.934056392E-1,-5.592153674E0,5.639715838E0
1.396362513E1,6.412729114E-1,-4.410928988E-1,-5.158295535E0,5.216685415E0
1.397359212E1,6.737089515E-1,-2.334945238E-1,-4.443858753E0,4.500698175E0
1.398355812E1,4.340739743E-1,-4.532206088E-2,-3.578843889E0,3.605356832E0
1.399352412E1,2.777746108E-1,-9.804523498E-2,-2.536674178E0,2.553720323E0
1.400349112E1,1.577668684E-1,-1.021224985E-1,-1.378199254E0,1.390953836E0
1.401345713E1,-1.082408787E-1,-7.963264525E-2,-2.695379305E-1,3.011779241E-1
1.402342413E1,-4.023062709E-1,-1.906506591E-1,6.074859452E-1,7.531515007E-1
1.403339013E1,-4.823602811E-1,-2.110327372E-1,1.168425130E0,1.281570732E0
1.404335613E1,-5.011402222E-1,-1.721551850E-1,1.365798479E0,1.464986149E0
1.405332313E1,-4.675919686E-1,-1.524782811E-1,1.161178676E0,1.261042344E0
1.406328912E1,-3.536257155E-1,-2.218974486E-1,6.964296967E-1,8.119753363E-1
1.407325612E1,-1.344407903E-1,-1.490067892E-1,7.218621612E-2,2.132796266E-1
1.408322212E1,8.226593882E-2,-1.245486170E-2,-7.481091428E-1,7.527217931E-1
1.409318912E1,2.707991749E-1,6.333513960E-2,-1.631285459E0,1.654821979E0
1.410315513E1,4.775153513E-1,7.850077048E-2,-2.517553198E0,2.563641431E0
1.411312113E1,6.289410605E-1,1.252065749E-1,-3.247800851E0,3.310506594E0
1.412308813E1,7.099915825E-1,7.028192416E-2,-3.856468518E0,3.921909870E0
1.413305413E1,7.670821150E-1,-1.285728170E-1,-4.370636410E0,4.439302712E0
1.414302112E1,7.780842360E-1,-2.990646154E-1,-4.572445457E0,4.647807244E0
1.415298712E1,6.089207058E-1,-4.318312016E-1,-4.538964885E0,4.599941830E0
1.416295312E1,2.422402773E-1,-4.627944012E-1,-4.526112705E0,4.556155751E0
1.417292012E1,3.476951770E-2,-4.267552337E-1,-4.376674830E0,4.397568819E0
1.418288613E1,-9.457856700E-2,-4.326318316E-1,-3.934541126E0,3.959384963E0
1.419285313E1,5.119873188E-2,-5.924067070E-1,-3.337993568E0,3.390540971E0
1.420281913E1,3.850996694E-1,-9.400511594E-1,-2.651857894E0,2.839779609E0
1.421278513E1,8.570847972E-1,-1.377726507E0,-1.837016818E0,2.450990711E0
1.422275213E1,8.968840899E-1,-1.364091531E0,-4.550882095E-1,1.694771977E0
1.423271812E1,-1.695740779E-1,-1.119401782E0,1.554226758E0,1.922871949E0
1.424268512E1,-1.974744620E0,-2.691438282E-1,4.715922096E0,5.119763269E0
1.425265112E1,-4.493993365E0,1.598126484E0,1.041775959E1,1.145773536E1
1.426261812E1,-7.856963314E0,3.324721557E0,1.787916228E1,1.981035309E1
1.427258413E1,-1.102247279E1,2.510150915E0,2.555073260E1,2.793985864E1
1.428255013E1,-1.114567012E1,1.504597053E0,3.247041648E1,3.436302841E1
1.429251713E1,-8.860484684E0,5.853682673E-1,3.679662867E1,3.785290909E1
1.430248313E1,-6.736297656E0,-8.242511465E-1,3.739855041E1,3.800932344E1
1.431245012E1,-4.760950919E0,-1.611180539E0,3.406261564E1,3.443144407E1
1.432241612E1,-2.655687528E0,-7.939536524E-1,2.774041663E1,2.787855365E1
1.433238212E1,-9.933456065E-1,4.997736548E-1,2.052085245E1,2.055095848E1
1.434234912E1,2.974861595E-1,1.551796947E0,1.418660466E1,1.427432393E1
1.435231513E1,1.511002239E0,2.733717744E0,9.865787115E0,1.034843446E1
1.436228213E1,1.078517173E0,5.012184141E0,6.425074341E0,8.219900817E0
1.437224813E1,4.588943084E-1,5.309069499E0,3.309878985E0,6.273125364E0
1.438221413E1,4.450114104E-1,4.908800690E0,7.186537939E-1,4.981046341E0
1.439218113E1,6.378484896E-1,4.217888426E0,-2.027255394E0,4.723049640E0
1.440214712E1,1.430244444E0,2.606311008E0,-5.238080208E0,6.022951145E0
1.441211412E1,1.734509280E0,7.239601421E-1,-8.310505520E0,8.520395690E0
1.442208012E1,1.584168303E0,-6.090614775E-1,-1.051316744E1,1.064928330E1
1.443204712E1,1.413379027E0,-1.963794394E0,-1.169720522E1,1.194482058E1
1.444201313E1,1.363837031E0,-3.847331659E0,-1.176409737E1,1.245214838E1
1.445197913E1,1.560228194E0,-5.549825095E0,-9.875109916E0,1.143471322E1
1.446194613E1,2.091731033E0,-6.997216791E0,-7.917667353E0,1.077152904E1
1.447191213E1,2.196692794E0,-7.838803031E0,-7.110955660E0,1.080916197E1
1.448187912E1,8.318083803E-1,-7.012440602E0,-7.890306476E0,1.058882263E1
1.449184512E1,-9.149812223E-1,-5.818154406E0,-9.839616147E0,1.146761341E1
1.450181112E1,-1.329821292E0,-5.194576339E0,-1.189936920E1,1.305170622E1
1.451177812E1,-1.484389514E0,-4.814125790E0,-1.353411972E1,1.444131628E1
1.452174412E1,-1.769091322E0,-4.507784023E0,-1.436948335E1,1.516350397E1
1.453171113E1,-2.060436589E0,-4.344554612E0,-1.483301552E1,1.559291195E1
1.454167713E1,-1.977906356E0,-4.619713764E0,-1.471346452E1,1.554798723E1
1.455164413E1,-1.609256366E0,-5.185100926E0,-1.371800412E1,1.475325777E1
1.456161013E1,-1.094930892E0,-5.545075986E0,-1.239929210E1,1.362678194E1
1.457157612E1,-8.917961352E-1,-5.672084527E0,-1.106058845E1,1.246212101E1
1.458154296E1,-8.788920611E-1,-5.788819510E0,-9.916908152E0,1.151642088E1
1.459150896E1,-6.568370301E-1,-5.842888128E0,-9.019107365E0,1.076638631E1
1.460147596E1,-4.064353919E-1,-5.827382482E0,-8.329451083E0,1.017365872E1
1.461144196E1,-2.374889030E-1,-5.654899560E0,-8.005343428E0,9.804071267E0
1.462140796E1,-2.153150918E-1,-5.443900445E0,-8.045907317E0,9.716945878E0
1.463137496E1,-6.642948613E-2,-5.213716614E0,-8.069693790E0,9.607664215E0
1.464134096E1,1.285041488E-1,-4.978395420E0,-7.696194704E0,9.166915905E0
1.465130796E1,2.385228369E-1,-4.767951790E0,-7.378474547E0,8.788182068E0
1.466127396E1,3.585660646E-1,-4.350103035E0,-7.174041855E0,8.397549796E0
1.467123996E1,5.763714855E-1,-4.061504644E0,-7.238371752E0,8.319978947E0
1.468120696E1,6.174791291E-1,-3.911884628E0,-7.763071648E0,8.714895480E0
1.469117296E1,3.749072416E-1,-3.534173208E0,-8.392033247E0,9.113569977E0
1.470113996E1,1.814832847E-1,-3.072422681E0,-8.794649713E0,9.317648893E0
1.471110596E1,2.373726895E-1,-2.973671102E0,-9.247907159E0,9.717142195E0
1.472107296E1,6.047105643E-1,-3.168582481E0,-9.671535010E0,1.019530182E1
1.473103896E1,1.016374134E0,-3.402886552E0,-9.733306165E0,1.036097979E1
1.474100496E1,1.445938224E0,-3.375680334E0,-9.656038134E0,1.033078059E1
1.475097196E1,1.972139978E0,-2.967239749E0,-9.178266821E0,9.845528409E0
1.476093796E1,2.088826429E0,-2.710454012E0,-8.414050938E0,9.083281895E0
1.477090496E1,1.500195415E0,-2.618962044E0,-7.555249910E0,8.135806639E0
1.478087096E1,7.002985069E-1,-2.332411054E0,-6.760225047E0,7.185485510E0
1.479083696E1,1.586674127E-1,-1.866081865E0,-6.121438372E0,6.401518931E0
1.480080396E1,-4.370179743E-2,-9.039649218E-1,-5.715394269E0,5.786604710E0
1.481076996E1,-2.148712881E-1,7.105425364E-1,-5.380537677E0,5.431503112E0
1.482073696E1,-2.625861758E-1,2.459694999E0,-4.822851883E0,5.420235352E0
1.483070296E1,1.886950578E-1,3.997121829E0,-3.694203022E0,5.446074247E0
1.484066996E1,8.871838515E-1,5.109488241E0,-1.577738412E0,5.420629462E0
1.485063596E1,1.904229977E0,5.859342778E0,2.240019200E0,6.555583544E0
1.486060196E1,3.484022224E0,5.727926606E0,6.700851835E0,9.478869625E0
1.487056896E1,4.631175476E0,5.027327260E0,1.108167819E1,1.302019190E1
1.488053496E1,4.469159363E0,3.817914610E0,1.574424795E1,1.680568954E1
1.489050196E1,2.953281569E0,2.141403277E0,2.044433578E1,2.076724213E1
1.490046796E1,9.378884205E-1,2.828355221E-1,2.446609281E1,2.448569640E1
1.491043396E1,-7.841796660E-1,-8.151515633E-1,2.734478233E1,2.736816637E1
1.492040096E1,-2.439866652E0,-1.602939911E0,2.910348446E1,2.924953288E1
1.493036696E1,-3.445009308E0,-1.598134962E0,2.977054652E1,3.001179042E1
1.494033396E1,-4.008958055E0,-1.030561307E0,2.849318717E1,2.879228224E1
1.495029996E1,-4.284566273E0,-5.271920530E-1,2.483483694E1,2.520723240E1
1.496026696E1,-3.921550952E0,-4.262400940E-3,1.978662694E1,2.017149438E1
1.497023296E1,-3.245054414E0,5.565349160E-1,1.442176681E1,1.479281810E1
1.498019896E1,-2.548379719E0,1.063242711E0,9.803096777E0,1.018456826E1
1.499016596E1,-2.053418761E0,1.467953576E0,6.109938653E0,6.610806808E0
1.500013196E1,-1.755043532E0,1.516692019E0,3.348785189E0,4.073683189E0
1.501009896E1,-1.751790141E0,1.429777982E0,1.561773759E0,2.748121368E0
1.502006496E1,-1.873249821E0,1.312798440E0,5.616431898E-1,2.355408182E0
1.503003096E1,-1.851680465E0,1.070318938E0,1.144884825E-3,2.138762372E0
1.503999796E1,-1.700109818E0,8.463610768E-1,-2.870240289E-1,1.920698638E0
1.504996396E1,-1.392035813E0,6.187653704E-1,-4.156808996E-1,1.579058232E0
1.505993096E1,-9.650762191E-1,4.146985674E-1,-6.257777900E-1,1.222679375E0
1.506989696E1,-5.192255871E-1,2.065634179E-1,-8.115233660E-1,9.853090020E-1
1.507986296E1,-1.477092920E-1,-4.904878378E-2,-1.025760085E0,1.037500636E0
1.508982996E1,1.857549681E-1,-3.067462488E-1,-1.292885454E0,1.341697047E0
1.509979596E1,4.676316931E-1,-6.264138208E-1,-1.639522431E0,1.816344537E0
1.510976296E1,7.009207238E-1,-8.787052426E-1,-1.991081595E0,2.286442363E0
1.511972896E1,8.753205818E-1,-1.049821377E0,-2.256380294E0,2.638098383E0
1.512969596E1,9.144805545E-1,-1.197963217E0,-2.570706142E0,2.979919567E0
1.513966196E1,8.474809648E-1,-1.337325609E0,-2.981822121E0,3.376081594E0
1.514962796E1,6.489987644E-1,-1.522908778E0,-3.370862521E0,3.755418043E0
1.515959496E1,4.242268977E-1,-1.691244708E0,-3.771205589E0,4.154788649E0
1.516956096E1,1.995979223E-1,-1.846581109E0,-4.135290073E0,4.533246641E0
1.517952796E1,1.293567459E-1,-1.883151642E0,-4.400064862E0,4.787855894E0
1.518949396E1,2.252937307E-1,-1.915928209E0,-4.660118024E0,5.043633429E0
1.519945996E1,2.321495911E-1,-1.974778681E0,-4.874344802E0,5.264302568E0
1.520942696E1,4.558445469E-2,-1.987977600E0,-5.030635614E0,5.409383289E0
1.521939296E1,-5.079410456E-2,-1.987090285E0,-5.105339642E0,5.478649532E0
1.522935996E1,8.157742918E-3,-1.891147124E0,-4.935322491E0,5.285254212E0
1.523932596E1,3.711126362E-2,-1.792596690E0,-4.848266221E0,5.169184219E0
1.524929296E1,-3.196935922E-2,-1.758312711E0,-4.893091561E0,5.199522156E0
1.525925896E1,-5.438846111E-2,-1.662599638E0,-5.031378211E0,5.299241678E0
1.526922496E1,1.063976902E-1,-1.562357311E0,-5.193269486E0,5.424235318E0
1.527919196E1,3.595338884E-1,-1.593350770E0,-5.297248183E0,5.543362662E0
1.528915796E1,4.550294450E-1,-1.612960285E0,-5.421709092E0,5.674823535E0
1.529912496E1,4.826044755E-1,-1.548611969E0,-5.493750882E0,5.728211314E0
1.530909096E1,5.215444466E-1,-1.548978882E0,-5.531011679E0,5.767446088E0
1.531905696E1,5.427512015E-1,-1.624951170E0,-5.391377245E0,5.657030473E0
1.532902396E1,5.283003927E-1,-1.734671248E0,-5.140374404E0,5.450837977E0
1.533898996E1,3.672959941E-1,-1.819560833E0,-4.910740796E0,5.249865059E0
1.534895696E1,1.859005272E-1,-1.955336981E0,-4.715183592E0,5.107921106E0
1.535892296E1,1.877271974E-1,-2.075665662E0,-4.674539012E0,5.118099688E0
1.536888996E1,3.052939466E-1,-2.136714687E0,-4.789130405E0,5.253049027E0
1.537885596E1,4.312487458E-1,-2.135365442E0,-5.047880808E0,5.497896116E0
1.538882196E1,4.451739630E-1,-2.142643910E0,-5.451279046E0,5.874142152E0
1.539878896E1,4.568075833E-1,-2.182452192E0,-5.854867319E0,6.265081170E0
1.540875496E1,4.766618771E-1,-2.092490441E0,-6.225505947E0,6.585032049E0
1.541872196E1,4.253379417E-1,-1.792708518E0,-6.396110743E0,6.656196273E0
1.542868796E1,2.226259386E-1,-1.462349312E0,-6.328360224E0,6.498936140E0
1.543865396E1,9.275613606E-2,-9.630608301E-1,-5.793679715E0,5.873909644E0
1.544862096E1,2.016089259E-1,-3.988724935E-1,-4.372589380E0,4.395370668E0
1.545858696E1,4.159427087E-1,-4.970601082E-2,-1.947375412E0,1.991921188E0
1.546855396E1,7.518509953E-1,4.295699371E-1,1.329108371E0,1.586297359E0
1.547851996E1,1.381903465E0,1.683014606E0,4.606968588E0,5.095719274E0
1.548848696E1,1.719522282E0,3.407765176E0,7.327806085E0,8.262346058E0
1.549845296E1,1.364754313E0,4.937125188E0,1.066682642E1,1.183296013E1
1.550841896E1,4.532499180E-1,5.376477370E0,1.670966535E1,1.755918166E1
1.551838596E1,-2.124723400E-1,4.416022206E0,2.504550744E1,2.543273166E1
1.552835196E1,1.973604121E-1,2.470113568E0,3.224295979E1,3.233804058E1
1.553831896E1,1.371467647E0,-1.094018982E-1,3.622704672E1,3.625316271E1
1.554828496E1,2.507407109E0,-2.207003774E0,3.728936652E1,3.743868069E1
1.555825096E1,2.272525041E0,-3.464121225E0,3.609377698E1,3.633077542E1
1.556821796E1,6.818270796E-1,-3.600518640E0,3.271237895E1,3.291699195E1
1.557818396E1,-1.011046517E0,-2.946986749E0,2.746963441E1,2.764575484E1
1.558815046E1,-2.669522625E0,-1.947361232E0,2.176810331E1,2.201746780E1
1.559811646E1,-4.398142297E0,-9.157768091E-1,1.664816902E1,1.724366070E1
1.560808246E1,-5.928468561E0,6.351410095E-2,1.254122040E1,1.387202158E1
1.561804946E1,-6.948502468E0,7.198217753E-1,9.722292350E0,1.197175002E1
1.562801546E1,-7.227284262E0,5.106037945E-1,7.709788896E0,1.057994323E1
1.563798246E1,-7.042014064E0,-1.397729759E-1,5.869200014E0,9.168260869E0
1.564794846E1,-5.831729302E0,-1.144738498E0,4.036466866E0,7.184188029E0
1.565791546E1,-3.650809080E0,-2.217812937E0,2.123953723E0,4.770563969E0
1.566788146E1,-1.001810547E0,-3.336555153E0,-2.471009946E-1,3.492460960E0
1.567784746E1,1.031748072E0,-4.536057649E0,-3.393491830E0,5.758134236E0
1.568781446E1,2.096755546E0,-4.932178443E0,-6.706786759E0,8.585089204E0
1.569778046E1,2.623842714E0,-5.325873227E0,-9.011092002E0,1.079116561E1
1.570774746E1,2.552047677E0,-5.471502811E0,-1.071382283E1,1.229781648E1
1.571771346E1,1.762833193E0,-5.239537334E0,-1.232039679E1,1.350379611E1
1.572768046E1,1.168195188E0,-4.898277164E0,-1.350307802E1,1.441148553E1
1.573764646E1,8.785498528E-1,-4.515709046E0,-1.446683247E1,1.518066928E1
1.574761246E1,8.863649489E-1,-4.074035519E0,-1.559388680E1,1.614164532E1
1.575757946E1,1.207362763E0,-3.954822779E0,-1.615582995E1,1.667660605E1
1.576754546E1,1.566605606E0,-3.982699964E0,-1.590786708E1,1.647350561E1
1.577751246E1,1.837618789E0,-4.183325534E0,-1.534273836E1,1.600864378E1
1.578747846E1,1.720215177E0,-4.677790356E0,-1.479494196E1,1.561189196E1
1.579744446E1,1.924753704E0,-4.845470959E0,-1.457554157E1,1.547997667E1
1.580741146E1,2.363750668E0,-4.920522019E0,-1.461640893E1,1.560250826E1
1.581737746E1,2.570509091E0,-5.267739040E0,-1.455337828E1,1.568940442E1
1.582734446E1,2.477560582E0,-5.356489248E0,-1.424781215E1,1.542175199E1
1.583731046E1,2.282498198E0,-5.391811109E0,-1.398169133E1,1.515813701E1
1.584727646E1,2.045707453E0,-5.587094078E0,-1.390566115E1,1.512507690E1
1.585724346E1,2.013291951E0,-5.582462499E0,-1.346324678E1,1.471313175E1
1.586720946E1,1.876870855E0,-5.490078830E0,-1.245920267E1,1.374392015E1
1.587717646E1,1.633693342E0,-5.186507181E0,-1.140673075E1,1.263654688E1
1.588714246E1,1.485087964E0,-4.631050930E0,-1.061039728E1,1.167187429E1
1.589710946E1,1.359598530E0,-4.388809264E0,-1.020964783E1,1.119585029E1
1.590707546E1,1.314791317E0,-4.034476766E0,-9.976161497E0,1.084110129E1
1.591704146E1,1.408984552E0,-3.548115016E0,-9.830890932E0,1.054612603E1
1.592700846E1,1.721432713E0,-3.310302908E0,-9.735135174E0,1.042565551E1
1.593697446E1,2.270158088E0,-3.384247675E0,-9.469952835E0,1.030954687E1
1.594694146E1,2.587074545E0,-3.382968304E0,-8.922623044E0,9.886891890E0
1.595690746E1,2.393901690E0,-3.356949948E0,-8.382035093E0,9.341219972E0
1.596687346E1,1.905895264E0,-3.317045333E0,-7.942675894E0,8.815969989E0
1.597684046E1,1.162784175E0,-3.328914888E0,-7.594415730E0,8.373105257E0
1.598680646E1,3.429675570E-1,-3.367212397E0,-7.279765361E0,8.028121186E0
1.599677346E1,-1.114069998E-2,-3.249556477E0,-6.858876931E0,7.589725566E0
1.600673946E1,2.919763282E-2,-3.055432134E0,-6.133693551E0,6.852642892E0
1.601670646E1,3.075144267E-1,-2.749012890E0,-5.249350716E0,5.933575645E0
1.602667246E1,8.402444507E-1,-2.248934450E0,-4.732590753E0,5.306706336E0
1.603663846E1,8.836547644E-1,-1.508440428E0,-2.990532133E0,3.464032434E0
1.604660546E1,6.693322375E-1,-7.615156388E-1,-5.013800311E-1,1.131058640E0
1.605657146E1,5.986243437E-1,2.462584108E-2,2.103776736E0,2.187426363E0
1.606653846E1,3.604420706E-1,1.002840754E0,4.694594961E0,4.814024295E0
1.607650446E1,3.392357178E-1,2.728682999E0,6.538575813E0,7.093219681E0
1.608647046E1,7.983590908E-1,4.769278816E0,6.502172803E0,8.103187571E0
1.609643746E1,1.663293556E0,6.479940519E0,4.904630456E0,8.295274227E0
1.610640346E1,1.815695385E0,7.464944927E0,2.991020375E0,8.244292291E0
1.611637046E1,8.253203098E-1,7.733789377E0,2.238208317E0,8.093344687E0
1.612633646E1,-2.769089305E-1,7.484051873E0,3.724001017E0,8.363964046E0
1.613630346E1,-1.376566858E0,6.649444284E0,6.954604037E0,9.719905500E0
1.614626946E1,-2.361869034E0,5.103863804E0,1.108063855E1,1.242611773E1
1.615623546E1,-2.856728835E0,2.963262473E0,1.545985341E1,1.599840279E1
1.616620246E1,-2.409531736E0,1.123685598E0,1.953572759E1,1.971581003E1
1.617616846E1,-1.430012017E0,-9.103383869E-3,2.243699671E1,2.248252296E1
1.618613546E1,-8.787186912E-1,-2.346668905E-1,2.364617986E1,2.366366491E1
1.619610146E1,-1.189275424E0,-3.830198148E-1,2.287895266E1,2.291304334E1
1.620606746E1,-1.859955006E0,-1.075921302E-1,2.135435433E1,2.143547195E1
1.621603446E1,-2.324905422E0,1.410348415E-3,1.927726312E1,1.941695291E1
1.622600046E1,-2.216767162E0,1.599776275E-1,1.673306825E1,1.688002436E1
1.623596746E1,-1.589179367E0,3.720478070E-1,1.391662351E1,1.401200630E1
1.624593346E1,-7.486286679E-1,4.619218504E-1,1.108723655E1,1.112207854E1
1.625590046E1,-2.208412953E-2,4.880059871E-1,8.433185951E0,8.447322821E0
1.626586646E1,4.284990196E-1,3.971206677E-1,6.161328077E0,6.188964365E0
1.627583246E1,7.545304088E-1,1.602408984E-1,4.389073851E0,4.456339591E0
1.628579946E1,9.098629352E-1,-1.231452852E-2,2.932841164E0,3.070758783E0
1.629576546E1,8.180775100E-1,-8.657855272E-2,1.478814633E0,1.692229115E0
1.630573246E1,6.529180069E-1,-2.053170839E-1,8.623766005E-2,6.898506814E-1
1.631569846E1,4.740818663E-1,-3.633272696E-1,-1.134485552E0,1.282114577E0
1.632566446E1,3.492252472E-1,-6.170505282E-1,-1.951501792E0,2.076311362E0
1.633563146E1,3.619778784E-1,-6.911414748E-1,-2.388494623E0,2.512690010E0
1.634559746E1,3.543681657E-1,-7.223635599E-1,-2.660654445E0,2.779652494E0
1.635556446E1,3.399639885E-1,-9.526096630E-1,-2.834634839E0,3.009683597E0
1.636553046E1,5.450246720E-1,-1.186688908E0,-3.077325279E0,3.342934838E0
