"Time (s)","Linear Acceleration x (m/s^2)","Linear Acceleration y (m/s^2)","Linear Acceleration z (m/s^2)","Absolute acceleration (m/s^2)"
5.452041631E-3,6.757457560E-1,1.449579724E0,-8.781465411E-1,1.824569826E0
1.541904174E-2,6.622166146E-1,1.614343736E0,-7.407487408E-1,1.895612102E0
2.538504172E-2,5.194727781E-1,1.771056132E0,-4.125678420E-1,1.891217601E0
3.535104170E-2,1.685050607E-1,1.980924397E0,6.394398093E-2,1.989106396E0
4.531804170E-2,-2.123870985E-1,2.048660882E0,6.671298107E-1,2.164990040E0
5.528404168E-2,-4.560532925E-1,2.036717359E0,1.215512173E0,2.415299577E0
6.525104167E-2,-4.810647574E-1,2.053612304E0,9.402170742E-1,2.309275848E0
7.521704165E-2,-6.173896667E-1,2.215457970E0,3.390893912E-1,2.324737756E0
8.518304164E-2,-1.020384593E0,2.694305756E0,-1.684758977E-1,2.885975113E0
9.515004163E-2,-1.395951693E0,3.071557585E0,6.571568727E-2,3.374531920E0
1.051160417E-1,-1.664119914E0,3.400116141E0,2.912743700E-1,3.796699306E0
1.150820417E-1,-1.925428473E0,3.967225893E0,-1.779459751E-1,4.413368425E0
1.250490417E-1,-2.185497276E0,4.777424864E0,-4.788706628E-1,5.275367645E0
1.350149167E-1,-2.228105790E0,5.596489969E0,2.460649776E-1,6.028739782E0
1.449819166E-1,-1.964198875E0,5.743054522E0,1.144564324E0,6.176631765E0
1.549479166E-1,-1.693091113E0,5.406724432E0,1.461585373E0,5.851107451E0
1.649139167E-1,-1.500595365E0,4.859178295E0,1.937783639E0,5.442279447E0
1.748809167E-1,-1.171824117E0,3.930146359E0,2.488825243E0,4.797236001E0
1.848469167E-1,-7.532688721E-1,3.017961422E0,2.432237059E0,3.948579776E0
1.948129167E-1,-1.382480586E-1,2.222671680E0,2.065725396E0,3.037532442E0
2.047799167E-1,7.913492294E-1,1.934995102E0,1.965042189E0,2.869116668E0
2.147459167E-1,1.237103163E0,1.199696624E0,1.561405385E0,2.325442539E0
2.247129166E-1,1.374345939E0,4.476505512E-1,1.178274765E0,1.864818811E0
2.346789166E-1,8.486193446E-1,-9.218182254E-1,1.066943779E0,1.645683038E0
2.446449167E-1,2.908553439E-1,-2.629030364E0,5.918972683E-1,2.710487016E0
2.546119167E-1,2.384129092E-1,-3.349659348E0,-6.488830626E-1,3.420249653E0
2.645779167E-1,-5.335274380E-1,-3.338735579E0,-1.988811121E0,3.922649165E0
2.745439167E-1,-1.547167999E0,-3.474747663E0,-2.067771921E0,4.329351089E0
2.845109167E-1,-1.960472883E0,-3.229001468E0,-1.113617424E0,3.938279849E0
2.944769167E-1,-2.230393952E0,-3.611270208E0,-3.915787498E-1,4.262541919E0
3.044439167E-1,-1.302964885E0,-3.722699427E0,-6.852940399E-2,3.944731270E0
3.144099166E-1,-1.641567788E-1,-3.487884017E0,-6.081338167E-2,3.492274421E0
3.243759167E-1,6.722613271E-1,-3.394003462E0,2.684672322E-1,3.470341402E0
3.343429167E-1,7.771820837E-1,-4.280714419E0,1.052209892E0,4.476122607E0
3.443089167E-1,1.177791420E0,-4.975364808E0,1.050166802E0,5.219607065E0
3.542749167E-1,8.800860626E-1,-5.238802924E0,1.497851267E-1,5.314324335E0
3.642419167E-1,-1.409880638E-2,-5.285383013E0,-4.077263474E-1,5.301104898E0
3.742079167E-1,-1.259968554E0,-5.465505906E0,-1.214794135E-1,5.610172263E0
3.841749167E-1,-1.626759714E0,-5.840082049E0,-1.034938167E-1,6.063300791E0
3.941409166E-1,-1.222965327E0,-6.773318717E0,-2.339940222E-1,6.886816670E0
4.041069166E-1,-5.412495634E-1,-8.219112954E0,5.601632595E-3,8.236916912E0
4.140739167E-1,1.054700111E-1,-9.371258851E0,2.002131955E-1,9.373990703E0
4.240399167E-1,2.353562955E-1,-1.025999119E1,3.039670672E-1,1.026719084E1
4.340059167E-1,1.665489843E-2,-1.083645766E1,4.309110691E-1,1.084503464E1
4.439729167E-1,-5.489763665E-1,-1.135782815E1,1.186521678E0,1.143282419E1
4.539389167E-1,-1.073580953E0,-1.175055990E1,1.797248150E0,1.193559110E1
4.639059167E-1,-1.569784152E0,-1.251483074E1,2.106598603E0,1.278760996E1
4.738719166E-1,-1.593689616E0,-1.339943495E1,1.754996024E0,1.360752419E1
4.838379166E-1,-1.363674771E0,-1.351993086E1,2.241684487E0,1.377219259E1
4.938049167E-1,-5.730622538E-1,-1.294334745E1,3.565423944E0,1.343766689E1
5.037709167E-1,5.146192237E-1,-1.198394332E1,3.564088440E0,1.251329121E1
5.137369167E-1,1.203363413E0,-1.075440602E1,2.832100071E0,1.118597886E1
5.237039167E-1,7.294530165E-1,-9.222779920E0,2.076667290E0,9.481788765E0
5.336699167E-1,4.323714843E-1,-6.865964926E0,6.122093260E-1,6.906751749E0
5.436369167E-1,1.001624752E-1,-3.733208043E0,-2.001228268E0,4.236955203E0
5.536029167E-1,8.227847379E-2,-7.439371544E-1,-2.816606703E0,2.914358516E0
5.635689166E-1,9.439653587E-2,1.363800486E0,-1.542393748E0,2.061029098E0
5.735359166E-1,9.559881842E-1,4.940129487E0,5.293479762E-3,5.031781074E0
5.835019167E-1,-2.025239275E0,8.058639629E0,3.656836975E-1,8.317270667E0
5.934679167E-1,-1.754447701E0,1.238706674E1,-3.811232704E0,1.307834102E1
6.034349167E-1,1.052090974E0,1.626669667E1,-8.409894737E0,1.834226391E1
6.134009167E-1,4.851626323E0,1.861325915E1,-1.058060689E1,2.195315322E1
6.233679167E-1,5.929311730E0,1.735977048E1,-8.397515012E0,2.017514875E1
6.333339167E-1,4.204039588E0,1.157780274E1,-2.882061020E0,1.265012810E1
6.432999166E-1,2.850042544E0,6.748111371E0,2.914819461E0,7.883902718E0
6.532669166E-1,1.039634943E0,4.560194371E0,4.310908856E0,6.360829245E0
6.632329167E-1,5.803123992E-2,5.011893534E0,2.762638657E0,5.723164926E0
6.731999167E-1,-9.752898431E-1,6.578240401E0,1.843991961E0,6.901068280E0
6.831659167E-1,-2.338881291E0,8.466665354E0,1.993059708E0,9.007056950E0
6.931319167E-1,-2.847444334E0,1.082795815E1,1.977444134E0,1.136938442E1
7.030989167E-1,-2.754144115E0,1.244541845E1,1.326887598E0,1.281539624E1
7.130649167E-1,-2.569995705E0,1.289046406E1,9.261135900E-1,1.317674573E1
7.230309166E-1,-1.275920635E0,1.261901409E1,-1.017789654E-1,1.268376321E1
7.329979166E-1,-1.654551530E-1,1.181529091E1,-7.350371075E-1,1.183928859E1
7.429639167E-1,-5.849090416E-2,1.051169161E1,-5.339338195E-1,1.052540578E1
7.529309167E-1,-4.075825425E-1,9.293873291E0,-5.551697373E-1,9.319357151E0
7.628969167E-1,-4.898800563E-1,8.864162582E0,-9.373273802E-1,8.927034411E0
7.728629167E-1,-6.070263906E-1,9.007991808E0,-8.308028054E-1,9.066566646E0
7.828299167E-1,-6.371596876E-1,9.299545090E0,-7.258850455E-1,9.349567929E0
7.927959167E-1,-3.198505534E-1,9.621913784E0,-1.646227434E0,9.766964421E0
8.027629167E-1,4.411893414E-1,1.012419896E1,-2.357942337E0,1.040451559E1
8.127289166E-1,1.139466502E0,1.072805496E1,-2.647987622E0,1.110861762E1
8.226949166E-1,1.660875586E0,1.127068359E1,-3.151387281E0,1.182023934E1
8.326619167E-1,1.801602572E0,1.144786007E1,-3.379176092E0,1.207137536E1
8.426279167E-1,1.430152058E0,1.124071895E1,-2.971645042E0,1.171451115E1
8.525949167E-1,6.438155732E-1,1.055221515E1,-1.872490121E0,1.073638497E1
8.625609167E-1,5.851279467E-2,9.408534851E0,-1.688830247E0,9.559084653E0
8.725269167E-1,-1.246671108E0,8.419295890E0,5.581202058E-1,8.529374555E0
8.824939167E-1,-2.882046694E0,7.542973096E0,2.029687836E0,8.325999579E0
8.924599166E-1,-4.033155296E0,6.120368916E0,1.548813990E0,7.491600769E0
9.024269166E-1,-3.151564452E0,3.451672795E0,-8.774682641E-1,4.755665478E0
9.123929167E-1,-6.361329165E-1,-1.012562919E0,-8.377843809E-1,1.460079252E0
9.223589167E-1,2.171350376E0,-6.965617268E0,-1.239133755E0,7.400678269E0
9.323259167E-1,3.246115391E0,-1.454054598E1,-1.303315133E0,1.495537940E1
9.422919167E-1,1.323052702E0,-1.877353601E1,1.565137078E0,1.888506756E1
9.522589167E-1,-1.425035744E0,-1.529042449E1,5.218321881E0,1.621908417E1
9.622249167E-1,1.356438841E0,-1.138673094E1,3.419980302E0,1.196636256E1
9.721909167E-1,1.998410495E0,-1.071754400E1,3.760613723E-1,1.090874952E1
9.821579166E-1,2.612290955E0,-1.114844287E1,-3.790305519E-1,1.145667956E1
9.921239166E-1,2.133318624E0,-1.095114962E1,3.245904526E-2,1.115705069E1
1.002090917E0,-1.121603843E0,-1.179358371E1,-5.046474552E-1,1.185754110E1
1.012056917E0,-2.264787421E0,-1.218349593E1,-6.901293218E-1,1.241141062E1
1.022022917E0,-1.312987889E0,-9.166575898E0,2.670160264E0,9.637417015E0
1.031989917E0,-9.275812411E-1,-3.205097466E0,6.319842585E0,7.146570298E0
1.041955917E0,-1.451610170E0,-1.881854437E0,8.077832530E0,8.420209414E0
1.051922917E0,-2.157423186E0,-3.267112450E0,7.520059612E0,8.478195275E0
1.061888917E0,-2.806826358E0,-2.368854995E0,5.822519352E0,6.884146992E0
1.071854917E0,-2.398182583E0,-2.253008205E0,3.531208962E0,4.826671980E0
1.081821917E0,-2.340301287E0,-3.223189920E0,2.453416843E0,4.678163912E0
1.091787917E0,-1.550186917E0,-4.861460463E0,1.873479470E0,5.435697070E0
1.101754917E0,-2.387020540E-1,-7.141687456E0,1.406439552E0,7.282770806E0
1.111720917E0,5.137863609E-1,-9.755480561E0,9.611173618E-1,9.816166461E0
1.121686917E0,1.018878862E0,-1.199723872E1,1.001596466E0,1.208201335E1
1.131653833E0,1.277775372E0,-1.279956442E1,1.148781994E0,1.291438188E1
1.141619833E0,9.269035488E-1,-1.308575756E1,1.612380241E0,1.321726035E1
1.151586833E0,1.312563235E-1,-1.337896619E1,2.188161414E0,1.355736017E1
1.161552833E0,-1.049670008E0,-1.345690840E1,3.374390731E0,1.391318453E1
1.171518833E0,-2.135891691E0,-1.361842955E1,4.645308781E0,1.454656490E1
1.181485833E0,-3.117387769E0,-1.399506040E1,4.975767097E0,1.517689298E1
1.191451833E0,-3.557814962E0,-1.464766346E1,4.124201413E0,1.562757593E1
1.201418833E0,-3.458360256E0,-1.492316088E1,3.080659361E0,1.562534634E1
1.211384833E0,-3.037676771E0,-1.412151931E1,2.869722226E0,1.472684940E1
1.221350833E0,-2.319585772E0,-1.225350932E1,2.238273806E0,1.267039220E1
1.231317833E0,-1.127110239E0,-1.003132881E1,1.083449299E0,1.015242816E1
1.241283833E0,8.080603525E-2,-7.949866800E0,3.844546119E-2,7.950370419E0
1.251250833E0,8.319252516E-1,-5.592820256E0,-2.008507065E-1,5.657921796E0
1.261216833E0,4.919934958E-1,-3.211060456E0,-3.328059733E-1,3.265536199E0
1.271182833E0,5.958260856E-1,-9.359322345E-1,-3.422200270E-1,1.161073821E0
1.281149833E0,3.848355214E-1,1.806400212E0,-1.385187846E0,2.308663136E0
1.291115833E0,-1.106431269E0,4.035944125E0,-1.655374818E0,4.500366754E0
1.301082833E0,1.084177205E0,8.500289183E0,-1.618909242E0,8.720735263E0
1.311048833E0,1.716840164E0,1.238710884E1,-3.358338954E0,1.294860789E1
1.321014833E0,1.073742264E0,1.377900228E1,-4.175645217E0,1.443779205E1
1.330981833E0,1.074094924E0,1.440801650E1,-4.761805197E0,1.521247541E1
1.340947833E0,2.291431721E0,1.587049635E1,-6.359352221E0,1.725006303E1
1.350914833E0,1.260346576E0,1.457989657E1,-5.114347862E0,1.550220667E1
1.360880833E0,7.877474908E-1,1.201625270E1,-3.970683936E0,1.267979519E1
1.370846833E0,1.397042491E0,1.004662278E1,-3.128079110E0,1.061467079E1
1.380813833E0,2.007673069E0,8.374721396E0,-1.860667051E0,8.810720259E0
1.390779833E0,2.228972348E0,7.191438491E0,-1.531770965E-1,7.530509180E0
1.400746833E0,2.295332398E0,6.357588701E0,1.073157030E0,6.843913422E0
1.410712833E0,2.195652866E0,5.907232643E0,1.520514636E0,6.482920158E0
1.420678833E0,1.721628449E0,6.057702552E0,1.739922048E0,6.533536061E0
1.430645833E0,7.186911430E-1,6.542967657E0,2.163890791E0,6.928879135E0
1.440611833E0,1.335608574E-1,7.430805958E0,2.003211644E0,7.697244479E0
1.450578833E0,-5.216844875E-1,8.315749303E0,2.079288597E0,8.587623783E0
1.460544833E0,-8.539604837E-1,8.975814580E0,2.065713701E0,9.249955080E0
1.470510833E0,-6.808959836E-1,9.257804741E0,1.953110361E0,9.486053344E0
1.480477833E0,-4.569876775E-1,9.185057777E0,2.149206094E0,9.444215740E0
1.490443833E0,-3.030747820E-1,8.864184802E0,2.421341357E0,9.193939335E0
1.500409833E0,-5.577699210E-1,8.710485476E0,2.268970080E0,9.018419470E0
1.510376833E0,-9.982487892E-1,8.714980815E0,1.801795091E0,8.955102278E0
1.520342833E0,-1.851505341E0,8.560146545E0,1.819335569E0,8.945063600E0
1.530309833E0,-2.534101695E0,8.441782528E0,2.029133520E0,9.044487077E0
1.540275833E0,-2.645506064E0,8.497823997E0,1.951682471E0,9.111573930E0
1.550241833E0,-2.480128094E0,8.508695140E0,1.445280997E0,8.979853312E0
1.560208833E0,-1.938861281E0,8.510441118E0,9.781725204E-1,8.783143662E0
1.570174833E0,-9.013238807E-1,8.614926184E0,4.986411222E-1,8.676288427E0
1.580141833E0,-5.045650095E-2,8.849295452E0,-7.477512932E-1,8.880974487E0
1.590107833E0,5.080378901E-1,9.465670919E0,-1.452170041E0,9.589881452E0
1.600073833E0,5.957218590E-1,1.006116949E1,-1.055191972E0,1.013387616E1
1.610040833E0,5.026862991E-1,1.048300517E1,-1.003262923E0,1.054289464E1
1.620006833E0,1.918420292E-2,1.085796606E1,-1.206055910E0,1.092475930E1
1.629973833E0,-5.392821215E-1,1.082069707E1,-1.520556736E0,1.094031092E1
1.639939833E0,-1.179069475E0,9.863392096E0,1.596594659E-1,9.934898067E0
1.649905833E0,-2.557679423E0,7.750089076E0,6.840388620E-1,8.189842115E0
1.659872833E0,-3.355565035E0,5.605094147E0,1.178142545E0,6.638141077E0
1.669838833E0,-3.122733001E0,2.566679749E0,1.812329289E0,4.429880787E0
1.679805833E0,-5.721216926E-1,-1.731064686E0,1.728282580E0,2.512144274E0
1.689771833E0,2.248355868E0,-6.496698639E0,2.197149754E-1,6.878260826E0
1.699737833E0,4.163740578E0,-1.298816051E1,-1.250044659E0,1.369641051E1
1.709704833E0,4.833474519E0,-1.951188030E1,-2.402872342E0,2.024474609E1
1.719670833E0,2.159923455E-1,-1.729241875E1,-1.583327765E0,1.736609702E1
1.729637833E0,-5.851501662E-1,-9.633307668E0,-9.696671605E-1,9.699653177E0
1.739603833E0,1.910019890E0,-5.373525696E0,2.012108036E-1,5.706438484E0
1.749569833E0,1.719380487E0,-5.517125126E0,1.769906570E0,6.043799151E0
1.759536833E0,-9.866416276E-2,-8.902340807E0,1.480654167E0,9.025172753E0
1.769502833E0,1.028250414E-1,-1.173244522E1,-3.137335253E-1,1.173708962E1
1.779469833E0,8.629568636E-1,-1.429068510E1,-1.322816767E0,1.437769868E1
1.789435833E0,3.491891406E-2,-1.463073694E1,-4.073415641E-1,1.463644800E1
1.799401833E0,3.979734110E-1,-1.418388337E1,-1.110900442E-1,1.418990033E1
1.809368833E0,6.369592012E-1,-9.793793857E0,2.763171192E-1,9.818373913E0
1.819334833E0,6.131302625E-1,-6.912729203E0,7.669816160E-1,6.982121063E0
1.829301833E0,-4.062445168E-1,-6.360830982E0,1.953145591E0,6.666332057E0
1.839267833E0,-1.662141216E0,-6.919600850E0,2.949695764E0,7.703524807E0
1.849233833E0,-1.876907108E0,-7.265017514E0,3.350600749E0,8.217650829E0
1.859200833E0,-1.295080207E0,-7.450607554E0,2.994536891E0,8.133636140E0
1.869166833E0,-1.589451554E-1,-6.988127879E0,1.712843592E0,7.196737315E0
1.879133833E0,7.188990115E-1,-6.758646884E0,9.080410890E-1,6.857161374E0
1.889099833E0,1.336026796E0,-6.889927985E0,6.893726921E-1,7.052042963E0
1.899065833E0,1.422900633E0,-7.195877697E0,6.925114775E-1,7.367826965E0
1.909032833E0,9.029354464E-1,-7.402325340E0,4.743238314E-1,7.472261770E0
1.918998833E0,9.264796257E-2,-7.892686293E0,5.776265538E-1,7.914337180E0
1.928965833E0,-7.710254042E-1,-8.436693111E0,7.567351015E-1,8.505581628E0
1.938931833E0,-1.299651560E0,-8.788786125E0,9.369543278E-1,8.933629674E0
1.948897833E0,-1.422070329E0,-8.992001427E0,1.213191998E0,9.184236959E0
1.958864833E0,-1.687034567E0,-9.272035110E0,1.477385573E0,9.539359981E0
1.968830833E0,-2.057948891E0,-9.730350398E0,1.915699875E0,1.012841441E1
1.978797833E0,-2.241571051E0,-9.972009974E0,2.274794930E0,1.047092716E1
1.988763833E0,-2.032283123E0,-1.057767627E1,2.499574764E0,1.105736333E1
1.998729833E0,-1.063377489E0,-1.088302839E1,1.109926588E0,1.099104252E1
2.008696833E0,1.761068065E-1,-1.062098542E1,-1.147926108E-1,1.062306558E1
2.018662833E0,7.488778324E-1,-9.613097937E0,-4.827017585E-1,9.654298055E0
2.028629833E0,5.067857454E-1,-7.916738815E0,-6.361442455E-1,7.958408431E0
2.038595833E0,2.376263856E-1,-6.046141437E0,-9.083847591E-1,6.118615485E0
2.048561833E0,6.438971418E-1,-4.018140523E0,-1.359053131E0,4.290347562E0
2.058528833E0,1.180876484E0,-1.575728724E0,-1.817200019E0,2.679478716E0
2.068494833E0,1.069607770E0,1.206244336E0,-1.773935301E0,2.397067507E0
2.078461833E0,-3.497293137E-1,3.353609726E0,-7.062851056E-1,3.444974229E0
2.088427833E0,-9.832476112E-1,5.888941383E0,-4.808329884E-1,5.989791887E0
2.098393833E0,1.471581773E0,1.120952288E1,-3.957417773E0,1.197831839E1
2.108360833E0,2.153948770E0,1.349331200E1,-7.293284708E0,1.548873674E1
2.118326833E0,3.658548162E0,1.395456727E1,-8.098374968E0,1.654383871E1
2.128293833E0,5.149760939E0,1.443376296E1,-7.659130958E0,1.713230393E1
2.138259667E0,6.666279003E0,1.557388113E1,-6.160273240E0,1.802592621E1
2.148225667E0,4.521694256E0,1.295256500E1,-3.345836438E0,1.412123509E1
2.158192667E0,2.903519132E0,9.841394870E0,-1.125476747E0,1.032231438E1
2.168158667E0,1.172404160E0,8.508705080E0,3.233779228E-1,8.595182775E0
2.178124667E0,-4.184629317E-1,7.961671743E0,9.756381910E-1,8.032135336E0
2.188091667E0,-1.618361943E0,7.624146482E0,1.564296248E0,7.949448265E0
2.198057667E0,-2.058487127E0,7.614389818E0,2.254990265E0,8.203735896E0
2.208024667E0,-1.970010568E0,8.032805461E0,2.795200632E0,8.730409600E0
2.217990667E0,-1.458932638E0,8.734214646E0,2.881781523E0,9.312338840E0
2.227956667E0,-8.708083586E-1,9.229036440E0,2.420056139E0,9.580714615E0
2.237923667E0,-5.904460625E-1,9.528985739E0,1.986976265E0,9.751834210E0
2.247889667E0,-3.168747226E-1,9.609702458E0,1.940192838E0,9.808727704E0
2.257856667E0,-6.790576190E-2,9.133247938E0,1.965884188E0,9.342672516E0
2.267822667E0,-2.994311627E-1,8.500622474E0,1.818693252E0,8.698154207E0
2.277788667E0,-4.690238786E-1,8.353181423E0,1.874146053E0,8.573683381E0
2.287755667E0,-8.067821512E-1,8.414497665E0,1.784957303E0,8.639487309E0
2.297721667E0,-1.246199823E0,8.493540326E0,1.417877144E0,8.700782544E0
2.307688667E0,-1.583924766E0,8.549021632E0,5.926572601E-1,8.714690537E0
2.317654667E0,-1.977818648E0,8.501995985E0,3.483676068E-1,8.735963732E0
2.327620667E0,-2.195239176E0,8.316963184E0,1.600651896E-1,8.603288471E0
2.337587667E0,-1.843059915E0,8.441043440E0,-1.191662550E-2,8.639920498E0
2.347553667E0,-1.038976839E0,8.959267545E0,-5.881831169E-2,9.019501505E0
2.357520667E0,1.126765765E-2,9.674621755E0,-7.078429500E-1,9.700488374E0
2.367486667E0,9.075880759E-1,1.064834688E1,-1.370002627E0,1.077441018E1
2.377452667E0,1.680761089E0,1.169169715E1,-1.360712571E0,1.189000752E1
2.387419667E0,1.977701119E0,1.225617565E1,-1.415737209E0,1.249517728E1
2.397385667E0,2.085557982E0,1.262710664E1,-2.719196184E0,1.308386037E1
2.407352667E0,1.317437328E0,1.272884351E1,-2.348529489E0,1.301056068E1
2.417318667E0,-1.175892902E0,1.048294669E1,2.135124829E0,1.076260440E1
2.427284667E0,-3.109866495E0,6.926901099E0,2.524533019E0,8.001655792E0
2.437251667E0,-3.598792250E0,2.878566139E0,2.360896350E0,5.177961013E0
2.447217667E0,-3.875269948E0,-3.037696359E0,4.693287524E0,6.802371948E0
2.457184667E0,-2.315718131E0,-9.973844830E0,3.095793124E0,1.069691854E1
2.467150667E0,1.267695649E0,-1.501610120E1,-5.022783973E0,1.588454300E1
2.477116667E0,6.550542140E-1,-1.979167659E1,-4.219979975E0,2.024716744E1
2.487083667E0,-4.033222977E-1,-1.564278823E1,7.238392510E-2,1.564815427E1
2.497049667E0,4.061696140E0,-7.637750030E0,-7.088813424E-1,8.679580278E0
2.507016667E0,6.450989785E0,-4.378212647E0,-7.235368037E-1,7.829911922E0
2.516982667E0,4.937584194E0,-5.290618025E0,2.861230461E-1,7.242392088E0
2.526948667E0,2.278213212E0,-7.971993248E0,1.239054233E0,8.383208645E0
2.536915667E0,6.294652634E-1,-1.185840360E1,3.518597833E-1,1.188031009E1
2.546881667E0,-1.819899825E-1,-1.424251223E1,-1.548723943E0,1.432762440E1
2.556848667E0,2.758804053E-2,-1.456617082E1,-1.319489701E0,1.462583832E1
2.566814667E0,1.659643285E0,-1.444136434E1,-7.106588229E-1,1.455377806E1
2.576780667E0,6.892034152E-1,-9.701538827E0,9.409561622E-1,9.771399872E0
2.586747667E0,-1.353411299E0,-6.367861674E0,2.404326106E0,6.939896863E0
2.596713667E0,-3.356009131E0,-5.426368153E0,3.342616961E0,7.202871425E0
2.606680667E0,-3.933468162E0,-5.982639506E0,2.855728669E0,7.708393703E0
2.616646667E0,-3.129504077E0,-6.201162819E0,1.935586110E0,7.210735722E0
2.626612667E0,-1.927385828E0,-5.894279891E0,1.733883044E0,6.439231474E0
2.636579667E0,-7.399411672E-1,-5.869850224E0,2.063041524E0,6.265683914E0
2.646545667E0,1.438479004E-1,-5.618365572E0,1.903578597E0,5.933829741E0
2.656512667E0,6.818508339E-1,-5.717422668E0,1.480910275E0,5.945329071E0
2.666478667E0,7.679341274E-1,-6.117022555E0,9.256469822E-1,6.234140686E0
2.676444667E0,4.680599285E-1,-6.410155755E0,2.249693564E-1,6.431157602E0
2.686411667E0,3.113750143E-1,-6.489628771E0,-6.122057446E-1,6.525874030E0
2.696377667E0,1.021590801E-1,-6.932255394E0,-1.074082133E0,7.015714772E0
2.706344667E0,-1.356554031E-3,-7.529932051E0,-1.204038767E0,7.625587707E0
2.716310667E0,2.038409178E-1,-7.711913189E0,-1.015434414E0,7.781147936E0
2.726276667E0,4.408356214E-1,-7.942964162E0,-1.338509524E-1,7.956313958E0
2.736243667E0,5.348391878E-1,-8.014964436E0,3.782447592E-1,8.041689932E0
2.746209667E0,4.975053371E-1,-8.217462285E0,6.975881032E-1,8.262011083E0
2.756176667E0,1.972589995E-1,-8.746607235E0,7.785755483E-1,8.783406465E0
2.766142667E0,-4.137846841E-1,-9.234353898E0,7.670693973E-1,9.275392452E0
2.776108667E0,-1.176256599E0,-9.542127357E0,1.067123873E0,9.673392757E0
2.786075667E0,-1.685957948E0,-9.726932116E0,1.529121884E0,9.989688500E0
2.796041667E0,-1.250006945E0,-1.010463652E1,1.878054332E0,1.035341898E1
2.806008667E0,-1.410692670E-1,-9.994856215E0,1.412838160E0,1.009520495E1
2.815974667E0,4.258565167E-1,-9.482118552E0,5.321036410E-1,9.506579842E0
2.825941667E0,8.291170532E-1,-8.273544100E0,-9.473576208E-1,8.368778496E0
2.835907667E0,1.113609822E0,-6.300380713E0,-1.881638675E0,6.668994532E0
2.845873667E0,1.009985174E0,-3.964281235E0,-2.126989013E0,4.610821838E0
2.855840667E0,1.103413448E0,-1.581099976E0,-2.474738131E0,3.137152720E0
2.865806667E0,1.378598619E0,9.325139523E-1,-2.181039505E0,2.743546928E0
2.875773667E0,3.989838464E-1,2.791590561E0,-1.044123193E0,3.007051581E0
2.885739667E0,1.175009387E0,5.301567521E0,4.019851126E-2,5.430366577E0
2.895705667E0,1.356601394E0,8.278611882E0,-4.672661325E-1,8.402030687E0
2.905672667E0,5.865042351E-2,9.852722096E0,-1.093415148E0,9.913381324E0
2.915638667E0,-9.199387841E-3,1.146818850E1,-1.776872942E0,1.160502949E1
2.925605667E0,-1.047033133E0,1.257796196E1,-3.199536763E0,1.302069280E1
2.935571667E0,3.099661642E-1,1.458049416E1,-6.278996276E0,1.587805666E1
2.945537667E0,1.457620523E0,1.548214417E1,-6.002998341E0,1.666905620E1
2.955504667E0,1.474159665E0,1.430504002E1,-5.370068822E0,1.535073144E1
2.965470667E0,1.787377465E0,1.251937052E1,-4.119570419E0,1.330038409E1
2.975437667E0,1.372075465E0,1.023348810E1,-1.838647460E0,1.048749228E1
2.985403667E0,8.933286904E-1,8.188455418E0,4.665506525E-1,8.250242893E0
2.995369667E0,4.679026750E-1,6.832092006E0,1.586429129E0,7.029450296E0
3.005336667E0,3.463364303E-1,6.201530024E0,2.007519872E0,6.527561535E0
3.015302667E0,2.576915447E-1,6.340250537E0,2.428003529E0,6.794143283E0
3.025269667E0,-4.882973246E-2,7.122916140E0,2.979495513E0,7.721121175E0
3.035235667E0,-2.772558897E-1,8.132072471E0,3.289662237E0,8.776636665E0
3.045201667E0,-3.434847432E-1,8.919651489E0,2.944437947E0,9.399355259E0
3.055168667E0,-4.860413226E-1,9.408005093E0,2.544563241E0,9.758155466E0
3.065134667E0,-5.754685657E-1,9.779724287E0,2.282501414E0,1.005902500E1
3.075101667E0,-5.786509129E-1,9.914171655E0,1.868925658E0,1.010537083E1
3.085067667E0,-6.970561527E-1,9.939492438E0,1.542205467E0,1.008254903E1
3.095033667E0,-9.550693674E-1,1.004513759E1,1.095651342E0,1.014974870E1
3.105000667E0,-1.461163058E0,1.005562750E1,5.810729027E-1,1.017783315E1
3.114966667E0,-1.660382666E0,9.782626260E0,6.384714373E-1,9.943052495E0
3.124933667E0,-1.791381346E0,9.143451329E0,4.874694320E-1,9.330025498E0
3.134899333E0,-1.600857864E0,8.576566111E0,2.814009078E-1,8.729227837E0
3.144866333E0,-1.195089822E0,8.574985024E0,-1.475943211E-1,8.659121891E0
3.154832333E0,-5.681069943E-1,9.206336964E0,-6.537619793E-1,9.246988190E0
3.164798333E0,2.663280284E-1,9.974021416E0,-1.437835007E0,1.008064499E1
3.174765333E0,9.948028057E-1,1.026900643E1,-2.411129780E0,1.059507775E1
3.184731333E0,1.595081254E0,1.044681324E1,-2.920363791E0,1.096397354E1
3.194698333E0,1.090229146E0,1.033658504E1,-2.919421220E0,1.079613867E1
3.204664333E0,4.371088985E-1,9.553290861E0,-1.220715026E0,9.640880439E0
3.214630333E0,-2.467659491E-1,7.694878496E0,3.790083325E-1,7.708157745E0
3.224597333E0,-1.368000248E0,4.510502978E0,9.071007836E-1,4.799884751E0
3.234563333E0,-1.459534609E0,4.785624415E-1,9.042777479E-1,1.782408912E0
3.244530333E0,-5.969082590E-1,-4.378688611E0,1.555966305E0,4.685108810E0
3.254496333E0,1.707072390E0,-1.191400361E1,-4.665440744E-1,1.204471841E1
3.264462333E0,6.818522957E-1,-1.903624790E1,-3.999856864E0,1.946387710E1
3.274429333E0,-4.082176597E0,-1.613741473E1,-9.608285093E-1,1.667343730E1
3.284395333E0,-1.966767703E0,-9.168345265E0,6.694488895E-1,9.400792090E0
3.294362333E0,-3.100936335E-1,-6.471972519E0,-3.938099742E-2,6.479516742E0
3.304328333E0,1.163317880E0,-6.867217984E0,-2.548590803E-1,6.969716241E0
3.314294333E0,2.646515001E0,-8.937419423E0,-1.197909715E0,9.397685635E0
3.324261333E0,1.922540533E0,-1.217597758E1,-2.944411050E0,1.267360046E1
3.334227333E0,-9.307203189E-1,-1.425660636E1,-2.425712736E0,1.449141634E1
3.344194333E0,-2.201581066E0,-1.533548548E1,-3.901147166E-2,1.549275947E1
3.354160333E0,-1.236563502E-1,-1.444404237E1,8.551833558E-1,1.446986487E1
3.364126333E0,2.672400332E0,-1.091860168E1,1.048044409E0,1.128964053E1
3.374093333E0,3.655916331E0,-7.438695021E0,1.149911164E0,8.367927074E0
3.384059333E0,2.888923897E0,-4.406855233E0,1.582869344E0,5.501975072E0
3.394026333E0,6.165938607E-1,-1.698629596E0,2.833511589E0,3.360702072E0
3.403992333E0,-2.550231824E0,-2.968789262E-1,3.779820292E0,4.569339219E0
3.413959333E0,-5.023942307E0,-8.280253780E-1,3.787074348E0,6.345672103E0
3.423925333E0,-5.687692500E0,-2.495951244E0,3.391525412E0,7.076868178E0
3.433891333E0,-4.662812421E0,-3.646522486E0,2.739296572E0,6.522475881E0
3.443858333E0,-2.221458968E0,-4.095592157E0,2.328363612E0,5.208649745E0
3.453824333E0,3.619212700E-1,-4.153563207E0,2.251959214E0,4.738606823E0
3.463791333E0,1.521889316E0,-4.086162937E0,1.596567031E0,4.643479398E0
3.473757333E0,1.546218119E0,-4.497150861E0,9.599514270E-1,4.851459892E0
3.483723333E0,8.653794381E-1,-5.822923980E0,9.186326623E-1,5.958121450E0
3.493690333E0,-5.206742713E-2,-7.453146999E0,9.659015536E-1,7.515655462E0
3.503656333E0,-5.696413037E-1,-9.268675300E0,1.510308906E0,9.408180803E0
3.513623333E0,-9.251414904E-1,-1.054644278E1,1.400562515E0,1.067918150E1
3.523589333E0,-1.285924344E0,-1.118786129E1,1.035766425E0,1.130905185E1
3.533555333E0,-1.328967745E0,-1.134301598E1,1.350511519E0,1.150017601E1
3.543522333E0,-1.162879046E0,-1.126786172E1,2.221820326E0,1.154354716E1
3.553488333E0,-1.119708468E0,-1.122735104E1,3.288133775E0,1.175240325E1
3.563455333E0,-1.096394158E0,-1.120788917E1,3.756783432E0,1.187149028E1
3.573421333E0,-1.016663864E0,-1.122342054E1,3.334534940E0,1.175235710E1
3.583387333E0,-8.059024376E-1,-1.099759172E1,2.295964190E0,1.126356755E1
3.593354333E0,-5.660528675E-1,-9.976280780E0,9.996820879E-1,1.004220884E1
3.603320333E0,-9.265644103E-1,-8.457953002E0,-4.718632500E-1,8.521628103E0
3.613287333E0,-9.061389166E-1,-6.438183798E0,-1.214936807E0,6.614179450E0
3.623253333E0,-7.081688592E-1,-3.796888314E0,-2.398721988E0,4.546617554E0
3.633219333E0,-7.034264749E-1,-9.165943229E-1,-4.093307065E0,4.253247781E0
3.643186333E0,-4.048956738E-1,1.701558466E0,-4.019660214E0,4.383709611E0
3.653152333E0,6.121440565E-1,3.763240512E0,-1.925510188E0,4.271333396E0
3.663119333E0,1.894196155E0,5.644751717E0,-9.021632485E-1,6.022051108E0
3.673085333E0,1.921527210E0,8.156809702E0,-7.085644233E-1,8.409986616E0
3.683051333E0,7.482825127E-1,1.112651230E1,-1.455277251E0,1.124620089E1
3.693018333E0,-2.902879447E-1,1.385263392E1,-2.701956253E0,1.411666750E1
3.702984333E0,8.958261824E-1,1.649378615E1,-4.578997847E0,1.714102411E1
3.712951333E0,2.301859353E0,1.790205296E1,-6.810095365E0,1.929143477E1
3.722917333E0,1.639776054E0,1.576472607E1,-6.042566450E0,1.696254883E1
3.732883333E0,7.960241514E-1,1.219817595E1,-3.540422419E0,1.272649763E1
3.742850333E0,8.045470530E-1,9.147042105E0,-3.496949979E-1,9.189013103E0
3.752816333E0,8.110398012E-1,6.652806433E0,2.238994768E0,7.066167035E0
3.762783333E0,6.741932472E-1,4.860978068E0,2.969166992E0,5.735817024E0
3.772749333E0,8.319371653E-1,4.237650261E0,2.618567941E0,5.050415552E0
3.782715333E0,6.672374725E-1,4.949991986E0,2.617569237E0,5.639086381E0
3.792682333E0,-1.394337277E-1,6.702541096E0,3.086612704E0,7.380425251E0
3.802648333E0,-2.970945422E-1,8.744919144E0,3.255023624E0,9.335794278E0
3.812615333E0,-1.556082226E-1,9.981804060E0,2.665469627E0,1.033273219E1
3.822581333E0,-4.723691437E-1,1.042587085E1,2.251079793E0,1.067657604E1
3.832548333E0,-6.590937629E-1,1.076529704E1,1.793329346E0,1.093352894E1
3.842514333E0,-4.344661032E-1,1.110985709E1,1.043625229E0,1.116722163E1
3.852480333E0,-8.955383532E-2,1.116232883E1,2.737243907E-1,1.116604361E1
3.862447333E0,-7.242777921E-2,1.061924880E1,-3.268942921E-1,1.062452591E1
3.872413333E0,-6.926209666E-2,9.884996388E0,-1.049738785E0,9.940820004E0
3.882380333E0,-1.548140976E-1,9.418193282E0,-1.537293806E0,9.544087402E0
3.892346333E0,-1.999396920E-1,9.234884825E0,-2.035408752E0,9.458644850E0
3.902312333E0,1.036024287E-1,9.211581917E0,-2.678032955E0,9.593530913E0
3.912279333E0,6.061324975E-1,9.219610729E0,-2.729758594E0,9.634324085E0
3.922245333E0,1.258516398E0,9.329482250E0,-2.393853596E0,9.713580061E0
3.932212333E0,2.194292512E0,9.527882370E0,-2.610929139E0,1.011990183E1
3.942178333E0,3.086440211E0,9.877621880E0,-3.629864938E0,1.096674275E1
3.952144333E0,3.202551003E0,1.014086587E1,-3.760699897E0,1.127990945E1
3.962111333E0,2.322925994E0,9.413490951E0,-2.601308130E0,1.003875495E1
3.972077333E0,1.328782534E0,7.332767447E0,-8.204498716E-1,7.497218114E0
3.982044333E0,5.147877331E-1,4.206518515E0,-1.220221521E0,4.410073127E0
3.992010333E0,3.247627627E-2,7.847565669E-1,-1.275061387E0,1.497557718E0
4.001976333E0,3.050343302E-1,-3.547204020E0,1.304070593E0,3.791609475E0
4.011943333E0,-1.227520965E-1,-9.083596891E0,1.175070491E0,9.160108690E0
4.021909333E0,-1.916242497E0,-1.114648873E1,-1.192966479E0,1.137274660E1
4.031876333E0,-3.593914502E0,-8.553234551E0,7.469549024E-1,9.307630437E0
4.041842333E0,-3.598722083E0,-6.631223776E0,3.293276986E0,8.232229510E0
4.051808333E0,-2.992105034E0,-8.630397332E0,3.199678266E0,9.678553180E0
4.061775333E0,-1.599358492E0,-1.402608807E1,2.897895280E0,1.441134592E1
4.071741333E0,7.049935287E-1,-1.993522340E1,3.040175579E0,2.017802803E1
4.081708333E0,2.157219703E0,-2.042306595E1,-3.189975396E0,2.078295366E1
4.091674333E0,1.372231586E0,-1.581792053E1,-1.516187696E0,1.594955970E1
4.101640333E0,3.180809301E-1,-1.022417349E1,3.069084213E0,1.067961502E1
4.111607333E0,-1.782098014E0,-6.186440114E0,2.033744634E0,6.751594764E0
4.121573333E0,-3.833131404E0,-4.590245551E0,2.876983298E0,6.636285367E0
4.131540333E0,-4.907385664E0,-5.099996456E0,3.879056897E0,8.070903315E0
4.141507792E0,-4.743099954E0,-6.129159620E0,4.294054842E0,8.860163758E0
4.151473792E0,-3.742955936E0,-7.347851509E0,4.423925010E0,9.357978064E0
4.161440792E0,-2.439046142E0,-8.113439149E0,3.434773757E0,9.141909630E0
4.171406792E0,-1.247497320E0,-7.667693621E0,2.099943302E0,8.047331042E0
4.181373792E0,-5.221165967E-1,-6.543295101E0,1.278106617E0,6.687366675E0
4.191339792E0,-5.311727643E-2,-5.304097611E0,3.654194033E-1,5.316935608E0
4.201305792E0,-1.190493107E-1,-4.753332582E0,1.137552416E-1,4.756183725E0
4.211272792E0,-4.629451132E-1,-4.688213310E0,7.357832122E-1,4.768127427E0
4.221238792E0,-5.713805580E-1,-4.595626159E0,1.231332400E0,4.791913502E0
4.231205792E0,-4.749035463E-1,-4.806254561E0,2.119315127E0,5.274193103E0
4.241171792E0,-6.539017278E-1,-5.102931758E0,2.819847815E0,5.866774386E0
4.251137792E0,-9.877467513E-1,-5.304843716E0,2.844918337E0,6.100046790E0
4.261104792E0,-1.128491863E0,-5.664841581E0,3.069612801E0,6.541134976E0
4.271070792E0,-1.360916054E0,-6.324991643E0,3.373321860E0,7.296362941E0
4.281037792E0,-1.822027481E0,-7.307770600E0,3.595631830E0,8.345769200E0
4.291003792E0,-2.454457355E0,-8.392243162E0,3.732682378E0,9.507209051E0
4.300969792E0,-2.760930978E0,-9.431080545E0,3.808774534E0,1.053920223E1
4.310936792E0,-2.948782429E0,-1.027998048E1,3.396425378E0,1.122091894E1
4.320902792E0,-2.758573965E0,-1.074396640E1,2.439570637E0,1.135755472E1
4.330869792E0,-2.638477418E0,-1.052872455E1,1.574408423E0,1.096787881E1
4.340835792E0,-2.342384650E0,-9.778094668E0,1.079336368E0,1.011251048E1
4.350801792E0,-1.779300999E0,-8.623317524E0,6.187524334E-1,8.826685206E0
4.360768792E0,-4.967916479E-1,-6.938459290E0,-4.555519668E-1,6.971122353E0
4.370734792E0,1.196716956E0,-4.668167886E0,-1.403231184E0,5.019260965E0
4.380701792E0,2.342904906E0,-2.304998138E0,-1.350730351E0,3.553405732E0
4.390667792E0,2.241618706E0,3.008234578E-1,-1.225100437E0,2.572201442E0
4.400633792E0,4.789088890E-1,3.032533268E0,-9.118966699E-1,3.202681264E0
4.410600792E0,-8.647671615E-1,6.678324267E0,-7.974971382E-1,6.781138470E0
4.420566792E0,-1.142415107E0,1.085653934E1,-2.580317795E0,1.121729016E1
4.430533792E0,6.806482809E-1,1.457880782E1,-5.249616179E0,1.551010605E1
4.440499792E0,2.340473488E0,1.619079513E1,-6.250544894E0,1.751253764E1
4.450465792E0,3.788051710E0,1.571191635E1,-5.053806961E0,1.693383052E1
4.460432792E0,2.582961321E0,1.313656752E1,-3.860808907E0,1.393366215E1
4.470398792E0,2.249332353E0,1.061607610E1,-1.580164422E0,1.096619749E1
4.480365792E0,2.020274404E0,8.883516866E0,3.286556927E-1,9.116270901E0
4.490331792E0,1.296130074E0,8.063299275E0,9.462268424E-1,8.221441091E0
4.500297792E0,3.327312751E-1,7.919019814E0,7.042294438E-1,7.957230927E0
4.510264792E0,-5.109055839E-1,8.509525445E0,9.312663026E-1,8.575564397E0
4.520230792E0,-9.682984004E-1,9.485702895E0,1.532838228E0,9.657419647E0
4.530197792E0,-1.022068811E0,1.004033820E1,1.940306128E0,1.027705228E1
4.540163792E0,-9.546512914E-1,1.001302001E1,1.971724387E0,1.024985979E1
4.550130792E0,-8.752151857E-1,9.829900414E0,1.997944326E0,1.006899823E1
4.560096792E0,-6.429389293E-1,9.873835223E0,1.817800967E0,1.006033761E1
4.570062792E0,-3.132404588E-1,9.848600979E0,1.254484012E0,9.933115874E0
4.580029792E0,-2.540969688E-1,9.559040428E0,9.441546623E-1,9.608914985E0
4.589995792E0,-3.262743410E-1,9.298320683E0,7.614805555E-1,9.335152656E0
4.599962792E0,-1.522898546E-1,9.603959323E0,1.708813691E-1,9.606686594E0
4.609928792E0,-4.108918838E-2,1.011280976E1,-5.520610651E-1,1.012795048E1
4.619894792E0,-2.166745694E-1,1.026775629E1,-1.449936112E0,1.037188902E1
4.629861792E0,-3.041320317E-1,1.020815796E1,-1.935608183E0,1.039449683E1
4.639827792E0,-4.068836175E-1,1.000875739E1,-1.983331257E0,1.021148283E1
4.649794792E0,-4.192985719E-1,9.842639158E0,-1.937692423E0,1.004031916E1
4.659760792E0,-1.530168097E-1,9.774010972E0,-1.861034110E0,9.950786531E0
4.669726792E0,5.206280418E-1,9.732624965E0,-1.812378552E0,9.913614794E0
4.679693792E0,6.987580580E-1,9.518978814E0,-1.731650577E0,9.700403817E0
4.689659792E0,5.308996262E-1,9.326161031E0,-1.406817867E0,9.446601003E0
4.699626792E0,2.396207978E-1,9.210189110E0,-1.209911856E0,9.292410251E0
4.709592792E0,-7.513416298E-1,8.698119784E0,-4.506014948E-1,8.742130388E0
4.719559792E0,-1.577371353E0,7.146069360E0,5.140695123E-1,7.336121260E0
4.729525792E0,-1.065612441E0,4.061683568E0,2.691214918E0,4.987528548E0
4.739491792E0,1.920651736E-1,-6.158574039E-1,4.909848511E0,4.952048240E0
4.749458792E0,1.030188108E0,-5.260563337E0,4.521820264E0,7.012964612E0
4.759424792E0,2.200860104E0,-9.896870914E0,7.999938992E-1,1.017014402E1
4.769391792E0,7.656749826E-1,-1.534541171E1,-5.784858606E0,1.641744523E1
4.779357792E0,-5.890296768E0,-1.653223159E1,-2.643173025E0,1.774814472E1
4.789323792E0,-3.590828927E0,-1.237070156E1,2.245743624E0,1.307561371E1
4.799290792E0,-2.244344093E-1,-1.009488219E1,5.713629067E-1,1.011352920E1
4.809256792E0,2.988494378E-1,-1.059607862E1,-9.335243511E-1,1.064131857E1
4.819223792E0,8.640543859E-2,-1.199765621E1,-2.614172808E-1,1.200081495E1
4.829189792E0,-1.020095302E0,-1.271711751E1,8.931037188E-2,1.275827765E1
4.839155792E0,-1.271525868E0,-1.244676915E1,1.535388783E0,1.260540595E1
4.849122792E0,-6.876775843E-1,-1.209956032E1,4.227789516E0,1.283535993E1
4.859088792E0,-1.633832287E-1,-1.061065456E1,4.356020125E0,1.147116366E1
4.869055792E0,-1.036468493E-1,-7.629143513E0,3.418593342E0,8.360702952E0
4.879021792E0,-1.226974470E0,-5.097231892E0,3.242655301E0,6.164580498E0
4.888988792E0,-3.161295388E0,-4.599204655E0,3.465560517E0,6.569366917E0
4.898954792E0,-4.943011580E0,-5.281796916E0,2.886397315E0,7.788583414E0
4.908920792E0,-5.522117479E0,-6.411940910E0,2.115081743E0,8.722404397E0
4.918887792E0,-4.420789441E0,-6.901383850E0,1.477287340E0,8.327956304E0
4.928853792E0,-2.418167781E0,-6.649798041E0,9.738011420E-1,7.142523228E0
4.938820792E0,-5.877992472E-1,-6.413061821E0,6.832471490E-1,6.476086514E0
4.948786792E0,4.109256515E-1,-5.931554722E0,9.273543692E-1,6.017656307E0
4.958752792E0,5.858047619E-1,-5.449948220E0,1.575315911E0,5.703220409E0
4.968719792E0,4.613467768E-1,-5.539401848E0,2.280210621E0,6.008092390E0
4.978685792E0,2.129271985E-1,-6.417583473E0,3.011086850E0,7.092063144E0
4.988652792E0,-2.070566488E-1,-7.854532626E0,3.574774811E0,8.632240160E0
4.998618792E0,-1.034505473E0,-9.243849192E0,3.643001293E0,9.989514897E0
5.008585792E0,-2.111652059E0,-1.049892363E1,4.171980182E0,1.149312361E1
5.018551792E0,-3.014002272E0,-1.102642902E1,4.878883996E0,1.242859025E1
5.028517792E0,-3.511069104E0,-1.072462264E1,5.085608797E0,1.237774430E1
5.038484792E0,-3.547547836E0,-1.042974171E1,4.876314729E0,1.204753307E1
5.048450792E0,-3.331108764E0,-1.014000048E1,4.659050907E0,1.164571383E1
5.058417792E0,-3.161684521E0,-9.854422467E0,3.769038026E0,1.101415175E1
5.068383792E0,-2.972996333E0,-9.895492140E0,2.602910267E0,1.065526226E1
5.078349792E0,-2.744609937E0,-9.552818406E0,1.772895666E0,1.009615681E1
5.088316792E0,-2.383117816E0,-8.428838546E0,9.201622939E-1,8.807455274E0
5.098282792E0,-1.599425443E0,-6.837708841E0,-2.012424151E-1,7.025163518E0
5.108249792E0,-1.421990222E-1,-4.845799280E0,-9.370022750E-1,4.937607163E0
5.118215792E0,1.635756825E0,-2.491969875E0,-1.466950632E0,3.322282108E0
5.128182792E0,3.077629918E0,3.800070369E-1,-1.998713965E0,3.689318200E0
5.138147917E0,3.919446247E0,3.814196073E0,-2.387443879E0,5.967414753E0
5.148113917E0,3.569461446E0,7.491066778E0,-2.653672285E0,8.712009704E0
5.158080917E0,2.108646005E0,1.056875341E1,-3.719951820E0,1.140100777E1
5.168046917E0,7.006923169E-1,1.258067975E1,-4.967686830E0,1.354409041E1
5.178013917E0,-1.141958293E-1,1.384021561E1,-5.668418323E0,1.495645597E1
5.187979917E0,-3.029208175E-1,1.530288842E1,-5.729570843E0,1.634313731E1
5.197945917E0,7.534055507E-1,1.573197698E1,-7.122403339E0,1.728558211E1
5.207912917E0,1.865032875E0,1.344937719E1,-6.148127403E0,1.490515230E1
5.217878917E0,2.355839093E0,1.068605441E1,-4.560913578E0,1.185511153E1
5.227845917E0,2.773788713E0,9.238924667E0,-2.770615429E0,1.003633114E1
5.237811917E0,3.192423041E0,7.963369775E0,-1.511481857E0,8.711567049E0
5.247777917E0,3.121474680E0,7.425863891E0,-5.333957295E-1,8.072891038E0
5.257744917E0,2.432323890E0,7.650082392E0,2.238548771E-1,8.030571033E0
5.267710917E0,1.757185660E0,8.269570917E0,8.737541127E-1,8.499232368E0
5.277677917E0,1.155625210E0,9.025811782E0,1.205656180E0,9.179017092E0
5.287643917E0,6.017436140E-1,9.528225601E0,1.528330024E0,9.668762648E0
5.297610917E0,-1.996246733E-2,9.832227606E0,1.899231777E0,1.001399918E1
5.307576917E0,-7.018401253E-1,1.008562722E1,1.932053368E0,1.029297266E1
5.317542917E0,-7.942908175E-1,1.002516818E1,1.639961557E0,1.018942436E1
5.327509917E0,-5.560223345E-1,9.522603503E0,1.548657431E0,9.663719685E0
5.337475917E0,-5.337616190E-1,9.014956427E0,1.674237936E0,9.184629198E0
5.347442917E0,-6.276817165E-1,8.889345371E0,1.427230643E0,9.025044751E0
5.357408917E0,-7.068970898E-1,9.006411890E0,1.063975732E0,9.096548961E0
5.367374917E0,-9.403459322E-1,9.157405125E0,4.481916379E-1,9.216463250E0
5.377341917E0,-1.166078131E0,9.290681296E0,-4.809848698E-1,9.375918280E0
5.387307917E0,-1.061691006E0,9.432906046E0,-1.038735495E0,9.549129578E0
5.397274917E0,-7.329201230E-1,9.396121212E0,-1.583250582E0,9.556722668E0
5.407240917E0,-3.168450480E-1,9.270558688E0,-1.923333708E0,9.473270909E0
5.417207917E0,1.851314722E-1,8.981466499E0,-2.086632554E0,9.222529455E0
5.427173917E0,1.334673458E0,8.803088999E0,-2.394570465E0,9.220070330E0
5.437139917E0,1.688387320E0,8.455917587E0,-1.779722875E0,8.804578780E0
5.447106917E0,1.209214064E0,7.314527058E0,7.753923241E-1,7.454242952E0
5.457072917E0,1.428290597E0,5.942465041E0,1.455455006E0,6.282615225E0
5.467039917E0,1.434508233E0,3.908171353E0,1.735038453E0,4.510207937E0
5.477005917E0,6.136974424E-1,1.262645994E0,6.143201709E-1,1.532412715E0
5.486971917E0,4.386432078E-1,-6.229249334E-1,-3.717900617E0,3.795158539E0
5.496938917E0,4.514532148E-1,-3.509328096E0,-6.652694167E0,7.535086819E0
5.506904917E0,-7.637770495E-1,-7.279506329E0,-7.546489027E0,1.051304259E1
5.516871917E0,-5.257069041E0,-8.788477392E0,-5.231296853E0,1.149959028E1
5.526837917E0,-6.051021523E0,-9.158389796E0,-3.351951456E-1,1.098195433E1
5.536803917E0,-1.044413580E0,-8.718701983E0,6.533697043E-3,8.781036766E0
5.546770917E0,2.609559721E0,-7.834017670E0,1.829289905E-1,8.259243174E0
5.556736917E0,3.703387536E0,-8.865243732E0,4.446609064E-1,9.617970108E0
5.566703917E0,3.602265496E0,-1.186050626E1,8.424317479E-1,1.242407408E1
5.576669917E0,2.037566375E0,-1.368185430E1,1.272157660E0,1.389111942E1
5.586636917E0,-3.573946846E-1,-1.291342491E1,1.020470109E0,1.295861231E1
5.596602917E0,-1.283243396E0,-1.132744953E1,2.386434649E0,1.164701235E1
5.606568917E0,-2.548334695E0,-8.904109590E0,1.461161889E0,9.376149070E0
5.616535917E0,-2.839247707E0,-8.392274153E0,2.502881949E0,9.206302789E0
5.626501917E0,-2.126276822E0,-8.256643308E0,3.067028332E0,9.060898114E0
5.636468917E0,-7.494323677E-1,-9.175492902E0,1.483197706E0,9.324762426E0
5.646434917E0,4.641812146E-2,-9.027749550E0,4.969384861E-1,9.041535513E0
5.656400917E0,5.300521820E-1,-8.468680304E0,5.573916793E-1,8.503539669E0
5.666367917E0,5.573855397E-1,-8.224792939E0,1.226759877E0,8.334436834E0
5.676333917E0,1.656004563E-1,-8.169908634E0,1.897206302E0,8.388934519E0
5.686300917E0,-6.718050250E-1,-8.187032790E0,1.743598777E0,8.397557061E0
5.696266917E0,-1.257558916E0,-7.913979514E0,2.015283805E0,8.262801885E0
5.706232917E0,-1.649139347E0,-7.598594735E0,3.054418226E0,8.353907662E0
5.716199917E0,-2.050919369E0,-6.910555208E0,3.432516732E0,7.983997411E0
5.726165917E0,-2.500413547E0,-6.204851242E0,3.185731487E0,7.409529807E0
5.736132917E0,-2.901556222E0,-6.559163859E0,3.306745462E0,7.897862027E0
5.746098917E0,-3.064775984E0,-7.345909649E0,3.444501185E0,8.672936574E0
5.756065917E0,-2.881586519E0,-8.014923506E0,3.694200683E0,9.283838557E0
5.766031917E0,-3.023064287E0,-8.615490441E0,3.491716282E0,9.775360649E0
5.775997917E0,-3.109001400E0,-9.329333146E0,3.059681890E0,1.029873778E1
5.785964917E0,-2.739832470E0,-1.000566889E1,3.085685627E0,1.082319489E1
5.795930917E0,-2.315126685E0,-1.033535128E1,3.113451716E0,1.103960503E1
5.805897917E0,-1.565651925E0,-9.947211932E0,2.928920606E0,1.048698561E1
5.815863917E0,-6.830442506E-1,-9.215873773E0,2.215074978E0,9.502917237E0
5.825829917E0,-6.482870121E-2,-8.191397737E0,6.476248149E-1,8.217214707E0
5.835796917E0,1.126107369E0,-6.276253932E0,-1.640967278E0,6.584242920E0
5.845762917E0,2.169290402E0,-3.830044366E0,-3.207507688E0,5.446390205E0
5.855729917E0,2.828981458E0,-1.327913784E0,-3.190943695E0,4.466386994E0
5.865695917E0,2.743228532E0,1.101962169E0,-1.927935759E0,3.529385172E0
5.875661917E0,1.791485134E0,3.379594753E0,-5.229609346E-1,3.860643446E0
5.885628917E0,6.913829648E-1,6.001057066E0,4.244892184E-1,6.055649214E0
5.895594917E0,-1.636101006E-1,9.129299313E0,-5.950815888E-1,9.150136410E0
5.905561917E0,-4.669624792E-1,1.214719291E1,-2.755320282E0,1.246451521E1
5.915527917E0,3.321907731E-1,1.495871663E1,-4.223987657E0,1.554720636E1
5.925494917E0,1.310798984E0,1.624891645E1,-5.751902529E0,1.728669612E1
5.935460917E0,1.921644886E0,1.524421746E1,-5.840096083E0,1.643732360E1
5.945426917E0,1.636760207E0,1.234859791E1,-4.443076980E0,1.322527079E1
5.955393917E0,1.382839020E0,1.041365017E1,-2.795399437E0,1.087063069E1
5.965359917E0,9.439321026E-1,9.441828312E0,-1.276834263E0,9.574415670E0
5.975326917E0,7.729679223E-1,8.873173141E0,-3.190836545E-1,8.912490975E0
5.985292917E0,6.654759988E-1,8.729418760E0,5.591972995E-1,8.772588661E0
5.995258917E0,5.915668275E-1,8.842253650E0,1.377167805E0,8.968388489E0
6.005225917E0,5.019959622E-1,9.006685540E0,1.865805730E0,9.211602216E0
6.015191917E0,3.704004271E-1,9.188498279E0,2.001857282E0,9.411329857E0
6.025158917E0,2.727886900E-2,9.236289327E0,1.734301997E0,9.397743776E0
6.035124917E0,-4.443253127E-1,9.035095991E0,1.405342029E0,9.154527338E0
6.045090917E0,-5.695080603E-1,8.745904400E0,1.205181386E0,8.846900326E0
6.055057917E0,-3.988667194E-1,8.726689280E0,1.062228657E0,8.800143758E0
6.065023917E0,-5.969451696E-2,8.835697752E0,6.145645845E-1,8.857246063E0
6.074990917E0,2.011369825E-1,9.029314849E0,6.649101345E-1,9.055997362E0
6.084956917E0,7.362229228E-2,9.295809889E0,8.203152394E-1,9.332224752E0
6.094923917E0,-8.267677881E-2,9.565470611E0,5.195603402E-1,9.579927265E0
6.104889917E0,1.944639938E-1,9.707619932E0,-1.988940637E-1,9.711604390E0
6.114855917E0,5.988589633E-1,9.592765414E0,-1.256449699E0,9.693216504E0
6.124822917E0,8.799202209E-1,9.340073896E0,-1.468595893E0,9.495683960E0
6.134788917E0,8.964693761E-1,9.099541664E0,-9.164668536E-1,9.189408432E0
6.144755292E0,7.475717837E-1,9.324757115E0,-7.461526644E-1,9.384386108E0
6.154721292E0,4.801498874E-1,1.024806404E1,-7.473044197E-1,1.028648747E1
6.164687292E0,9.726911943E-1,1.104958165E1,-3.805821106E-1,1.109883893E1
6.174654292E0,8.158579069E-1,1.073218426E1,-9.831976175E-2,1.076359930E1
6.184620292E0,-3.691133087E-1,8.620945893E0,1.062330180E0,8.693992071E0
6.194587292E0,-1.404057542E-1,5.670612783E0,2.098258719E-1,5.676230264E0
6.204553292E0,3.532349753E-1,2.805222759E0,-4.016709709E-1,2.855764214E0
6.214519292E0,1.580232688E-1,2.703395838E-1,-6.830389150E-1,7.513967018E-1
6.224486292E0,-1.019878663E-2,-4.136681126E0,-1.577833722E0,4.427391332E0
6.234452292E0,-2.775936395E-2,-1.023161699E1,-1.833140699E0,1.039457367E1
6.244419292E0,-3.979544222E0,-1.512681940E1,-4.836809479E-2,1.564160404E1
6.254385292E0,-6.651225931E0,-1.620471852E1,1.157346484E0,1.755480446E1
6.264352292E0,-1.810602752E-1,-1.215145319E1,-9.914888962E-1,1.219318037E1
6.274318292E0,2.672650008E0,-7.305636951E0,-7.347809994E-1,7.813788610E0
6.284284292E0,1.879964617E0,-7.242140282E0,-1.641313434E-1,7.483969664E0
6.294251292E0,1.790333233E0,-8.666708542E0,2.664132150E-1,8.853705779E0
6.304217292E0,2.217635474E0,-8.484201738E0,-4.943013918E-1,8.783161168E0
6.314184292E0,1.619645114E0,-7.618928427E0,-8.526281226E-1,7.835706438E0
6.324150292E0,8.009190749E-1,-8.111580904E0,1.109318551E0,8.226165800E0
6.334117292E0,2.879812181E-2,-7.924346627E0,2.625599803E0,8.348046066E0
6.344083292E0,4.348610826E-2,-6.626232008E0,2.494029264E0,7.080185282E0
6.354049292E0,4.185591915E-1,-5.941832957E0,1.153680207E0,6.067252155E0
6.364016292E0,4.995873479E-1,-5.611646537E0,-1.657849360E-1,5.636279714E0
6.373982292E0,-7.221080366E-1,-6.385265327E0,3.388555026E-1,6.434895210E0
6.383949292E0,-1.741316901E0,-6.893140445E0,8.513686323E-1,7.160474726E0
6.393915292E0,-1.269111260E0,-5.916955394E0,6.881108630E-1,6.090525518E0
6.403881292E0,-5.898559322E-1,-5.266110005E0,1.464091344E0,5.497582021E0
6.413848292E0,-1.606671605E-1,-5.045415621E0,2.878559707E0,5.811035942E0
6.423814292E0,-1.124358174E-1,-4.874421401E0,3.813673332E0,6.190050896E0
6.433781292E0,-1.889230261E-1,-4.468115342E0,3.652197794E0,5.773932399E0
6.443747292E0,-6.685764849E-1,-5.151730281E0,3.526305487E0,6.278706060E0
6.453714292E0,-1.206582305E0,-5.656161389E0,3.129471332E0,6.575834042E0
6.463680292E0,-1.409574244E0,-6.359999508E0,2.737706130E0,7.066224462E0
6.473646292E0,-1.532258769E0,-7.319991866E0,2.876666379E0,8.012821432E0
6.483613292E0,-1.691815835E0,-8.299042638E0,2.960652276E0,8.972280169E0
6.493579292E0,-1.649015971E0,-8.921190476E0,2.926566517E0,9.532664096E0
6.503546292E0,-1.688224914E0,-9.618661562E0,3.160325335E0,1.026432705E1
6.513512292E0,-1.860149865E0,-1.016391676E1,2.966225842E0,1.075006312E1
6.523479292E0,-2.138937506E0,-1.058955196E1,2.938055127E0,1.119579530E1
6.533445292E0,-2.196088338E0,-1.102331947E1,3.257083890E0,1.170234898E1
6.543411292E0,-1.851890234E0,-1.113715657E1,3.397022964E0,1.179006017E1
6.553378292E0,-1.473948288E0,-1.085370227E1,3.399001662E0,1.146859140E1
6.563344292E0,-1.337308506E0,-1.011216072E1,2.967840843E0,1.062319480E1
6.573311292E0,-9.770931975E-1,-9.181806725E0,2.515364585E0,9.570127734E0
6.583277292E0,-3.265705756E-1,-8.222621868E0,2.010439972E0,8.471129063E0
6.593244292E0,4.222201332E-1,-7.255349727E0,1.814650633E0,7.490749390E0
6.603210292E0,8.798208913E-1,-6.094103224E0,-4.616821146E-1,6.174571182E0
6.613176292E0,9.048691937E-1,-3.870563232E0,-5.101293368E0,6.467089146E0
6.623143292E0,1.761680414E0,-1.657124889E0,-4.997683046E0,5.552154231E0
6.633109292E0,2.940204271E0,1.460733873E-1,-3.976525304E0,4.947614787E0
6.643076292E0,3.621695793E0,2.169362031E0,-4.108375340E0,5.890802999E0
6.653042292E0,3.010945932E0,4.440115950E0,-3.113785007E0,6.202909166E0
6.663008292E0,1.712419084E0,6.356789387E0,-1.712368798E0,6.802452303E0
6.672975292E0,5.971705066E-1,8.165401016E0,-1.490980350E0,8.321863299E0
6.682941292E0,-3.302151451E-1,9.715551680E0,-1.867408891E0,9.898899052E0
6.692908292E0,-3.983737991E-1,1.141958059E1,-2.384571726E0,1.167269056E1
6.702874292E0,4.771234417E-1,1.329679760E1,-2.719212556E0,1.358037519E1
6.712841292E0,1.468082069E0,1.467811342E1,-2.063774765E0,1.489501410E1
6.722807292E0,1.512158965E0,1.473788483E1,-1.396206340E0,1.488090274E1
6.732773292E0,1.120366499E0,1.336650577E1,-1.576536809E0,1.350570864E1
6.742740292E0,1.204310735E0,1.179529110E1,-1.688077126E0,1.197617889E1
6.752706292E0,1.404993681E0,1.054053943E1,-1.572856425E0,1.074945841E1
6.762673292E0,1.447140266E0,9.178711794E0,-1.119933513E0,9.359338450E0
6.772639292E0,1.070045361E0,7.964913440E0,-1.118255874E-1,8.037247548E0
6.782606292E0,3.848077472E-1,7.252954123E0,7.774471088E-1,7.304645407E0
6.792572292E0,-4.208795129E-1,7.014647925E0,1.466806937E0,7.178714904E0
6.802538292E0,-7.533122876E-1,7.691183056E0,2.212071848E0,8.038347968E0
6.812505292E0,-1.017717971E0,8.572662510E0,2.578396400E0,9.009684810E0
6.822471292E0,-1.421219559E0,9.119359047E0,2.494756658E0,9.560668661E0
6.832438292E0,-1.670538402E0,9.361646029E0,1.980243781E0,9.713520492E0
6.842404292E0,-1.653240584E0,9.393778818E0,1.561297796E0,9.665088500E0
6.852370292E0,-1.750066382E0,9.401726938E0,1.425388623E0,9.668864178E0
6.862337292E0,-1.658276791E0,9.481786430E0,1.245262806E0,9.705917539E0
6.872303292E0,-1.375771490E0,9.610870147E0,7.461480597E-1,9.737469338E0
6.882270292E0,-9.868439412E-1,9.877025464E0,1.169115686E-1,9.926890817E0
6.892236292E0,-4.669288212E-1,1.022221584E1,-9.049022305E-1,1.027280717E1
6.902203292E0,-3.146664485E-1,1.062724545E1,-1.897165371E0,1.079984247E1
6.912169292E0,-5.505408622E-1,1.086592061E1,-2.456239879E0,1.115367385E1
6.922135292E0,-6.337608473E-1,1.069976964E1,-3.145682738E0,1.117058830E1
6.932102292E0,-1.475332908E-2,1.047396654E1,-3.593958356E0,1.107342447E1
6.942068292E0,4.178268278E-1,1.045201141E1,-4.122660087E0,1.124346246E1
6.952035292E0,6.037989834E-1,9.885067724E0,-2.982341938E0,1.034279945E1
6.962001292E0,1.615719878E0,8.071126943E0,-1.335191814E0,8.338847524E0
6.971968292E0,2.429880631E0,5.844866826E0,-2.775655729E0,6.911660641E0
6.981934292E0,1.595595809E0,3.870301861E0,-4.957607399E0,6.488685044E0
6.991900292E0,8.414872764E-1,1.066278951E0,-2.477205656E0,2.825172472E0
7.001867292E0,-2.413935274E-2,-2.987708513E0,1.750229520E0,3.462699559E0
7.011833292E0,-8.413991296E-1,-7.608768305E0,3.826665845E0,8.558310529E0
7.021800292E0,3.165574746E-1,-1.107725068E1,7.743233800E-1,1.110879237E1
7.031766292E0,1.663121794E0,-1.314179493E1,-2.398025000E0,1.346191933E1
7.041733292E0,-1.428606346E0,-1.114562100E1,-2.163156381E0,1.144312147E1
7.051699292E0,-2.282629322E0,-7.077696698E0,1.095659455E0,7.516957949E0
7.061665292E0,-1.479313985E0,-6.074737245E0,1.711918563E0,6.482396751E0
7.071632292E0,-8.574221816E-1,-7.630741557E0,6.174881192E-1,7.703549901E0
7.081598292E0,2.354056862E-1,-9.934960846E0,-5.223575020E-1,9.951468244E0
7.091565292E0,9.461069014E-1,-1.167476829E1,-4.937832920E-1,1.172344466E1
7.101531292E0,1.250610085E0,-1.229105663E1,5.906062031E-1,1.236862621E1
7.111497292E0,1.853683137E0,-1.068950777E1,1.430024296E0,1.094288294E1
7.121464292E0,1.665377650E0,-8.874437310E0,1.838217251E0,9.214562547E0
7.131430292E0,1.047114701E0,-8.105137857E0,1.280376506E0,8.272186705E0
7.141397917E0,-4.325714591E-1,-6.992498088E0,1.522257106E0,7.169338482E0
7.151363917E0,-1.993375458E0,-5.049458971E0,2.494422197E0,5.974338768E0
7.161330917E0,-3.019604197E0,-3.152414637E0,2.924118873E0,5.254160136E0
7.171296917E0,-3.757763425E0,-3.103499170E0,4.051756750E0,6.337919676E0
7.181262917E0,-3.334655100E0,-4.178237872E0,4.943681670E0,7.281317519E0
7.191229917E0,-2.190235421E0,-4.448647622E0,4.325176063E0,6.579874227E0
7.201195917E0,-1.434473735E0,-4.676034729E0,3.371888123E0,5.940761332E0
7.211162917E0,-7.550299072E-1,-4.796039475E0,2.099008917E0,5.289414263E0
7.221128917E0,-5.313154364E-1,-5.559875289E0,1.171956264E0,5.706837198E0
7.231095917E0,-4.988742068E-1,-6.791259145E0,1.207720758E0,6.915827186E0
7.241061917E0,-6.546335068E-1,-8.112753856E0,1.673073170E0,8.309301654E0
7.251027917E0,-8.961679521E-1,-9.440823761E0,2.474835194E0,9.800871365E0
7.260994917E0,-1.073430095E0,-1.035891789E1,2.497033564E0,1.070955689E1
7.270960917E0,-9.972119316E-1,-1.083540282E1,2.184541987E0,1.109831562E1
7.280927917E0,-1.045405560E0,-1.100370908E1,2.599270960E0,1.135476533E1
7.290893917E0,-1.423651416E0,-1.094283020E1,3.491422167E0,1.157421034E1
7.300859917E0,-2.033018703E0,-1.081744134E1,4.393561589E0,1.185131156E1
7.310826917E0,-2.704594517E0,-1.065986707E1,4.709216509E0,1.196345759E1
7.320792917E0,-3.068911135E0,-1.057540988E1,4.571985866E0,1.192311052E1
7.330759917E0,-2.930884686E0,-1.050198523E1,4.098736205E0,1.164823666E1
7.340725917E0,-2.820291034E0,-1.034783274E1,3.297965283E0,1.122088495E1
7.350692917E0,-2.703363093E0,-1.008174701E1,2.252402433E0,1.067816049E1
7.360658917E0,-1.976366492E0,-9.320005667E0,1.539927392E0,9.650901850E0
7.370624917E0,-9.534499079E-1,-8.116039406E0,1.846305120E-1,8.173937288E0
7.380591917E0,5.321106577E-1,-6.452694249E0,-1.519908864E0,6.650603565E0
7.390557917E0,1.998586496E0,-4.329905875E0,-2.423038219E0,5.349163213E0
7.400524917E0,3.047060675E0,-2.108096074E0,-2.465538121E0,4.450564688E0
7.410490917E0,2.904698223E0,1.854175472E-1,-2.665998216E0,3.947049268E0
7.420457917E0,2.720005438E0,2.922657069E0,-2.550473607E0,4.737643881E0
7.430423917E0,2.404542599E0,5.407423174E0,-2.343905511E0,6.365213550E0
7.440389917E0,2.129195752E0,7.679034296E0,-1.808181274E0,8.171325583E0
7.450356917E0,1.051429654E0,9.452610578E0,-1.803415793E0,9.680374971E0
7.460322917E0,4.638194912E-1,1.135855554E1,-2.177106668E0,1.157461472E1
7.470289917E0,2.350120955E-1,1.340801165E1,-3.304642804E0,1.381125161E1
7.480255917E0,-8.685081370E-2,1.470486794E1,-4.245043480E0,1.530558978E1
7.490221917E0,3.034096082E-1,1.503654657E1,-3.906474491E0,1.553867218E1
7.500188917E0,7.953768647E-1,1.438793599E1,-3.064510521E0,1.473216044E1
7.510154917E0,8.813797590E-1,1.293863460E1,-2.419462062E0,1.319238008E1
7.520121917E0,1.060371509E0,1.120495153E1,-1.565841082E0,1.136341431E1
7.530087917E0,1.277908104E0,9.595734045E0,-6.672304559E-1,9.703419885E0
7.540053917E0,1.277652580E0,8.367169132E0,1.488338578E-1,8.465463184E0
7.550020917E0,8.174564626E-1,7.603205849E0,5.946455327E-1,7.670109358E0
7.559986917E0,-6.211643368E-2,7.461705569E0,9.068388283E-1,7.516865378E0
7.569953917E0,-1.054517349E0,7.900243819E0,1.299196062E0,8.075504297E0
7.579919917E0,-1.816230112E0,8.685673401E0,1.639942846E0,9.023803344E0
7.589886917E0,-2.183891777E0,9.210092046E0,1.895249823E0,9.653349195E0
7.599852917E0,-2.367455026E0,9.305427389E0,2.170430463E0,9.844114515E0
7.609818917E0,-2.307027122E0,9.187972029E0,2.535721081E0,9.806685758E0
7.619785917E0,-1.984007341E0,9.036634979E0,2.702173769E0,9.638402354E0
7.629751917E0,-1.528051551E0,8.979237540E0,2.631954557E0,9.480972162E0
7.639718917E0,-1.170303256E0,9.019680977E0,2.335543993E0,9.390368490E0
7.649684917E0,-1.020586176E0,9.035902323E0,1.779045768E0,9.265750416E0
7.659651917E0,-8.463964525E-1,9.161595824E0,8.079121256E-1,9.236013588E0
7.669617917E0,-3.678559381E-1,9.493988984E0,-4.239465237E-1,9.510566517E0
7.679583917E0,3.195356443E-1,9.916714025E0,-1.388804934E0,1.001858769E1
7.689550917E0,4.203968252E-1,1.015488398E1,-2.539526449E0,1.047604872E1
7.699516917E0,1.023439617E-1,1.038138991E1,-3.341403079E0,1.090636078E1
7.709483917E0,-1.505438760E-1,1.013173252E1,-3.725885575E0,1.079615165E1
7.719449917E0,3.371447535E-1,9.783634905E0,-4.883202749E0,1.093978280E1
7.729415917E0,2.526213509E-1,9.673517216E0,-6.115028654E0,1.144702268E1
7.739382917E0,2.262824218E-1,9.206419995E0,-4.812269007E0,1.039073173E1
7.749348917E0,8.802613328E-1,8.062494698E0,-3.717212985E0,8.921678830E0
7.759315917E0,1.046672213E0,5.436282107E0,-2.157519665E0,5.941681326E0
7.769281917E0,1.246446868E0,1.521468317E0,-1.504337729E0,2.476192165E0
7.779248917E0,1.587877484E0,-3.239692517E0,-1.154409939E0,3.788089864E0
7.789214917E0,2.753603832E0,-9.674893066E0,-4.847669220E-1,1.007079385E1
7.799180917E0,4.850293743E0,-1.490868200E1,-2.744700569E-1,1.568022583E1
7.809147917E0,3.489062524E0,-1.264215036E1,-3.548897374E-1,1.311958344E1
7.819113917E0,3.941111058E-1,-6.168162888E0,3.407142740E0,7.057632650E0
7.829080917E0,3.787198455E-1,-4.583861561E0,4.014850295E0,6.105263174E0
7.839046917E0,-5.138655907E-1,-6.246002777E0,3.033529049E0,6.962679586E0
7.849013917E0,-8.049154276E-1,-8.593395567E0,1.873256106E0,8.831954747E0
7.858979917E0,-7.955271381E-1,-1.194567447E1,-4.255656542E-1,1.197969566E1
7.868945917E0,-8.576289538E-1,-1.469348459E1,-2.151930896E0,1.487497305E1
7.878912917E0,-8.340740302E-1,-1.460936186E1,-1.731020247E0,1.473518119E1
7.888878917E0,-9.952580845E-1,-1.262853336E1,-2.567574520E-2,1.266771695E1
7.898845917E0,-6.227986336E-2,-1.025788736E1,9.116399771E-1,1.029850569E1
7.908811917E0,3.406260395E-1,-8.420530822E0,8.718391496E-1,8.472394522E0
7.918778917E0,-2.118873260E-1,-6.576817188E0,7.086584904E-1,6.618279038E0
7.928744917E0,-1.320715570E0,-4.694534150E0,2.081360266E0,5.302358066E0
7.938710917E0,-2.371583014E0,-3.421845564E0,3.525834201E0,5.455725421E0
7.948677917E0,-3.255052568E0,-2.523324984E0,3.988862929E0,5.733547215E0
7.958643917E0,-3.581556704E0,-2.290047977E0,3.998799688E0,5.836288813E0
7.968610917E0,-3.243925024E0,-2.964395664E0,3.864911313E0,5.852198789E0
7.978576917E0,-2.491084022E0,-3.560876564E0,4.001055543E0,5.907096323E0
7.988543917E0,-1.520569015E0,-3.630461354E0,4.026593843E0,5.630793705E0
7.998509917E0,-5.646738017E-1,-3.994055842E0,3.484429482E0,5.330345897E0
8.008475917E0,-1.621988386E-1,-4.804981037E0,3.504614071E0,5.949493341E0
8.018442917E0,-3.970247734E-1,-5.238173178E0,2.877265719E0,5.989552983E0
8.028408917E0,-9.886603788E-1,-5.376697810E0,1.736846851E0,5.736110675E0
8.038375917E0,-1.723081774E0,-5.600239204E0,1.937141030E0,6.171240176E0
8.048341917E0,-2.233874946E0,-5.556393857E0,2.001670318E0,6.314300755E0
8.058308917E0,-2.519023480E0,-5.410242117E0,2.054989908E0,6.311828782E0
8.068274917E0,-2.532060432E0,-5.630112044E0,2.524190372E0,6.669409921E0
8.078240917E0,-2.122642193E0,-6.467987641E0,3.096625768E0,7.478607167E0
8.088207917E0,-1.535067771E0,-7.627511555E0,3.724264727E0,8.625863049E0
8.098173917E0,-1.268601675E0,-8.895529386E0,3.977841513E0,9.826648277E0
8.108140917E0,-1.381527489E0,-9.811813806E0,4.201907401E0,1.076272894E1
8.118106917E0,-1.554110106E0,-1.023845590E1,5.057992398E0,1.152495225E1
8.128073917E0,-1.533955631E0,-9.907048577E0,5.500197437E0,1.143480665E1
8.138039917E0,-1.041307539E0,-9.238809476E0,4.482793608E0,1.032159680E1
8.148005292E0,-7.242636126E-1,-8.893064784E0,2.450472186E0,9.252889979E0
8.157972292E0,-9.797015673E-1,-8.882360287E0,1.172825160E0,9.012860716E0
8.167938292E0,-1.998753142E0,-8.387802787E0,-8.825342917E-1,8.667705376E0
8.177905292E0,-1.618383577E0,-7.385194752E0,-2.241976848E0,7.885856144E0
8.187871292E0,1.933674216E-3,-6.023263621E0,-2.536992266E0,6.535750772E0
8.197838292E0,9.099510819E-1,-4.367843195E0,-2.636539943E0,5.182413340E0
8.207804292E0,1.687135139E0,-2.244074244E0,-2.445551169E0,3.723306959E0
8.217770292E0,1.539616905E0,3.793229127E-1,-2.141201255E0,2.664404042E0
8.227737292E0,7.751012059E-1,3.657003620E0,-2.030179002E0,4.253949240E0
8.237703292E0,1.919359136E-1,6.985527037E0,-2.577422254E0,7.448324165E0
8.247670292E0,1.228664023E0,1.045137641E1,-3.582918813E0,1.111657282E1
8.257636292E0,2.837314618E0,1.377233645E1,-4.637615014E0,1.480658903E1
8.267603292E0,3.725879143E0,1.636554970E1,-5.600159097E0,1.769393043E1
8.277569292E0,3.085908114E0,1.696363566E1,-6.566479311E0,1.845010607E1
8.287535292E0,2.494211990E0,1.488800040E1,-6.310133868E0,1.636127864E1
8.297502292E0,2.715466245E0,1.183240221E1,-4.445139878E0,1.292821594E1
8.307468292E0,2.209280972E0,9.528325004E0,-2.361206253E0,1.006206712E1
8.317435292E0,1.565226540E0,8.231840004E0,-6.880991685E-1,8.407532601E0
8.327401292E0,1.119454334E0,7.468795903E0,5.388467232E-1,7.571422986E0
8.337368292E0,5.219988484E-1,7.561146827E0,1.139597699E0,7.664339962E0
8.347334292E0,-9.174566410E-2,8.527257711E0,1.462110307E0,8.652185151E0
8.357300292E0,-5.176097821E-1,9.805628622E0,1.828966956E0,9.988162628E0
8.367267292E0,-9.361701431E-1,1.056032992E1,2.116791469E0,1.081100313E1
8.377233292E0,-1.215935804E0,1.044664250E1,2.187957931E0,1.074234608E1
8.387200292E0,-1.382067772E0,9.826910148E0,2.117179724E0,1.014695641E1
8.397166292E0,-1.228704369E0,9.156213462E0,1.832968791E0,9.418372151E0
8.407133292E0,-1.150382011E0,8.743904067E0,1.643010296E0,8.970993253E0
8.417099292E0,-1.053161015E0,8.575393159E0,1.436426997E0,8.758415295E0
8.427065292E0,-1.049434146E0,8.613474905E0,1.213818966E0,8.761656148E0
8.437032292E0,-1.238418494E0,8.871823019E0,1.223166325E0,9.040965652E0
8.446998292E0,-1.346342454E0,9.083851830E0,9.293073392E-1,9.229984518E0
8.456965292E0,-1.132592004E0,8.942793015E0,3.906174675E-1,9.022687712E0
8.466931292E0,-6.412091768E-1,8.144557446E0,7.357551455E-2,8.170090487E0
8.476898292E0,2.072029571E-1,6.964872333E0,-1.187662324E-1,6.968965856E0
8.486864292E0,1.139838605E0,5.991613228E0,-4.081192072E-1,6.112709907E0
8.496830292E0,1.586673542E0,5.742756899E0,-6.561708860E-1,5.993942773E0
8.506797292E0,1.706588679E0,6.805832745E0,-1.191747919E0,7.117026582E0
8.516763292E0,1.043676246E0,8.969815922E0,-1.550557630E0,9.162482564E0
8.526730292E0,2.456181407E-1,1.134034731E1,-1.184942930E0,1.140473126E1
8.536696292E0,-7.014816910E-1,1.259701804E1,-1.186943262E0,1.267224425E1
8.546663292E0,-1.896177192E0,1.188585511E1,-2.176832433E0,1.223142016E1
8.556629292E0,-2.456356823E0,8.888582309E0,-2.328742511E0,9.511236828E0
8.566595292E0,-2.284790161E0,4.039959408E0,-7.394704664E-1,4.699824961E0
8.576562292E0,-1.270706965E0,-2.289105406E0,-3.886556536E-1,2.646838296E0
8.586528292E0,-6.237800887E-1,-1.024729572E1,-2.626516646E0,1.059692223E1
8.596495292E0,-2.383580039E0,-1.587229262E1,-4.726979181E0,1.673186956E1
8.606461292E0,-1.913292869E0,-1.305286112E1,7.830825821E-1,1.321556247E1
8.616428292E0,2.302514825E0,-9.958304100E0,4.874360590E0,1.132381500E1
8.626394292E0,3.574171671E0,-1.196376224E1,4.344761165E-1,1.249380165E1
8.636360292E0,4.368624383E0,-1.356914571E1,-1.684219133E0,1.435420455E1
8.646327292E0,4.551877876E0,-1.304093280E1,-2.039431198E0,1.396226343E1
8.656293292E0,3.782232853E0,-1.037849905E1,-2.270863262E0,1.127720479E1
8.666260292E0,2.453236164E0,-7.620446949E0,-9.243956050E-1,8.058789401E0
8.676226292E0,-1.470970301E0,-6.741285916E0,1.195609421E0,7.002725992E0
8.686193292E0,-4.358965660E0,-7.342775542E0,1.573626065E0,8.682927690E0
8.696159292E0,-4.998740807E0,-6.663823172E0,3.148614532E0,8.905488330E0
8.706125292E0,-5.097676281E0,-5.359751995E0,4.454242823E0,8.634438258E0
8.716092292E0,-4.681077661E0,-3.943852233E0,4.904994153E0,7.843814514E0
8.726058292E0,-4.109770485E0,-3.150769815E0,4.114813124E0,6.614321652E0
8.736025292E0,-3.192297033E0,-3.015909634E0,3.171634435E0,5.417170503E0
8.745991292E0,-1.579651329E0,-3.389367204E0,2.782687005E0,4.661164590E0
8.755958292E0,-6.873844195E-2,-4.288071971E0,2.654830034E0,5.043848601E0
8.765924292E0,1.232475531E0,-5.081523932E0,2.984782566E0,6.020781376E0
8.775890292E0,2.062763781E0,-5.168867885E0,2.842514547E0,6.249166231E0
8.785857292E0,1.993366394E0,-4.939752926E0,2.314308075E0,5.807812877E0
8.795823292E0,1.433847206E0,-4.936994210E0,2.651486596E0,5.784480167E0
8.805790292E0,4.490117830E-1,-4.676513616E0,3.341375012E0,5.765082667E0
8.815756292E0,-7.200012848E-1,-4.292061526E0,3.631550691E0,5.668187930E0
8.825723292E0,-1.866871532E0,-4.470554216E0,3.655756994E0,6.069235826E0
8.835689292E0,-2.801864703E0,-5.134146534E0,3.265319694E0,6.698672940E0
8.845655292E0,-3.130615340E0,-6.252097329E0,3.056910895E0,7.631132134E0
8.855622292E0,-2.919931389E0,-7.128565720E0,2.979578544E0,8.259560330E0
8.865588292E0,-2.927676611E0,-7.990910745E0,3.136785614E0,9.070025847E0
8.875555292E0,-3.179833986E0,-8.686646377E0,2.886541157E0,9.690267763E0
8.885521292E0,-2.862045709E0,-8.882997048E0,2.141859067E0,9.575306912E0
8.895488292E0,-1.663172372E0,-9.282753056E0,2.117441679E0,9.665361137E0
8.905454292E0,-6.775782734E-1,-8.970181373E0,1.784693009E0,9.171062933E0
8.915420292E0,-9.074791715E-1,-8.301770364E0,1.562812225E0,8.496192775E0
8.925387292E0,-1.103612034E0,-7.842275108E0,1.694027837E0,8.098701668E0
8.935353292E0,-1.045043252E0,-7.560365639E0,1.859682380E0,7.855549793E0
8.945320292E0,-1.127960132E0,-7.247907391E0,1.927453948E0,7.584163390E0
8.955286292E0,-1.320862335E0,-6.889722163E0,1.577719116E0,7.190420461E0
8.965253292E0,-1.190769899E0,-6.477242614E0,1.202704432E0,6.694707072E0
8.975219292E0,-9.281560224E-1,-5.786927351E0,5.293542802E-1,5.884744491E0
8.985185292E0,7.364706986E-2,-4.898220738E0,-5.416708553E-1,4.928630399E0
8.995152292E0,1.814331375E0,-3.797978820E0,-1.448811400E0,4.451459977E0
9.005118292E0,3.300569049E0,-2.273186946E0,-1.660872370E0,4.338159975E0
9.015085292E0,3.847936261E0,-1.448290998E-1,-1.554000471E0,4.152409710E0
9.025051292E0,3.375456971E0,2.514659411E0,-7.244548166E-1,4.271072054E0
9.035018292E0,1.666205615E0,5.464646366E0,-3.038015179E-1,5.721092240E0
9.044984292E0,-6.441184589E-1,8.303456116E0,-1.041269825E0,8.393242217E0
9.054950292E0,-2.119015750E0,1.070491986E1,-2.061646378E0,1.110567075E1
9.064917292E0,-2.010589660E0,1.259532585E1,-2.538397937E0,1.300492861E1
9.074883292E0,-3.987689247E-1,1.381849788E1,-2.844541776E0,1.411386971E1
9.084850292E0,1.329002536E0,1.375600518E1,-3.370737391E0,1.422518178E1
9.094816292E0,2.051228102E0,1.226739997E1,-3.596828170E0,1.294734766E1
9.104783292E0,1.862534652E0,1.059290241E1,-3.156018276E0,1.120888345E1
9.114749292E0,1.828826038E0,9.397111146E0,-2.103624709E0,9.801813071E0
9.124715292E0,2.262294460E0,8.284757305E0,-9.577294850E-1,8.641320825E0
9.134682292E0,2.166001782E0,7.530916722E0,4.519795373E-2,7.836345656E0
9.144648333E0,1.474765290E0,7.314514779E0,7.499979396E-1,7.499303702E0
9.154615333E0,4.069004282E-1,7.369773306E0,1.552173800E0,7.542437938E0
9.164581333E0,-5.279110412E-1,7.690220604E0,2.267992426E0,8.035046524E0
9.174547333E0,-1.155896886E0,8.274234656E0,2.542763468E0,8.732966438E0
9.184514333E0,-1.343771287E0,8.830864443E0,2.413203349E0,9.252753022E0
9.194480333E0,-1.323355003E0,9.122542271E0,1.896004114E0,9.410997692E0
9.204447333E0,-1.215087665E0,9.464131932E0,1.101917438E0,9.605230517E0
9.214413333E0,-1.207961079E0,9.801306360E0,4.466138399E-1,9.885557154E0
9.224380333E0,-1.180861135E0,9.999162104E0,1.798955829E-1,1.007025512E1
9.234346333E0,-1.089703335E0,9.875967118E0,-8.496340558E-2,9.936266836E0
9.244312333E0,-1.038519879E0,9.644704476E0,-5.041913724E-1,9.713550170E0
9.254279333E0,-1.020644795E0,9.600652723E0,-8.557609145E-1,9.692604152E0
9.264245333E0,-9.127585495E-1,9.696067003E0,-1.209374936E0,9.813736864E0
9.274212333E0,-1.117146949E0,9.718220349E0,-1.654661604E0,9.921175791E0
9.284178333E0,-1.466036566E0,9.748955069E0,-1.996903667E0,1.005877788E1
9.294145333E0,-1.554871852E0,9.676583496E0,-2.349324710E0,1.007835409E1
9.304111333E0,-1.356640570E0,9.833448504E0,-2.820686306E0,1.031956658E1
9.314077333E0,-8.761850926E-1,9.990257964E0,-2.972357233E0,1.045982132E1
9.324044333E0,-3.434462978E-1,9.783736646E0,-3.015906125E0,1.024378582E1
9.334010333E0,-9.535941879E-1,8.528295591E0,-3.219552952E0,9.165516286E0
9.343977333E0,-4.996024776E-1,6.475957396E0,-4.032741605E0,7.645301281E0
9.353943333E0,9.610821323E-1,3.684854493E0,-3.643568473E0,5.270429083E0
9.363910333E0,1.996133589E0,-7.960902250E-1,-7.491335750E-2,2.150330431E0
9.373876333E0,2.818884194E0,-7.358195234E0,4.132627251E0,8.897626268E0
9.383842333E0,3.768479033E0,-1.423696205E1,4.193326027E0,1.531262570E1
9.393809333E0,3.952993770E0,-1.686938790E1,3.257928228E-1,1.732941282E1
9.403775333E0,1.663853427E0,-1.169512128E1,3.141673521E-1,1.181706271E1
9.413742333E0,2.294212072E-1,-5.411329114E0,5.583646925E-1,5.444895592E0
9.423708333E0,-1.512660656E0,-3.302932493E0,-9.136332929E-1,3.745961974E0
9.433675333E0,-2.871125850E0,-3.891981583E0,-1.198174009E0,4.982620319E0
9.443641333E0,-3.004506978E0,-5.907599849E0,-1.434768727E0,6.781250582E0
9.453607333E0,-1.848425905E0,-9.545583061E0,-5.936455858E-1,9.741008643E0
9.463574333E0,-3.632250164E-1,-1.249709263E1,-9.474278605E-1,1.253821663E1
9.473540333E0,6.540319014E-1,-1.305593559E1,-4.946300054E-1,1.308166162E1
9.483507333E0,9.978454044E-1,-1.189653564E1,1.151962295E0,1.199375974E1
9.493473333E0,7.119244527E-1,-1.030677593E1,2.429359059E0,1.061311698E1
9.503440333E0,5.791147432E-1,-8.606450061E0,3.589534353E0,9.342971337E0
9.513406333E0,8.755088621E-1,-6.350743951E0,3.775761155E0,7.440083117E0
9.523372333E0,7.221939906E-1,-4.795147190E0,3.282328659E0,5.855653863E0
9.533339333E0,1.518615826E-1,-4.233877637E0,3.078769541E0,5.237136973E0
9.543305333E0,-1.996979097E-1,-4.101128300E0,3.129593539E0,5.162701649E0
9.553272333E0,-5.336841800E-1,-4.119169300E0,2.582850809E0,4.891164772E0
9.563238333E0,-1.294863275E0,-3.966852255E0,1.626737494E0,4.478712158E0
9.573205333E0,-1.755706899E0,-3.853256058E0,1.335487683E0,4.440001837E0
9.583171333E0,-1.679401904E0,-3.989244753E0,1.380055161E0,4.543018457E0
9.593138333E0,-1.322675264E0,-4.270280063E0,1.187558389E0,4.625479067E0
9.603104333E0,-8.525801754E-1,-4.831965938E0,1.066412852E0,5.021157650E0
9.613070333E0,-5.707516900E-1,-5.363171446E0,9.077813995E-1,5.469317373E0
9.623037333E0,-6.829246750E-1,-5.392586449E0,9.559940314E-1,5.519085007E0
9.633003333E0,-9.514630240E-1,-4.959014239E0,1.402600855E0,5.240648173E0
9.642970333E0,-1.102651848E0,-4.638248852E0,1.918143427E0,5.138916979E0
9.652936333E0,-1.033329598E0,-4.684923667E0,2.181789118E0,5.270339987E0
9.662903333E0,-5.574223406E-1,-4.998854828E0,2.352692122E0,5.552875784E0
9.672869333E0,-7.043665610E-2,-5.779084480E0,2.776524625E0,6.411853690E0
9.682835333E0,8.375548046E-2,-6.846270334E0,3.192856904E0,7.554652055E0
9.692802333E0,-1.690946793E-1,-7.915629598E0,3.657542149E0,8.721433340E0
9.702768333E0,-5.499952804E-1,-8.791698039E0,4.037174964E0,9.689955155E0
9.712735333E0,-8.627912412E-1,-9.238482032E0,4.008430052E0,1.010749576E1
9.722701333E0,-1.108900840E0,-9.543975661E0,3.499820523E0,1.022574575E1
9.732668333E0,-1.406677533E0,-9.909807293E0,2.721149154E0,1.037244788E1
9.742634333E0,-1.700987193E0,-9.987982228E0,2.036819100E0,1.033449459E1
9.752600333E0,-2.074669297E0,-9.430763626E0,7.201886880E-1,9.683089745E0
9.762567333E0,-2.200044418E0,-8.551534181E0,-4.491258037E-1,8.841416531E0
9.772533333E0,-1.758560925E0,-7.357485967E0,-5.712671951E-1,7.586269339E0
9.782500333E0,-4.310962797E-1,-5.583174689E0,-7.500082453E-1,5.649796101E0
9.792466333E0,3.999231651E-1,-3.481098323E0,-1.699006741E0,3.894176162E0
9.802433333E0,1.110021240E0,-1.063114437E0,-1.976492207E0,2.503773333E0
9.812399333E0,1.658432473E0,2.278722505E0,-1.137289219E0,3.039144829E0
9.822365333E0,1.534944102E0,6.277771869E0,-7.044023752E-2,6.463082458E0
9.832332333E0,5.092191008E-1,9.966855068E0,-6.909420848E-1,1.000374455E1
9.842298333E0,1.041127445E-1,1.348325830E1,-2.532777593E0,1.371947725E1
9.852265333E0,7.623269400E-1,1.598021468E1,-5.517573023E0,1.692312074E1
9.862231333E0,1.188102692E0,1.662240618E1,-7.462209599E0,1.825925923E1
9.872198333E0,2.778674646E0,1.593025723E1,-7.002227855E0,1.762172873E1
9.882164333E0,2.974911004E0,1.379373726E1,-5.424617497E0,1.511766378E1
9.892131333E0,2.139208232E0,1.159060580E1,-2.892978941E0,1.213621366E1
9.902097333E0,1.571120387E0,9.836068057E0,-8.166091280E-1,9.994173530E0
9.912063333E0,1.295872797E0,8.363544443E0,-9.721566126E-2,8.463900569E0
9.922030333E0,5.660903627E-1,7.443323677E0,1.098063245E-1,7.465626771E0
9.931996333E0,-3.280988185E-1,7.118321983E0,1.096971424E0,7.209819900E0
9.941963333E0,-1.276852097E0,7.192459415E0,2.412956596E0,7.693125713E0
9.951929333E0,-1.914182084E0,7.674582226E0,3.279293954E0,8.562539006E0
9.961896333E0,-2.038713598E0,8.210206475E0,3.596816475E0,9.192438864E0
9.971862333E0,-1.800752094E0,8.532119086E0,3.338480641E0,9.337302458E0
9.981828333E0,-1.708875672E0,8.779448122E0,2.829190496E0,9.381006569E0
9.991795333E0,-1.644790188E0,9.095007733E0,2.076854109E0,9.473004983E0
1.000176133E1,-1.261341480E0,9.273031476E0,1.510136998E0,9.479483574E0
1.001172833E1,-1.106883332E0,9.324673499E0,1.261381387E0,9.474482022E0
1.002169433E1,-1.183532143E0,9.481042079E0,1.097888267E0,9.617497902E0
1.003166133E1,-1.106767118E0,9.710645281E0,5.755613172E-1,9.790446162E0
1.004162733E1,-9.196788754E-1,9.941750633E0,6.636692092E-2,9.984418833E0
1.005159433E1,-1.122627837E0,1.018919895E1,-1.320299833E-1,1.025170720E1
1.006156033E1,-1.648481974E0,1.035542594E1,-4.479296096E-1,1.049537899E1
1.007152633E1,-1.909600206E0,1.031969243E1,-7.659079210E-1,1.052279620E1
1.008149333E1,-1.902931457E0,1.007188743E1,-8.552159540E-1,1.028569195E1
1.009145933E1,-1.417622936E0,9.810413983E0,-9.377784929E-1,9.956570986E0
1.010142633E1,-6.941400732E-1,9.723375254E0,-1.208279021E0,9.822718309E0
1.011139233E1,6.580895036E-2,9.702883102E0,-1.650501456E0,9.842480702E0
1.012135933E1,-1.529748559E-1,8.812949159E0,-2.591590935E0,9.187372734E0
1.013132533E1,-1.992747174E-1,6.448339827E0,-2.440056979E0,6.897439742E0
1.014129129E1,6.494593057E-1,1.994051396E0,-1.505728197E-1,2.102548580E0
1.015125829E1,1.613415345E0,-5.283044711E0,3.762620122E0,6.683635289E0
1.016122429E1,4.334112362E0,-1.494528557E1,4.149771287E0,1.610486549E1
1.017119129E1,7.530210378E0,-2.199426425E1,-3.766914318E0,2.355082529E1
1.018115729E1,4.081061241E0,-1.618953798E1,-7.112394075E0,1.814779189E1
1.019112429E1,-1.003878488E0,-4.651513261E0,8.313126826E-1,4.830675772E0
1.020109029E1,-4.635326122E-1,-3.326019055E0,2.241159407E0,4.037333368E0
1.021105729E1,7.039166178E-1,-6.615901147E0,1.112464353E0,6.745607721E0
1.022102329E1,2.175741051E0,-8.417159902E0,-7.913434553E-1,8.729756835E0
1.023098929E1,2.668773012E0,-1.067390155E1,-6.244194818E-1,1.102018255E1
1.024095629E1,2.907673871E0,-1.286044329E1,9.406532764E-2,1.318538650E1
1.025092229E1,1.128030153E0,-1.201596619E1,-1.585058541E0,1.217244043E1
1.026088929E1,-1.401036724E0,-8.674657831E0,-1.998649061E0,9.011503230E0
1.027085529E1,-3.307259140E0,-7.363947140E0,-6.240616322E-2,8.072767495E0
1.028082229E1,-4.172367268E0,-6.091144533E0,2.200903483E-1,7.386415240E0
1.029078829E1,-3.818620661E0,-4.027686102E0,3.857922721E-1,5.563537972E0
1.030075429E1,-3.498403743E0,-3.172630801E0,1.249501453E0,4.885250129E0
1.031072129E1,-3.037494338E0,-3.171578302E0,1.447017474E0,4.623758249E0
1.032068729E1,-1.997346302E0,-2.774721344E0,1.410149610E0,3.698241840E0
1.033065429E1,-6.794374687E-1,-2.213216148E0,1.324642852E0,2.667328191E0
1.034062029E1,6.177780680E-2,-1.965929797E0,1.633702698E0,2.556888924E0
1.035058729E1,3.024974426E-1,-2.075705423E0,2.186908940E0,3.030285204E0
1.036055329E1,2.633149947E-1,-2.359140431E0,2.235753071E0,3.260900207E0
1.037052029E1,7.534663618E-2,-2.626526002E0,2.056364003E0,3.336607389E0
1.038048629E1,-2.214156380E-1,-2.821517780E0,2.178022926E0,3.571242268E0
1.039045229E1,-6.607026243E-1,-3.073887116E0,2.497197286E0,4.015134399E0
1.040041929E1,-9.768299997E-1,-2.943446259E0,2.384916712E0,3.912275611E0
1.041038529E1,-1.439623962E0,-2.721642074E0,2.641881959E0,4.057017749E0
1.042035229E1,-2.095381596E0,-2.539023004E0,3.054000735E0,4.490454581E0
1.043031829E1,-2.719554033E0,-2.817867363E0,3.245929742E0,5.086492948E0
1.044028529E1,-2.794631990E0,-3.751333827E0,3.381352426E0,5.772002916E0
1.045025129E1,-2.226459214E0,-5.162568095E0,3.749634626E0,6.757883530E0
1.046021729E1,-1.246107144E0,-6.280033572E0,3.879718217E0,7.486241923E0
1.047018429E1,-4.729531709E-1,-6.689082559E0,3.377881519E0,7.508501431E0
1.048015029E1,-4.426503413E-1,-7.312184079E0,3.096172024E0,7.953002988E0
1.049011729E1,-7.455009922E-1,-7.738060768E0,2.377572609E0,8.129342390E0
1.050008329E1,-1.100431075E0,-8.049191698E0,1.505903614E0,8.262456126E0
1.051005029E1,-1.213700413E0,-8.480810938E0,8.445379881E-1,8.608743652E0
1.052001629E1,-8.088155204E-1,-9.262836270E0,1.540776408E0,9.424877201E0
1.052998229E1,-3.996832100E-1,-9.827850380E0,1.975428014E0,1.003238285E1
1.053994929E1,8.433501262E-2,-1.012822536E1,2.071918766E0,1.033832233E1
1.054991529E1,7.130302343E-1,-9.865604682E0,1.382755405E0,9.987521232E0
1.055988229E1,1.134895442E0,-9.238451042E0,3.913447881E-1,9.316121299E0
1.056984829E1,9.112385657E-1,-8.480798074E0,-6.633432269E-2,8.529870570E0
1.057981529E1,1.762310452E0,-7.119058147E0,-1.176546328E0,7.427717569E0
1.058978129E1,2.181235387E0,-5.569290476E0,-2.706977842E0,6.565250433E0
1.059974829E1,2.567184072E0,-4.031879141E0,-3.348713268E0,5.836125771E0
1.060971429E1,2.547737110E0,-2.255193309E0,-3.066451796E0,4.580391671E0
1.061968029E1,1.618487658E0,-2.949195242E-1,-2.085776668E0,2.656490943E0
1.062964729E1,3.946330429E-1,2.179861876E0,-4.472220234E-1,2.259986853E0
1.063961329E1,-7.240076508E-1,5.218163422E0,6.910602716E-1,5.313283436E0
1.064958029E1,-9.730452432E-1,8.435294457E0,2.160547645E-1,8.493979591E0
1.065954629E1,-8.179491636E-1,1.107542634E1,-1.263109678E0,1.117718907E1
1.066951329E1,1.476450311E0,1.428605294E1,-3.289421332E0,1.473402548E1
1.067947929E1,3.375463110E0,1.589006464E1,-6.927533183E0,1.766008555E1
1.068944529E1,3.619256920E0,1.542944088E1,-7.395705707E0,1.748894306E1
1.069941229E1,2.359404725E0,1.397583008E1,-5.738134675E0,1.529106951E1
1.070937829E1,5.983267935E-1,1.201707131E1,-2.988683828E0,1.239758964E1
1.071934529E1,5.242115810E-1,9.437766836E0,-4.009972986E-1,9.460816005E0
1.072931129E1,4.043889760E-1,6.928678068E0,1.671496761E0,7.138908294E0
1.073927829E1,-1.617328886E-1,5.414181971E0,2.542519054E0,5.983638282E0
1.074924429E1,-1.298809853E-1,5.226213284E0,2.104590669E0,5.635554652E0
1.075921029E1,-1.545788202E-1,6.155358655E0,1.837103941E0,6.425518319E0
1.076917729E1,-5.446076193E-1,7.865296766E0,1.814655311E0,8.090269746E0
1.077914329E1,-1.107513515E0,9.595724105E0,1.771956604E0,9.820607796E0
1.078911029E1,-1.286776868E0,1.052412279E1,1.957308662E0,1.078165165E1
1.079907629E1,-1.252351386E0,1.073592999E1,2.435192242E0,1.107965423E1
1.080904329E1,-1.238456063E0,1.058373047E1,2.485047941E0,1.094187312E1
1.081900929E1,-1.268080688E0,1.024769801E1,2.062093105E0,1.052974696E1
1.082897529E1,-1.162397309E0,1.001638098E1,1.633995059E0,1.021513560E1
1.083894229E1,-1.180008318E0,9.951984429E0,1.016517318E0,1.007311874E1
1.084890829E1,-1.209868806E0,1.002700655E1,2.366883460E-1,1.010250782E1
1.085887529E1,-1.281670495E0,1.011166721E1,-3.903706419E-1,1.020004325E1
1.086884129E1,-1.507643160E0,1.017724257E1,-9.917953634E-1,1.033600078E1
1.087880829E1,-1.669684416E0,1.028220009E1,-1.429807949E0,1.051455351E1
1.088877429E1,-1.688339081E0,1.039785450E1,-1.439783153E0,1.063197266E1
1.089874029E1,-1.233155562E0,1.065511094E1,-1.632933204E0,1.084981717E1
1.090870729E1,-4.774713510E-1,1.092670125E1,-2.267322189E0,1.116967004E1
1.091867329E1,2.551262250E-1,1.085005594E1,-1.978599544E0,1.103193816E1
1.092864029E1,6.057023983E-1,9.912974145E0,-1.948749508E0,1.012084762E1
1.093860629E1,5.274412175E-1,8.331102337E0,-2.222514975E0,8.638578193E0
1.094857329E1,3.437376353E-1,5.839946394E0,-2.285636837E0,6.280705788E0
1.095853929E1,1.244942233E0,1.761133407E0,-1.287952158E0,2.512029618E0
1.096850529E1,2.676632839E0,-4.269477825E0,4.132847837E-1,5.056046733E0
1.097847229E1,5.002969514E0,-1.268865911E1,-4.124239274E-1,1.364558051E1
1.098843829E1,5.744538546E0,-2.005122982E1,-4.786362333E0,2.140001880E1
1.099840529E1,2.926575581E0,-1.545954000E1,-4.679086976E0,1.641511732E1
1.100837129E1,-1.417965583E0,-4.391732579E0,2.139065852E0,5.086604385E0
1.101833829E1,-1.280989002E0,-3.302120315E0,1.294077702E0,3.770884312E0
1.102830429E1,-6.703075531E-1,-6.225707091E0,-3.359880280E-1,6.270696050E0
1.103827029E1,8.931360977E-1,-7.604247823E0,8.507020497E-1,7.703633624E0
1.104823729E1,1.940550542E0,-9.960055926E0,2.491284581E0,1.044868170E1
1.105820329E1,5.632432073E-1,-1.294779134E1,8.814022708E-1,1.298997357E1
1.106817029E1,-2.295059626E0,-1.289025473E1,-6.016083241E-2,1.309311212E1
1.107813629E1,-3.574777443E0,-1.057917315E1,1.207043066E0,1.123186945E1
1.108810329E1,-4.404202936E0,-8.465859023E0,2.281646698E0,9.811915417E0
1.109806929E1,-4.764647236E0,-6.731963115E0,3.044373879E0,8.791439188E0
1.110803529E1,-3.583880680E0,-5.154118869E0,3.712328221E0,7.293183315E0
1.111800229E1,-2.435586636E0,-4.055501892E0,3.434771419E0,5.846095497E0
1.112796829E1,-1.726576948E0,-3.293660563E0,3.584578253E0,5.165120436E0
1.113793529E1,-1.271063061E0,-3.569176687E0,3.812218544E0,5.374721738E0
1.114790167E1,-1.261556658E0,-4.553812720E0,3.257661595E0,5.739433296E0
1.115786867E1,-1.392211522E0,-5.078222010E0,2.534082692E0,5.843643280E0
1.116783467E1,-1.068622807E0,-4.573123149E0,1.804364212E0,5.031017815E0
1.117780067E1,-8.056905491E-1,-3.859959306E0,1.279204724E0,4.145453875E0
1.118776767E1,-5.308500711E-1,-3.442976816E0,1.093071477E0,3.651122623E0
1.119773367E1,-2.292509070E-1,-3.147560863E0,1.189749341E0,3.372713872E0
1.120770067E1,-1.152592551E-1,-3.346112427E0,1.808300557E0,3.805220621E0
1.121766667E1,-2.492691787E-1,-3.896264668E0,2.306245934E0,4.534510315E0
1.122763367E1,-7.742140371E-1,-4.306750901E0,2.424883600E0,5.002756358E0
1.123759967E1,-1.348882484E0,-5.069824823E0,3.215255249E0,6.153086543E0
1.124756567E1,-1.756692447E0,-5.868526415E0,3.972979553E0,7.301379127E0
1.125753267E1,-2.088846163E0,-6.575291065E0,4.289246092E0,8.123753007E0
1.126749867E1,-2.128123958E0,-6.773085998E0,3.737463062E0,8.023230999E0
1.127746567E1,-2.301288080E0,-7.868727327E0,3.606153309E0,8.956402082E0
1.128743167E1,-2.361105973E0,-9.644878138E0,3.754906476E0,1.061592287E1
1.129739867E1,-2.135796089E0,-1.064083906E1,3.419542930E0,1.137903136E1
1.130736467E1,-2.108041988E0,-1.124527977E1,2.783213840E0,1.177482218E1
1.131733067E1,-1.816011573E0,-1.167770944E1,2.362838795E0,1.205196262E1
1.132729767E1,-1.270855777E0,-1.152397210E1,2.129667038E0,1.178781104E1
1.133726367E1,-7.674390876E-1,-1.094518663E1,1.911899185E0,1.113738891E1
1.134723067E1,-3.507471313E-1,-9.965870397E0,1.714967301E0,1.011843413E1
1.135719667E1,-1.092004068E-3,-9.088136085E0,1.424864713E0,9.199155295E0
1.136716367E1,3.423481176E-1,-7.958548161E0,4.364969508E-1,7.977858149E0
1.137712967E1,6.658148450E-1,-6.406770802E0,-4.536164653E-1,6.457227688E0
1.138709567E1,9.919801354E-1,-4.680567491E0,-1.245265145E0,4.943927782E0
1.139706267E1,1.492785678E0,-2.775821205E0,-1.823274107E0,3.641142803E0
1.140702867E1,1.594452678E0,-7.548305172E-1,-2.405193686E0,2.982784793E0
1.141699567E1,1.675512044E0,1.548315808E0,-2.617541170E0,3.472195880E0
1.142696167E1,1.873347615E0,4.302196505E0,-2.651207099E0,5.389547767E0
1.143692867E1,1.836427711E0,7.284457752E0,-3.313276802E0,8.210578216E0
1.144689467E1,1.814752960E0,1.052667217E1,-4.750744604E0,1.169075402E1
1.145686067E1,2.478321304E0,1.410215450E1,-5.977295151E0,1.551582725E1
1.146682767E1,3.411343380E0,1.653348407E1,-6.266514809E0,1.800729205E1
1.147679367E1,3.960576147E0,1.660043936E1,-5.594309542E0,1.795987332E1
1.148676067E1,4.021822222E0,1.454954836E1,-4.850574117E0,1.585536126E1
1.149672667E1,3.561700145E0,1.131287125E1,-4.045502568E0,1.253127507E1
1.150669367E1,2.987537774E0,8.946149901E0,-2.319209211E0,9.712760234E0
1.151665967E1,1.758199275E0,7.728019930E0,-8.652217826E-1,7.972588379E0
1.152662667E1,8.130341403E-2,7.222351550E0,-2.694103881E-1,7.227831910E0
1.153659267E1,-1.247885867E0,7.302028635E0,2.889332179E-1,7.413523030E0
1.154655867E1,-1.880408713E0,7.980789800E0,8.850731528E-1,8.246956847E0
1.155652567E1,-2.064170036E0,8.977750593E0,1.401796278E0,9.318038230E0
1.156649167E1,-1.919808129E0,9.865819860E0,1.680476915E0,1.019039094E1
1.157645867E1,-1.474491786E0,1.053089971E1,1.902127318E0,1.080241006E1
1.158642467E1,-9.384237331E-1,1.088045679E1,1.856977458E0,1.107760553E1
1.159639167E1,-5.097842342E-1,1.061557090E1,1.724029316E0,1.076673129E1
1.160635767E1,-2.391602565E-1,9.668421367E0,1.306948593E0,9.759287064E0
1.161632367E1,-5.792795616E-1,8.926392159E0,1.066342685E0,9.008503123E0
1.162629067E1,-1.035870944E0,8.894999628E0,3.967756089E-1,8.963898587E0
1.163625667E1,-1.463905549E0,8.954242448E0,-3.551599518E-1,9.080066952E0
1.164622367E1,-2.042266074E0,8.415284700E0,-8.172781225E-1,8.698034884E0
1.165618967E1,-2.046029634E0,8.149707674E0,-1.432492990E0,8.523849400E0
1.166615667E1,-1.445725824E0,9.282002859E0,-1.440569019E0,9.503732915E0
1.167612267E1,-4.887742382E-1,1.067212985E1,-1.328279089E0,1.076557389E1
1.168608967E1,2.183636107E-1,1.151610526E1,-1.313003969E0,1.159277113E1
1.169605567E1,8.347278951E-1,1.240847691E1,-8.520281252E-1,1.246567374E1
1.170602167E1,9.743773851E-1,1.326325096E1,5.574443042E-1,1.331067171E1
1.171598867E1,1.297962738E-1,1.318888139E1,2.089384546E0,1.335398694E1
1.172595467E1,-2.103613307E-1,1.163754257E1,1.811766640E0,1.177960727E1
1.173592167E1,-3.687534857E-1,8.601658852E0,1.399818749E0,8.722614669E0
1.174588767E1,-4.731927972E-1,4.751971934E0,-4.503035791E-2,4.775685964E0
1.175585467E1,1.702112782E-1,-4.356473869E-1,-6.089056492E-2,4.716653325E-1
1.176582067E1,2.082512606E0,-9.162676975E0,4.536908419E0,1.043432059E1
1.177578767E1,4.652169611E0,-2.021512961E1,1.392102764E0,2.079019233E1
1.178575367E1,-1.251493015E0,-2.707408431E1,-1.011536031E1,2.892909937E1
1.179571967E1,-7.379915301E0,-1.676080744E1,-7.184553394E0,1.967245850E1
1.180568667E1,-3.464823476E0,-5.131114753E0,-8.902502044E-1,6.255068805E0
1.181565267E1,-1.512083536E0,-3.524264808E0,-2.169332210E0,4.406000601E0
1.182561967E1,5.795699490E-1,-4.966199298E0,-2.259378161E0,5.486695405E0
1.183558567E1,1.794016686E0,-5.788472185E0,-1.560423052E0,6.257781253E0
1.184555267E1,1.816709438E0,-6.958532197E0,-1.695945139E0,7.389034675E0
1.185551867E1,1.561386966E0,-8.643910248E0,-1.355955276E0,8.887841602E0
1.186548467E1,1.161278005E0,-8.935067673E0,1.496808854E0,9.133697919E0
1.187545167E1,7.354487514E-1,-7.869572250E0,3.488616089E0,8.639530917E0
1.188541767E1,5.599561950E-1,-6.077059759E0,2.968526137E0,6.786483160E0
1.189538467E1,3.082572424E-1,-4.151488615E0,2.896701279E0,5.071563718E0
1.190535067E1,2.273596251E-1,-3.365624585E0,2.914909508E0,4.458230444E0
1.191531767E1,-1.761503317E-1,-3.069833241E0,2.237500219E0,3.802803216E0
1.192528367E1,-1.246888332E0,-2.825524877E0,1.426292603E0,3.401857130E0
1.193525067E1,-1.997860272E0,-2.632639266E0,1.170982118E0,3.506199408E0
1.194521667E1,-2.374704550E0,-2.682354632E0,8.261145079E-1,3.676508296E0
1.195518267E1,-2.477636011E0,-2.584974518E0,6.327248669E-1,3.636085012E0
1.196514967E1,-2.306113787E0,-2.488425293E0,3.935410023E-1,3.415449569E0
1.197511567E1,-2.073705091E0,-2.842630906E0,4.910655427E-1,3.552738189E0
1.198508267E1,-1.735818764E0,-3.109180325E0,1.010466692E0,3.701501318E0
1.199504867E1,-1.272438034E0,-3.120471883E0,1.596643045E0,3.729036381E0
1.200501567E1,-1.018294360E0,-3.315303447E0,1.767178259E0,3.892438741E0
1.201498167E1,-1.028270002E0,-3.619362754E0,1.593634068E0,4.086171250E0
1.202494867E1,-1.355301558E0,-4.227201287E0,1.494154218E0,4.683862707E0
1.203491467E1,-1.423613116E0,-4.746258035E0,1.509560462E0,5.180001200E0
1.204488067E1,-1.162703045E0,-4.935478612E0,1.231646980E0,5.218024701E0
1.205484767E1,-1.177211156E0,-5.539939792E0,1.066778888E0,5.763226197E0
1.206481367E1,-1.057599344E0,-6.753396084E0,1.099677662E0,6.923594876E0
1.207478067E1,-9.408263540E-1,-8.019421184E0,1.008799067E0,8.137195212E0
1.208474667E1,-6.778682953E-1,-8.959787362E0,1.004787877E0,9.041398878E0
1.209471367E1,-4.431636903E-1,-9.755726729E0,1.656979294E0,9.905361096E0
1.210467967E1,-7.792487821E-1,-1.015069504E1,1.779548628E0,1.033492292E1
1.211464667E1,-9.674057499E-1,-1.040562078E1,1.765833399E0,1.059863129E1
1.212461267E1,-5.847426152E-1,-1.056225131E1,2.350336279E0,1.083638119E1
1.213457867E1,-1.240425588E-1,-1.046197156E1,2.829322643E0,1.083851014E1
1.214454521E1,4.213854432E-2,-1.029130069E1,3.242461174E0,1.079009731E1
1.215451121E1,4.263371212E-1,-9.850928171E0,3.381849439E0,1.042398459E1
1.216447821E1,7.255292425E-1,-9.140783245E0,3.365465541E0,9.767633763E0
1.217444421E1,6.347722694E-1,-8.290268891E0,2.741786317E0,8.754934970E0
1.218441121E1,1.628545673E-1,-7.223536196E0,1.076663021E0,7.305148873E0
1.219437721E1,-4.005053650E-1,-5.732965736E0,-8.546945286E-1,5.810146592E0
1.220434421E1,-2.994575483E-1,-3.778916897E0,-1.729713979E0,4.166749115E0
1.221431021E1,-2.880212715E-1,-1.425554684E0,-2.634756542E0,3.009502359E0
1.222427621E1,-5.107643006E-1,1.102922866E0,-3.387675605E0,3.599120035E0
1.223424321E1,-2.480278148E-1,3.342279577E0,-3.210751723E0,4.641258148E0
1.224420921E1,8.584200089E-1,5.266636840E0,-2.457332139E0,5.874762102E0
1.225417621E1,1.924026018E0,7.189280283E0,-1.604263136E0,7.613231070E0
1.226414221E1,1.732386741E0,8.909298409E0,-1.498889294E0,9.199099471E0
1.227410921E1,1.073785606E0,1.035591126E1,-1.800662924E0,1.056599737E1
1.228407521E1,1.384587337E0,1.293381766E1,-2.536634417E0,1.325274445E1
1.229404121E1,1.683782053E0,1.509089411E1,-5.883571301E0,1.628455152E1
1.230400821E1,1.150472643E0,1.482645962E1,-7.826647840E0,1.680487753E1
1.231397421E1,9.696425291E-1,1.326920927E1,-6.912426317E0,1.499312372E1
1.232394121E1,-1.257013225E-1,1.055894529E1,-4.207075170E0,1.136690846E1
1.233390721E1,-5.206197095E-1,7.755338121E0,-1.002281760E0,7.837147630E0
1.234387421E1,-3.037256502E-1,5.943038653E0,1.164012529E0,6.063570142E0
1.235384021E1,4.014844447E-3,5.195351679E0,1.961866128E0,5.553432623E0
1.236380721E1,4.679023826E-1,5.339786092E0,2.324962871E0,5.842747684E0
1.237377321E1,4.475711752E-1,6.335099140E0,2.541590517E0,6.840576250E0
1.238373921E1,1.609799865E-1,7.927998798E0,2.741115056E0,8.390041195E0
1.239370621E1,-1.459614131E-1,9.491248394E0,2.453508060E0,9.804325709E0
1.240367221E1,-5.782921131E-1,1.039848483E1,1.988258998E0,1.060264507E1
1.241363921E1,-7.819409864E-1,1.069616190E1,1.852475248E0,1.088351854E1
1.242360521E1,-6.707010707E-1,1.071808896E1,1.656965261E0,1.086613109E1
1.243357221E1,-5.793782334E-1,1.035699182E1,1.529159013E0,1.048528903E1
1.244353821E1,-7.580722866E-1,9.656486616E0,1.578415081E0,9.813959523E0
1.245350421E1,-1.207883457E0,9.000515558E0,1.501035076E0,9.204421169E0
1.246347121E1,-1.673065569E0,8.596578206E0,1.301562284E0,8.854059500E0
1.247343721E1,-1.760229866E0,8.557347482E0,7.585486154E-1,8.769378605E0
1.248340421E1,-1.655740707E0,8.669403523E0,-6.990360931E-2,8.826376451E0
1.249337021E1,-1.710368612E0,8.932316558E0,-8.367413838E-1,9.133004765E0
1.250333721E1,-1.664333045E0,9.602250182E0,-1.439480413E0,9.851158150E0
1.251330321E1,-1.336276180E0,1.035150362E1,-1.624313239E0,1.056303246E1
1.252327021E1,-2.895097534E-1,1.051831767E1,-2.232003837E0,1.075642430E1
1.253323621E1,8.243615127E-1,1.030735715E1,-2.722622652E0,1.069270113E1
1.254320221E1,1.027632583E0,9.375879906E0,-6.321891888E-1,9.453190779E0
1.255316921E1,1.371208323E0,7.805572720E0,-5.160949878E-1,7.941884650E0
1.256313521E1,1.166196610E0,6.301092904E0,-1.770317044E0,6.648143256E0
1.257310221E1,1.309527361E0,2.983547049E0,-4.998797087E-1,3.296406320E0
1.258306821E1,2.689422746E0,-3.327224751E0,3.562264109E-1,4.293054449E0
1.259303521E1,4.262608516E0,-1.019548588E1,-6.319897257E-2,1.105087136E1
1.260300121E1,1.946516164E0,-1.473392159E1,-1.752852581E0,1.496495449E1
1.261296821E1,-7.529854283E0,-1.247784827E1,-3.117606382E-1,1.457712584E1
1.262293421E1,-8.683442103E0,-6.379671296E0,2.453159566E0,1.105080832E1
1.263290021E1,-3.249804107E0,-4.157655673E0,3.445670994E-1,5.288294046E0
1.264286721E1,-1.856242609E0,-4.571166671E0,6.411507777E-1,4.975165894E0
1.265283321E1,-1.857345833E0,-5.682646937E0,2.243798840E0,6.385674827E0
1.266280021E1,-5.223060465E-1,-7.819836418E0,3.194147969E0,8.463168819E0
1.267276621E1,2.566295295E0,-1.142893029E1,2.294372578E0,1.193609922E1
1.268273321E1,4.355368161E0,-1.427992856E1,8.757374883E-1,1.495501614E1
1.269269921E1,3.649229747E0,-1.485133602E1,5.920364320E-1,1.530456031E1
1.270266521E1,2.758433486E-1,-1.241653437E1,9.525336492E-1,1.245607224E1
1.271263221E1,-1.791205053E0,-9.998383255E0,1.190131749E0,1.022704732E1
1.272259821E1,-1.838563406E0,-8.520448043E0,6.019848847E-1,8.737318585E0
1.273256521E1,-9.854637060E-1,-5.738757403E0,-1.374072289E-1,5.824376018E0
1.274253121E1,-5.628864175E-1,-2.471763652E0,7.199664938E-1,2.635300443E0
1.275249821E1,-1.055992529E0,-9.488054645E-1,1.377146755E0,1.977848633E0
1.276246421E1,-1.460856957E0,-1.691653283E0,1.247318687E0,2.559608912E0
1.277243021E1,-1.403016299E0,-2.768778818E0,1.952750173E0,3.667127502E0
1.278239721E1,-1.534583622E0,-3.865384938E0,3.052793870E0,5.159040417E0
1.279236321E1,-1.201898028E0,-4.066570086E0,3.282943786E0,5.362767107E0
1.280233021E1,-3.125132479E-1,-4.163275432E0,2.882618845E0,5.073462157E0
1.281229621E1,9.862223822E-1,-3.938031914E0,2.140590806E0,4.589429043E0
1.282226321E1,1.511070798E0,-3.415497242E0,1.159333295E0,3.910627834E0
1.283222921E1,1.231274659E0,-3.510817382E0,2.471197239E-1,3.728665194E0
1.284219621E1,7.014942625E-1,-4.028322864E0,-8.693757176E-2,4.089870101E0
1.285216221E1,1.304966606E-1,-4.399921605E0,8.488637765E-2,4.402674779E0
1.286212821E1,-2.953077793E-1,-4.482924585E0,4.205247331E-1,4.512278867E0
1.287209521E1,-5.660826883E-1,-4.474090612E0,8.190756297E-1,4.583538077E0
1.288206121E1,-6.239218837E-1,-4.225974541E0,1.113277116E0,4.414467722E0
1.289202821E1,-3.760350964E-1,-3.842798898E0,1.303320980E0,4.075187276E0
1.290199421E1,5.283631772E-2,-3.583136330E0,1.383672248E0,3.841380809E0
1.291196121E1,4.111867297E-1,-3.130395193E0,9.751424932E-1,3.304444200E0
1.292192721E1,6.276711184E-1,-2.554922168E0,3.871815705E-1,2.659230695E0
1.293189321E1,8.863293540E-1,-2.123681828E0,7.918768127E-2,2.302580057E0
1.294186021E1,8.009898993E-1,-1.821725180E0,2.241471648E-1,2.002625627E0
1.295182621E1,4.631760782E-1,-1.764315462E0,1.143192641E0,2.152726305E0
1.296179321E1,2.672208982E-1,-2.068464816E0,1.681448722E0,2.679034063E0
1.297175921E1,1.883777002E-1,-2.594297318E0,1.513156500E0,3.009237001E0
1.298172621E1,-1.003648254E-1,-3.372429575E0,1.565587898E0,3.719464989E0
1.299169221E1,-3.704403343E-1,-4.336387514E0,1.021521438E0,4.470457332E0
1.300165921E1,-7.650817826E-1,-5.274601332E0,2.769293958E-1,5.336989717E0
1.301162521E1,-1.528068069E0,-6.469083409E0,4.438241333E-1,6.661907538E0
1.302159121E1,-2.427575659E0,-7.591723087E0,1.358426895E0,8.085338993E0
1.303155821E1,-3.215884994E0,-8.163291925E0,1.845491188E0,8.965884734E0
1.304152421E1,-3.506678138E0,-8.450890151E0,2.458407442E0,9.474075314E0
1.305149121E1,-3.060062544E0,-8.201226321E0,2.339347022E0,9.060719642E0
1.306145721E1,-2.293955671E0,-7.370001932E0,1.659495935E0,7.895130642E0
1.307142421E1,-1.283897114E0,-6.137976637E0,1.228252087E0,6.389972784E0
1.308139021E1,-1.506474448E-1,-4.633396833E0,3.417651137E-1,4.648425998E0
1.309135621E1,4.556503462E-1,-2.731229753E0,-9.724597907E-1,2.934776184E0
1.310132321E1,9.931471666E-1,-3.748035997E-1,-1.407186241E0,1.762666205E0
1.311128921E1,9.779385587E-1,2.355252618E0,-9.818819209E-1,2.732703940E0
1.312125621E1,3.646670859E-1,5.032947019E0,-1.042631056E0,5.152729112E0
1.313122221E1,3.159354405E-1,7.879966260E0,-2.064172375E0,8.151962405E0
1.314118921E1,5.285978698E-1,1.080260696E1,-3.582038223E0,1.139327567E1
1.315115654E1,2.588935860E-1,1.292451006E1,-5.087435467E0,1.389215555E1
1.316112254E1,1.233766157E0,1.427865387E1,-5.447073144E0,1.533208209E1
1.317108954E1,1.905873191E0,1.371108219E1,-5.485449589E0,1.489014052E1
1.318105554E1,1.629829941E0,1.192282823E1,-4.322429041E0,1.278646047E1
1.319102254E1,1.171541842E0,1.025216645E1,-2.156274354E0,1.054177149E1
1.320098854E1,4.801135616E-1,8.846733202E0,3.078864558E-1,8.865099630E0
1.321095554E1,-1.005256239E-1,7.819639367E0,1.608615804E0,7.984015909E0
1.322092154E1,-4.882607795E-1,7.238952380E0,2.045930086E0,7.538345977E0
1.323088854E1,-6.104319187E-1,7.199555011E0,2.269303079E0,7.573371505E0
1.324085454E1,-8.850728604E-1,7.761161363E0,2.403301528E0,8.172810894E0
1.325082054E1,-1.173778037E0,8.614706914E0,2.451901245E0,9.033424036E0
1.326078754E1,-1.166045387E0,9.424199542E0,2.177910075E0,9.742612131E0
1.327075354E1,-1.096266835E0,9.991843729E0,1.709574852E0,1.019614575E1
1.328072054E1,-9.318398414E-1,1.031826571E1,1.422093133E0,1.045740320E1
1.329068654E1,-7.172652264E-1,1.034240185E1,9.910365410E-1,1.041450425E1
1.330065354E1,-5.776068194E-1,1.002453317E1,5.291263850E-1,1.005509173E1
1.331061954E1,-6.942432766E-1,9.574663019E0,8.356270507E-2,9.600162935E0
1.332058554E1,-9.065170853E-1,9.241171167E0,-7.542893574E-2,9.285833688E0
1.333055254E1,-1.099164642E0,9.029206676E0,-5.315094908E-1,9.111379613E0
1.334051854E1,-9.271051316E-1,9.006955681E0,-1.417239944E0,9.164788248E0
1.335048554E1,-4.967980798E-1,9.124980560E0,-2.208126001E0,9.401483872E0
1.336045154E1,-1.232008338E-3,9.461674347E0,-2.665860221E0,9.830060716E0
1.337041854E1,5.374403948E-1,1.002297080E1,-2.562760946E0,1.035936916E1
1.338038454E1,9.478856975E-1,1.053975356E1,-2.297855179E0,1.082889795E1
1.339035054E1,1.218493961E0,1.098761286E1,-2.128854275E0,1.125808085E1
1.340031754E1,1.029198979E0,1.077111853E1,-7.983997290E-1,1.084959387E1
1.341028354E1,2.584758756E-1,8.653301461E0,-8.551424253E-1,8.699293334E0
1.342025054E1,1.972979931E-1,5.026142614E0,-8.602634899E-1,5.103047065E0
1.343021654E1,1.280242020E0,3.342455578E-1,7.819867408E-1,1.536959006E0
1.344018354E1,3.132695487E0,-6.075359389E0,2.695352408E0,7.347700138E0
1.345014954E1,4.848472335E0,-1.369919129E1,9.244716918E-1,1.456125592E1
1.346011654E1,4.401384286E0,-1.868540444E1,-3.137145803E0,1.945143199E1
1.347008254E1,-1.510070632E0,-1.587891283E1,-3.693385581E0,1.637257717E1
1.348004854E1,-5.837545527E0,-7.777385048E0,1.116277907E0,9.788295680E0
1.349001554E1,-2.584042764E0,-7.995633541E0,1.520458503E0,8.539275543E0
1.349998154E1,-9.541609293E-1,-9.573386571E0,4.225198030E-2,9.620911534E0
1.350994854E1,6.559182863E-1,-8.977740653E0,-5.555603313E-1,9.018797221E0
1.351991454E1,2.027951798E0,-8.615243104E0,-6.389281780E-1,8.873738301E0
1.352988154E1,2.866602444E0,-8.359830292E0,-3.018473053E-1,8.842809727E0
1.353984754E1,2.402934030E0,-7.680168656E0,1.221597955E0,8.139495322E0
1.354981354E1,3.028772192E-1,-6.858554165E0,2.202540886E0,7.209901955E0
1.355978054E1,-1.365232030E0,-5.292283897E0,1.767636681E0,5.744272519E0
1.356974654E1,-1.583963943E0,-3.433261083E0,8.461166632E-1,3.874549889E0
1.357971354E1,-1.512377212E0,-2.546060713E0,1.736552517E-1,2.966456831E0
1.358967954E1,-1.711165441E0,-2.390278024E0,2.100752556E-1,2.947142313E0
1.359964654E1,-2.036851260E0,-2.503487720E0,8.920629144E-1,3.348430986E0
1.360961254E1,-1.947894937E0,-2.517982383E0,1.264445182E0,3.425398019E0
1.361957854E1,-1.348315889E0,-2.217311538E0,1.521729103E0,3.008336028E0
1.362954554E1,-4.693446714E-1,-2.085217674E0,2.043607718E0,2.957152291E0
1.363951154E1,3.819777679E-2,-2.250344798E0,2.534685540E0,3.389711133E0
1.364947854E1,3.176491132E-1,-2.265724729E0,2.758487719E0,3.583805799E0
1.365944454E1,2.494694093E-1,-2.231659436E0,2.593488064E0,3.430556684E0
1.366941154E1,-1.042295426E-1,-2.323981124E0,2.327330993E0,3.290626325E0
1.367937754E1,-7.272819453E-1,-2.360136797E0,1.847438310E0,3.084187582E0
1.368934354E1,-1.367294197E0,-2.502188469E0,1.769242326E0,3.355690535E0
1.369931054E1,-1.618755460E0,-2.857914358E0,2.204840012E0,3.955927603E0
1.370927654E1,-1.612333756E0,-3.296740292E0,2.354242219E0,4.360111594E0
1.371924354E1,-1.396009288E0,-3.751332073E0,2.381577952E0,4.657601077E0
1.372920954E1,-9.232972786E-1,-4.131917399E0,2.056165198E0,4.706701029E0
1.373917654E1,-4.924469474E-1,-4.250023554E0,1.556929341E0,4.552936764E0
1.374914254E1,-3.772796032E-1,-4.456664155E0,1.511879468E0,4.721225987E0
1.375910854E1,-5.582918947E-1,-4.495943996E0,1.284348519E0,4.709007684E0
1.376907554E1,-8.878176165E-1,-4.193597923E0,4.908467837E-1,4.314558404E0
1.377904154E1,-7.038816807E-1,-4.291144683E0,5.928398029E-1,4.388716343E0
1.378900854E1,-2.750430475E-1,-4.871904175E0,9.348938421E-1,4.968412771E0
1.379897454E1,2.595113809E-1,-5.494822091E0,8.951584303E-1,5.573304638E0
1.380894154E1,9.376983860E-1,-5.783483341E0,9.935354217E-1,5.942648437E0
1.381890754E1,1.237086937E0,-6.088785766E0,1.641526857E0,6.426375854E0
1.382887354E1,1.118235847E0,-6.170852607E0,1.683015776E0,6.493259228E0
1.383884054E1,8.830277967E-1,-6.063658526E0,1.804861225E0,6.387896121E0
1.384880654E1,4.790667638E-1,-6.153173550E0,2.167640026E0,6.541384638E0
1.385877354E1,-1.387015467E-1,-6.204065961E0,1.856407939E0,6.477339192E0
1.386873954E1,-6.703312343E-1,-6.423709016E0,1.955148700E0,6.748035857E0
1.387870654E1,-1.070942982E0,-6.876216849E0,2.157007449E0,7.285736624E0
1.388867254E1,-1.749605329E0,-7.038423289E0,1.964966760E0,7.514094461E0
1.389863854E1,-2.683050451E0,-6.957326501E0,1.491010171E0,7.604358164E0
1.390860554E1,-3.607690250E0,-7.059889002E0,3.877323782E-1,7.937745150E0
1.391857154E1,-4.221508437E0,-7.139982408E0,-3.333380699E-1,8.301300895E0
1.392853854E1,-3.508887801E0,-6.837737492E0,1.047493784E-1,7.686216237E0
1.393850454E1,-1.875114059E0,-5.825399691E0,-4.689665759E-1,6.137692070E0
1.394847154E1,2.132817956E-1,-4.297800568E0,-4.824127964E-1,4.330046299E0
1.395843754E1,2.448600492E0,-2.329978613E0,-5.874780158E-1,3.430681437E0
1.396840354E1,3.786629375E0,6.347444952E-2,-4.364876318E-1,3.812231955E0
1.397837054E1,3.778673361E0,3.115134544E0,2.869427526E-1,4.905585769E0
1.398833654E1,2.020889531E0,6.742495705E0,-3.644921080E-1,7.048269101E0
1.399830354E1,4.841956490E-1,1.110992843E1,-2.186752235E0,1.133343904E1
1.400826954E1,9.060996672E-1,1.521929896E1,-6.194219835E0,1.645650135E1
1.401823654E1,8.357495499E-1,1.595759531E1,-9.734926429E0,1.871128317E1
1.402820254E1,1.846849496E0,1.532060197E1,-9.121831834E0,1.792594527E1
1.403816854E1,6.060207792E-1,1.324897206E1,-6.228631868E0,1.465258942E1
1.404813554E1,4.967062785E-1,9.622576273E0,-2.225997577E0,9.889173700E0
1.405810154E1,1.186548429E0,7.032180217E0,1.149193199E0,7.223579500E0
1.406806854E1,1.506485558E0,6.213592830E0,2.704042540E0,6.941907565E0
1.407803454E1,1.138947708E0,6.873448777E0,2.112793435E0,7.280480484E0
1.408800154E1,3.097005545E-1,8.671218499E0,1.457233876E0,8.798265469E0
1.409796754E1,-5.051538972E-1,1.022429394E1,1.731786232E0,1.038221800E1
1.410793354E1,-1.268868893E0,1.117322103E1,1.398471551E0,1.133166444E1
1.411790054E1,-1.830160373E0,1.193676448E1,1.108788793E0,1.212704605E1
1.412786654E1,-1.986606136E0,1.230944379E1,1.614653346E0,1.257283245E1
1.413783354E1,-1.587506040E0,1.206046233E1,1.823191223E0,1.230036395E1
1.414779829E1,-9.125136973E-1,1.106668944E1,1.214577934E0,1.117047429E1
1.415776529E1,-2.811526935E-1,9.499727442E0,7.697147508E-1,9.535005459E0
1.416773129E1,-1.372060847E-1,8.145835648E0,7.805202591E-1,8.184294458E0
1.417769729E1,-1.440643571E-1,7.896180004E0,4.380454031E-1,7.909633176E0
1.418766429E1,-2.393421780E-1,8.666883373E0,-2.000076659E-1,8.672494171E0
1.419763029E1,-5.514925696E-1,9.561749443E0,-8.592987724E-1,9.616111004E0
1.420759729E1,-6.475134985E-1,1.011884525E1,-1.787412987E0,1.029588016E1
1.421756329E1,-1.270450126E-1,1.018739099E1,-2.328765754E0,1.045094377E1
1.422753029E1,7.324152160E-1,9.767534012E0,-1.776512754E0,9.954755159E0
1.423749629E1,1.176545305E0,9.204408553E0,-6.902288707E-1,9.304934796E0
1.424746229E1,8.192019296E-1,8.932269781E0,2.938272643E-1,8.974567939E0
1.425742929E1,3.646525410E-1,9.120432011E0,1.589808819E0,9.265135920E0
1.426739529E1,-3.257611017E-1,8.536464736E0,2.265780863E0,8.838049186E0
1.427736229E1,-8.253821442E-1,6.557491556E0,8.202520895E-1,6.659937288E0
1.428732829E1,-1.261311221E0,3.908178955E0,-3.978351244E-1,4.125898875E0
1.429729529E1,3.533354744E-1,-8.331177181E-1,2.740508115E0,2.886055408E0
1.430726129E1,3.396945781E0,-7.840457209E0,2.100088313E0,8.798998852E0
1.431722729E1,6.986556147E0,-1.573755640E1,-4.190656189E0,1.772129362E1
1.432719429E1,1.674356049E0,-1.935632332E1,-7.488751280E0,2.082191433E1
1.433716029E1,-9.179338616E0,-1.230448301E1,-1.791444204E0,1.545541432E1
1.434712729E1,-5.735721529E0,-7.261603909E0,3.374498320E0,9.849702112E0
1.435709329E1,-1.796324875E0,-8.141749613E0,3.440638515E0,9.019582208E0
1.436706029E1,-2.949218631E-1,-9.576759245E0,1.490978011E0,9.696613428E0
1.437702629E1,1.166067460E0,-9.127382011E0,1.141265216E-1,9.202273663E0
1.438699229E1,1.656354226E0,-8.641179598E0,-6.041857767E-1,8.819213946E0
1.439695929E1,1.896720398E0,-8.026704476E0,2.391721702E-1,8.251226354E0
1.440692529E1,1.285933700E0,-7.364986775E0,1.743267825E0,7.676955020E0
1.441689229E1,-9.559103432E-1,-6.504067301E0,2.103322992E0,6.902218748E0
1.442685829E1,-2.517723644E0,-5.225147921E0,1.396934318E0,5.965947421E0
1.443682529E1,-2.447221134E0,-4.287157466E0,-9.927870512E-2,4.937455486E0
1.444679129E1,-2.111721056E0,-3.955730851E0,-1.121715817E0,4.622274198E0
1.445675729E1,-1.191365146E0,-4.003573939E0,-1.241663260E0,4.357715325E0
1.446672429E1,-7.105928224E-1,-3.643493629E0,-1.023653333E0,3.850695278E0
1.447669029E1,-5.231916804E-1,-2.713000474E0,-7.762927222E-1,2.869970644E0
1.448665729E1,-8.896187782E-2,-2.038180332E0,1.883236134E-1,2.048794540E0
1.449662329E1,1.705138716E-1,-1.683175989E0,1.566562629E0,2.305704851E0
1.450659029E1,-6.715790302E-2,-1.545957626E0,2.651502968E0,3.070010286E0
1.451655629E1,-6.326834247E-1,-1.530672419E0,3.084165351E0,3.500760244E0
1.452652229E1,-1.090618570E0,-1.260686592E0,3.167444905E0,3.579313730E0
1.453648929E1,-1.107875239E0,-7.345740080E-1,2.962808729E0,3.247340771E0
1.454645529E1,-9.952863704E-1,-7.756770104E-1,2.075190868E0,2.428721253E0
1.455642229E1,-1.225455071E0,-1.384372160E0,9.071428835E-1,2.059401520E0
1.456638829E1,-9.696741772E-1,-1.995699726E0,3.049621171E-1,2.239662318E0
1.457635529E1,-7.419010808E-1,-2.792613823E0,5.838452138E-2,2.890072306E0
1.458632129E1,-1.104335042E0,-3.783529766E0,-3.717350540E-1,3.958893826E0
1.459628729E1,-1.277644979E0,-4.580268447E0,-1.632653707E-1,4.757929310E0
1.460625429E1,-1.410536111E0,-5.785488351E0,9.012686976E-1,6.022771193E0
1.461622029E1,-7.746221727E-1,-6.478368203E0,1.384008463E0,6.669690661E0
1.462618729E1,5.040570326E-2,-6.765319726E0,1.996524183E0,7.053949287E0
1.463615329E1,4.806291398E-1,-7.110162778E0,2.377028233E0,7.512368623E0
1.464612029E1,3.062417437E-1,-7.192588053E0,2.484642144E0,7.615809445E0
1.465608629E1,-2.579599684E-1,-7.649039249E0,3.279913759E0,8.326594685E0
1.466605229E1,-6.961333890E-1,-9.071137059E0,4.332266981E0,1.007663964E1
1.467601929E1,-8.559066564E-1,-1.099167200E1,4.955412354E0,1.208741251E1
1.468598529E1,-1.080342381E0,-1.207426643E1,4.565562115E0,1.295374104E1
1.469595229E1,-1.707979586E0,-1.129050331E1,2.627006643E0,1.171724469E1
1.470591829E1,-2.178697403E0,-9.780336490E0,1.899731129E0,1.019856277E1
1.471588529E1,-2.257688316E0,-8.260508902E0,1.742428164E0,8.738948436E0
1.472585129E1,-2.786401742E0,-7.277554529E0,1.153576126E0,7.877662881E0
1.473581729E1,-3.165822887E0,-7.063883235E0,6.073152065E-1,7.764645045E0
1.474578429E1,-2.548222136E0,-6.938883213E0,-6.877847711E-2,7.392311329E0
1.475575029E1,-1.103385089E0,-6.325059471E0,-4.370653367E-1,6.435437986E0
1.476571729E1,8.927984210E-1,-5.089643961E0,-7.691719830E-1,5.224288488E0
1.477568329E1,2.369815693E0,-3.443962657E0,-1.658014251E0,4.497323255E0
1.478565029E1,3.410946938E0,-1.711401084E0,-1.617660277E0,4.144909825E0
1.479561629E1,3.471477022E0,1.581946653E-1,-1.565445811E0,3.811403791E0
1.480558229E1,2.502921710E0,2.304486507E0,-1.741402563E0,3.822009685E0
1.481554929E1,1.356356980E0,4.840851951E0,-1.422267380E0,5.224595331E0
1.482551529E1,5.958282783E-1,7.885399493E0,-1.680965742E0,8.084564449E0
1.483548229E1,4.979672306E-1,1.146556778E1,-3.679220116E0,1.205171674E1
1.484544829E1,9.735729544E-1,1.453990045E1,-4.882726786E0,1.536872051E1
1.485541529E1,1.643722633E0,1.605795575E1,-4.533584862E0,1.676642951E1
1.486538129E1,1.599177228E0,1.570791335E1,-4.404746143E0,1.639200104E1
1.487534729E1,8.571695088E-1,1.333383153E1,-3.776347046E0,1.388476143E1
1.488531429E1,2.659898400E-2,1.002155694E1,-2.011201279E0,1.022141094E1
1.489528029E1,-2.395544319E-1,7.437713274E0,-2.278005783E-1,7.445055955E0
1.490524729E1,-1.930135189E-1,5.784704824E0,8.122017161E-1,5.844633072E0
1.491521329E1,-2.942976728E-1,5.016279531E0,1.303738471E0,5.191281677E0
1.492518029E1,-7.395513041E-1,5.233046924E0,1.779838650E0,5.576696322E0
1.493514629E1,-1.275752966E0,6.638684823E0,2.054053184E0,7.065324925E0
1.494511229E1,-1.608060026E0,8.957981742E0,2.000576888E0,9.318454905E0
1.495507929E1,-1.669048093E0,1.074512532E1,2.157807348E0,1.108600795E1
1.496504529E1,-1.684527135E0,1.125251746E1,2.077295866E0,1.156598197E1
1.497501229E1,-1.780514881E0,1.123416889E1,1.717266572E0,1.150329468E1
1.498497829E1,-1.797314370E0,1.111279707E1,1.701804049E0,1.138511022E1
1.499494429E1,-1.579835370E0,1.088567718E1,1.565169822E0,1.111051772E1
1.500491129E1,-1.360387174E0,1.063813531E1,1.210577123E0,1.079287140E1
1.501487729E1,-1.272660082E0,1.026586063E1,7.707459804E-1,1.037311947E1
1.502484429E1,-1.287133987E0,9.921258481E0,3.010977288E-1,1.000893319E1
1.503481029E1,-1.287987973E0,9.877869802E0,-1.737522789E-1,9.963002293E0
1.504477729E1,-1.248296780E0,1.008816374E1,-6.373499414E-1,1.018506296E1
1.505474329E1,-1.174700216E0,1.008789828E1,-1.245839342E0,1.023219077E1
1.506470929E1,-1.019176559E0,9.845193222E0,-1.871388506E0,1.007316462E1
1.507467629E1,-9.436866657E-1,9.065358256E0,-1.462679826E0,9.230964040E0
1.508464229E1,-4.284978501E-1,8.001649742E0,-1.670019754E0,8.185290158E0
1.509460929E1,-4.157633454E-2,6.632873275E0,-1.625191491E0,6.829200821E0
1.510457529E1,4.309573352E-2,4.727782588E0,-1.046183825E-1,4.729136332E0
1.511454229E1,8.603549257E-2,3.159067599E0,-1.130345723E0,3.356306252E0
1.512450829E1,1.454880225E0,1.041799582E0,-2.920183697E0,3.424835129E0
1.513447429E1,4.014074954E0,-4.085875254E0,-2.263112193E0,6.158640363E0
1.514444129E1,4.635368514E0,-1.045895674E1,-4.497523329E0,1.229244212E1
1.515440771E1,3.523117000E0,-1.347985054E1,-5.386975461E0,1.493781204E1
1.516437471E1,1.736880619E0,-8.165362424E0,-1.570898924E0,8.494564217E0
1.517434071E1,-2.012201445E0,-2.123347952E0,4.281434212E0,5.185387169E0
1.518430771E1,-1.850034182E0,-3.868095707E0,3.957588512E0,5.835006229E0
1.519427371E1,5.493459105E-3,-5.357865683E0,2.343547661E0,5.847988585E0
1.520423971E1,1.129774085E0,-5.629847165E0,1.105862262E0,5.847606341E0
1.521420671E1,1.084582709E0,-7.016235445E0,5.478068868E-1,7.120672149E0
1.522417271E1,3.650141182E-1,-8.162645808E0,4.114147345E-1,8.181154196E0
1.523413971E1,-6.288621962E-2,-8.196877747E0,-1.204023564E0,8.285072856E0
1.524410571E1,-2.540966765E-1,-8.409696516E0,-1.789736817E0,8.601785773E0
1.525407271E1,-4.892102212E-1,-8.910754951E0,-2.841916376E-1,8.928697851E0
1.526403871E1,-6.474706677E-1,-8.988343994E0,-1.139236414E-1,9.012354000E0
1.527400471E1,-1.741908932E-1,-7.702733645E0,-5.019004333E-1,7.721033100E0
1.528397171E1,4.717923890E-1,-5.654328872E0,2.767732020E-1,5.680724114E0
1.529393771E1,7.957966217E-1,-4.097298959E0,1.315616505E0,4.376299557E0
1.530390471E1,3.828384780E-1,-3.078920399E0,1.887988751E0,3.631916525E0
1.531387071E1,-2.759897482E-1,-2.088900835E0,1.581687621E0,2.634656101E0
1.532383771E1,-2.344061047E-1,-1.138930020E0,2.747423033E0,2.983360711E0
1.533380371E1,-1.992891162E-1,-9.386242926E-1,2.950003327E0,3.102136577E0
1.534376971E1,-8.808019079E-2,-1.031924220E0,2.556390404E0,2.758216383E0
1.535373671E1,3.956222456E-2,-7.385588855E-1,2.136320000E0,2.260729426E0
1.536370271E1,-1.347707194E-1,-4.557565463E-1,1.251913429E0,1.339090890E0
1.537366971E1,-5.612619879E-1,-7.349125618E-1,3.524210064E-1,9.896019696E-1
1.538363571E1,-9.506540617E-1,-1.355968725E0,-2.194284983E-1,1.670491902E0
1.539360171E1,-1.343292546E0,-1.964625283E0,-8.245220918E-2,2.381383156E0
1.540356871E1,-1.563939275E0,-2.716426358E0,9.735778514E-2,3.135977798E0
1.541353471E1,-1.188853255E0,-3.443321217E0,-1.874313283E-1,3.647596958E0
1.542350171E1,-5.040820295E-1,-3.557996811E0,-6.392848581E-1,3.649948647E0
1.543346771E1,1.859847637E-1,-3.242377558E0,-2.760785528E-1,3.259420490E0
1.544343471E1,6.868174589E-1,-2.499170136E0,7.347277898E-1,2.693955181E0
1.545340071E1,8.500655803E-1,-1.638358251E0,1.798795908E0,2.577304012E0
1.546336671E1,7.952116808E-1,-8.751024806E-1,2.207959501E0,2.504645909E0
1.547333371E1,6.358098578E-1,-4.829022449E-1,2.514257707E0,2.637980396E0
1.548329971E1,2.330059889E-1,-6.524685752E-1,2.967870664E0,3.047665223E0
1.549326671E1,-3.788814479E-1,-9.564863670E-1,2.319077649E0,2.537033398E0
1.550323271E1,-9.734579104E-1,-1.537499628E0,1.762144976E0,2.533116722E0
1.551319971E1,-1.340563358E0,-2.585975561E0,1.532122529E0,3.291166839E0
1.552316571E1,-1.353276082E0,-4.120726998E0,1.237466129E0,4.510329208E0
1.553313171E1,-1.280228279E0,-5.756753379E0,1.347580310E0,6.049393904E0
1.554309871E1,-1.152506378E0,-7.449556224E0,1.644338783E0,7.715439646E0
1.555306471E1,-1.041665900E0,-8.803973683E0,2.128571270E0,9.117337117E0
1.556303171E1,-7.433749446E-1,-9.919783813E0,2.972485871E0,1.038221506E1
1.557299771E1,-4.266423824E-1,-1.087553343E1,3.575902154E0,1.145627895E1
1.558296471E1,-3.858384651E-1,-1.078640666E1,3.734968640E0,1.142127098E1
1.559293071E1,-4.498105858E-1,-1.012424574E1,3.775501539E0,1.081467028E1
1.560289671E1,-8.480220515E-1,-9.580560520E0,3.920558095E0,1.038638807E1
1.561286371E1,-1.160135313E0,-9.253086623E0,4.123509103E0,1.019651182E1
1.562282971E1,-1.322991598E0,-9.044074391E0,4.156456994E0,1.004100210E1
1.563279671E1,-1.511856664E0,-8.581015842E0,2.885086370E0,9.178413088E0
1.564276271E1,-2.280701495E0,-8.116439940E0,1.777381650E0,8.616105973E0
1.565272971E1,-1.882436527E0,-7.069297757E0,2.921292512E-1,7.321466899E0
1.566269571E1,2.812532656E-1,-5.513492836E0,-1.900908759E0,5.838763633E0
1.567266171E1,2.931001046E0,-3.473782872E0,-3.328583643E0,5.633595978E0
1.568262871E1,3.443604515E0,-9.435102260E-1,-2.617800786E0,4.427358644E0
1.569259471E1,1.415069311E0,1.704809518E0,-8.925307647E-1,2.388599551E0
1.570256171E1,-1.155542106E0,4.907121370E0,1.509237257E-1,5.043599475E0
1.571252771E1,-2.612980342E0,8.977858182E0,-1.608240851E-1,9.351762839E0
1.572249471E1,-2.322334694E0,1.338327909E1,-2.255496780E0,1.376926517E1
1.573246071E1,-1.448523425E0,1.606662951E1,-4.739123847E0,1.681350941E1
1.574242671E1,7.426494513E-1,1.694638520E1,-6.226764268E0,1.806942425E1
1.575239371E1,2.134863020E0,1.538976635E1,-6.882055879E0,1.699309393E1
1.576235971E1,2.089742395E0,1.220941196E1,-4.690224752E0,1.324518674E1
1.577232671E1,2.208864358E0,9.336162109E0,-2.071647163E0,9.815025555E0
1.578229271E1,1.968763942E0,6.996081262E0,2.564050841E-1,7.272339929E0
1.579225871E1,1.406487499E0,5.452614550E0,1.994850271E0,5.973996997E0
1.580222571E1,6.709454843E-1,4.891390606E0,2.555046129E0,5.559148372E0
1.581219171E1,1.926037753E-1,5.606520283E0,2.822937484E0,6.280059071E0
1.582215871E1,-2.890683617E-1,6.955477027E0,2.728495595E0,7.477092309E0
1.583212471E1,-8.577131537E-1,8.138234852E0,2.255266399E0,8.488390006E0
1.584209171E1,-1.151213120E0,9.377701313E0,1.876979467E0,9.632737176E0
1.585205771E1,-1.340560581E0,1.068594097E1,1.509514708E0,1.087497456E1
1.586202371E1,-1.439286139E0,1.153428542E1,1.183555824E0,1.168383880E1
1.587199071E1,-1.529626791E0,1.153358376E1,9.173426203E-1,1.167068250E1
1.588195671E1,-1.492396545E0,1.090779135E1,9.512485043E-1,1.105043136E1
1.589192371E1,-1.388812389E0,1.007444150E1,1.106795039E0,1.022976865E1
1.590188971E1,-1.183832324E0,9.387196607E0,9.562209765E-1,9.509746456E0
1.591185671E1,-1.093750705E0,9.081997678E0,3.789230362E-1,9.155465859E0
1.592182271E1,-1.198011457E0,8.951850936E0,-1.667017794E-1,9.033197447E0
1.593178871E1,-1.134780836E0,9.164155151E0,-9.715698445E-1,9.285117939E0
1.594175571E1,-7.362600526E-1,9.967987089E0,-2.086835014E0,1.021066726E1
1.595172171E1,-2.040825174E-1,1.091284568E1,-2.481738417E0,1.119334071E1
1.596168871E1,9.602078274E-2,1.147971570E1,-1.910899311E0,1.163806808E1
1.597165471E1,2.477257696E-1,1.117284564E1,-1.854589455E0,1.132843103E1
1.598162071E1,2.667526093E-1,1.038756340E1,-1.681027722E0,1.052608591E1
1.599158771E1,-4.842772177E-1,8.929930894E0,-1.355735421E-1,8.944080187E0
1.600155371E1,-8.750285865E-1,6.787835600E0,-2.514590414E0,7.291334042E0
1.601152071E1,-5.142735802E-1,3.789033165E0,-3.014153130E0,4.868918641E0
1.602148671E1,1.370990368E0,-5.084218329E-1,2.556169526E-1,1.484401353E0
1.603145371E1,3.436253688E0,-7.279513931E0,8.932838130E-1,8.099204803E0
1.604141971E1,6.632608981E0,-1.737620818E1,-1.299096951E0,1.864434942E1
1.605138571E1,4.303529670E0,-2.052545772E1,-6.423138328E0,2.193334193E1
1.606135271E1,-4.364767560E0,-8.536343114E0,-8.646078980E-1,9.626416594E0
1.607131871E1,-2.240449847E0,-2.720220616E0,4.411990843E0,5.646669719E0
1.608128571E1,-1.809239912E0,-3.047517343E0,2.152237290E0,4.146424528E0
1.609125171E1,-1.583195911E0,-4.149895248E0,1.449731752E0,4.672243788E0
1.610121871E1,4.147332852E-1,-6.370867728E0,2.861803926E0,6.996419157E0
1.611118471E1,1.461046991E0,-9.764384117E0,1.900832745E0,1.005440305E1
1.612115071E1,1.592447083E0,-1.269902272E1,-1.128645937E0,1.284814801E1
1.613111771E1,1.869246963E0,-1.309800748E1,-2.787433190E0,1.352115630E1
1.614108371E1,7.651555306E-1,-1.064055488E1,-1.918092556E0,1.083909361E1
1.615105092E1,-1.315579083E0,-6.897092578E0,3.604831839E-1,7.030688621E0
1.616101692E1,-1.459534024E0,-4.140197641E0,1.117326897E0,4.529889124E0
1.617098392E1,-4.556434757E-1,-2.774112064E0,1.038949649E0,2.997119466E0
1.618094992E1,1.573186793E-1,-2.592914452E0,1.308130900E0,2.908463679E0
1.619091592E1,3.705738701E-1,-3.359206097E0,1.675919595E0,3.772306599E0
1.620088292E1,1.426475036E-1,-3.570723860E0,1.645066177E0,3.934038627E0
1.621084892E1,-4.187629670E-1,-3.103152430E0,1.747335148E0,3.585818950E0
1.622081592E1,-9.304350478E-1,-2.453492272E0,1.684757077E0,3.118291217E0
1.623078192E1,-1.432226942E0,-1.767332625E0,1.514130646E0,2.732641622E0
1.624074892E1,-1.519041722E0,-1.476369327E0,1.568389299E0,2.635716058E0
1.625071492E1,-1.073060478E0,-1.785674171E0,1.457582223E0,2.542565038E0
1.626068092E1,-2.982158189E-1,-2.184758334E0,9.617336583E-1,2.405625341E0
1.627064792E1,4.627566136E-1,-2.390694931E0,2.651267910E-1,2.449460788E0
1.628061392E1,9.197545237E-1,-2.273184607E0,-3.388917553E-1,2.475512929E0
1.629058092E1,7.254033080E-1,-2.078526120E0,-2.615366006E-1,2.216953357E0
1.630054692E1,9.475179076E-2,-1.725105203E0,1.455629253E-1,1.733826528E0
1.631051392E1,-6.139580090E-1,-1.343652735E0,4.978646851E-1,1.558915121E0
1.632047992E1,-1.100717589E0,-8.129600269E-1,8.867688453E-1,1.630595658E0
1.633044592E1,-1.257076229E0,-2.796571219E-1,1.079937462E0,1.680688452E0
1.634041292E1,-1.227383190E0,-2.464367509E-2,1.116170318E0,1.659190461E0
1.635037892E1,-1.041152003E0,-2.045706868E-2,7.993424463E-1,1.312769718E0
1.636034592E1,-7.576625430E-1,-3.324726820E-1,5.655812895E-1,1.002233909E0
1.637031192E1,-5.500159284E-1,-1.128779254E0,8.321453261E-1,1.506361832E0
1.638027792E1,-2.199901234E-1,-1.826811088E0,1.108074263E0,2.147897339E0
1.639024492E1,2.285053139E-1,-2.265597260E0,1.247666012E0,2.596500742E0
1.640021092E1,5.005701187E-1,-2.618717045E0,1.251721641E0,2.945344882E0
1.641017792E1,5.514804366E-1,-2.911059701E0,1.319186815E0,3.243247309E0
1.642014392E1,5.150086483E-1,-3.146596658E0,1.332630733E0,3.455750151E0
1.643011092E1,2.421317384E-1,-4.047909282E0,1.665324440E0,4.383777233E0
1.644007692E1,7.449849755E-2,-5.281694005E0,1.917248218E0,5.619402309E0
1.645004292E1,-8.410021037E-2,-6.659226676E0,2.345443329E0,7.060699482E0
1.646000992E1,-4.392884481E-1,-8.023281516E0,2.597339040E0,8.444654564E0
1.646997592E1,-7.858558434E-1,-9.197296584E0,2.829088170E0,9.654614117E0
1.647994292E1,-1.193344794E0,-9.974320793E0,3.046504605E0,1.049725380E1
1.648990892E1,-1.668733659E0,-1.040035828E1,2.805656623E0,1.090063455E1
1.649987592E1,-2.008449872E0,-1.071121030E1,2.316076273E0,1.114127938E1
