"Time (s)","Linear Acceleration x (m/s^2)","Linear Acceleration y (m/s^2)","Linear Acceleration z (m/s^2)","Absolute acceleration (m/s^2)"
4.394583288E-3,-6.104748664E0,-7.291264495E0,3.559745713E0,1.015392947E1
1.436058339E-2,-2.387848798E0,-5.907183527E0,7.281170447E0,9.675333699E0
2.432758338E-2,1.655449077E0,-1.051266809E1,3.988497478E0,1.136506992E1
3.429358336E-2,5.743567908E0,-1.006346744E1,-1.664022557E0,1.170602069E1
4.426058335E-2,5.902060196E0,-1.023269288E1,-3.208417222E0,1.224076220E1
5.422658334E-2,-1.422268842E0,-1.134217398E1,-3.673972240E-1,1.143690256E1
6.419358333E-2,-5.527317992E0,-9.408788620E0,-5.358470285E-1,1.092536862E1
7.416058332E-2,-7.222816404E0,-7.685029446E0,-3.363396796E0,1.106983254E1
8.412658330E-2,-8.285931426E0,-5.674141577E0,-3.195151352E0,1.053857364E1
9.409358329E-2,-6.820912714E0,-4.414095840E0,-1.333445543E0,8.233296385E0
1.040595834E-1,-3.653102358E0,-5.286899781E0,4.413121694E-1,6.441368066E0
1.140265834E-1,-1.260565554E0,-6.476428682E0,1.330950828E0,6.730868004E0
1.239925834E-1,2.737882715E-1,-7.722773808E0,7.336899090E-1,7.762376967E0
1.339595834E-1,2.387714166E-2,-8.188672349E0,1.350856212E0,8.299381752E0
1.439265833E-1,-8.309348063E-1,-9.178597773E0,2.725738049E0,9.610762594E0
1.538925833E-1,-2.389571096E0,-7.991014826E0,2.051337444E0,8.589199804E0
1.638595833E-1,-3.426712786E0,-5.936524855E0,1.663291655E0,7.053454969E0
1.738255833E-1,-4.094756590E0,-3.644919764E0,6.475431731E-1,5.520125341E0
1.837925833E-1,-4.211519054E0,-1.707242544E0,-5.025547367E-1,4.572103576E0
1.937585834E-1,-3.724225258E0,-4.409923267E-1,-1.596515283E0,4.075927999E0
2.037255834E-1,-2.684870397E0,-4.692162520E-1,-2.563243048E0,3.741511441E0
2.136925834E-1,-1.514121437E0,-1.410009862E0,-2.844304964E0,3.517209443E0
2.236585834E-1,-4.731838436E-1,-2.158296760E0,-2.662146947E0,3.459649436E0
2.336255834E-1,-5.237468004E-2,-2.393851842E0,-2.371599678E0,3.370126820E0
2.435915833E-1,-1.766458101E-1,-2.315130193E0,-1.834367152E0,2.959042819E0
2.535585833E-1,-5.790371946E-1,-2.085852681E0,-1.136184168E0,2.444786278E0
2.635245833E-1,-1.106300291E0,-2.050611513E0,-8.212303287E-1,2.470491280E0
2.734915833E-1,-1.566895774E0,-1.793422317E0,-9.290184867E-1,2.556286627E0
2.834585833E-1,-1.642309361E0,-1.112361442E0,-9.435353690E-1,2.196539780E0
2.934245834E-1,-1.562845846E0,-3.808525443E-1,-9.613202602E-1,1.873945688E0
3.033915834E-1,-1.407745674E0,2.815241379E-1,-1.066528042E0,1.788431096E0
3.133575834E-1,-1.128583372E0,8.296491498E-1,-1.132872305E0,1.801504316E0
3.233245834E-1,-6.889613405E-1,1.267545961E0,-1.002268311E0,1.756667942E0
3.332905833E-1,-1.836787680E-1,1.637594604E0,-8.270243347E-1,1.843752486E0
3.432575833E-1,2.640007634E-1,1.899048175E0,-4.816404158E-1,1.976880842E0
3.532245833E-1,7.470693617E-1,2.116227797E0,-5.932643473E-2,2.245006091E0
3.631905833E-1,8.208125451E-1,2.317042817E0,4.225329593E-1,2.494184186E0
3.731575833E-1,4.104431100E-1,2.510573376E0,7.435524076E-1,2.650341942E0
3.831235834E-1,-3.301601082E-2,2.712135671E0,7.459684771E-1,2.813047977E0
3.930901666E-1,-2.131358345E-1,3.151201925E0,5.558468449E-1,3.206940313E0
4.030561667E-1,-1.011556431E-1,3.602689419E0,1.947774777E-1,3.609368612E0
4.130231667E-1,1.716504242E-1,3.776021356E0,-3.806905764E-1,3.799042835E0
4.229901667E-1,5.063875866E-1,3.775634855E0,-1.226705790E0,4.002081214E0
4.329561667E-1,6.029625392E-1,3.651900755E0,-1.868464898E0,4.146215627E0
4.429231667E-1,3.544079268E-1,3.213496991E0,-2.417285436E0,4.036760678E0
4.528891667E-1,-1.544781568E-1,2.450048847E0,-2.835013446E0,3.750187208E0
4.628561666E-1,-5.227366939E-1,1.717364075E0,-3.074584396E0,3.560289627E0
4.728221666E-1,-5.520834307E-1,1.178167761E0,-3.165934862E0,3.422867064E0
4.827891666E-1,-4.884271328E-1,7.286653966E-1,-3.142624644E0,3.262760178E0
4.927561667E-1,-3.009459936E-1,3.837907702E-1,-2.930709562E0,2.971013696E0
5.027221667E-1,2.492989995E-1,6.470996618E-2,-2.415429530E0,2.429122719E0
5.126891667E-1,1.265378398E0,-6.714439595E-1,-1.478974262E0,2.058976529E0
5.226551667E-1,1.965015146E0,-1.860419129E0,-2.167545301E-1,2.714668743E0
5.326221667E-1,1.315791775E0,-3.421157931E0,9.356679404E-1,3.783001993E0
5.425881667E-1,-7.500213285E-1,-4.995285687E0,1.394939248E0,5.240349855E0
5.525551667E-1,-2.996515589E0,-6.171928495E0,8.898184606E-1,6.918351242E0
5.625221666E-1,-4.267140108E0,-7.141994435E0,4.024264312E-1,8.329376702E0
5.724881666E-1,-4.677664056E0,-7.579685424E0,-2.198266572E-1,8.909573273E0
5.824551667E-1,-4.526563233E0,-7.983187743E0,-5.618686000E-1,9.194387286E0
5.924211667E-1,-3.842610033E0,-8.949379318E0,-6.167888653E-1,9.758968724E0
6.023881667E-1,-2.977665920E0,-1.027673177E1,-8.651519814E-1,1.073434666E1
6.123541667E-1,-2.382299352E0,-1.179593663E1,-6.197168586E-1,1.205004233E1
6.223211667E-1,-2.202131289E0,-1.322097793E1,-1.421247625E-1,1.340387403E1
6.322881667E-1,-1.982601817E0,-1.385147150E1,1.941889554E-1,1.399398735E1
6.422541667E-1,-1.657389768E0,-1.376532096E1,7.410167626E-1,1.388452764E1
6.522211666E-1,-1.446441962E0,-1.355076674E1,1.002404552E0,1.366456324E1
6.621871666E-1,-1.515290149E0,-1.332105419E1,1.391200538E0,1.347894759E1
6.721541666E-1,-1.354518177E0,-1.284265138E1,1.531123239E0,1.300433591E1
6.821201667E-1,-1.207901949E0,-1.218814447E1,1.504521624E0,1.233991402E1
6.920871667E-1,-1.331686408E0,-1.141434149E1,2.002008579E0,1.166484542E1
7.020541667E-1,-1.096531494E0,-1.025337097E1,2.490939888E0,1.060842963E1
7.120201667E-1,-1.708568108E-1,-8.529448662E0,2.954409204E0,9.028245692E0
7.219871667E-1,9.944797470E-1,-6.600925843E0,3.506322042E0,7.540259029E0
7.319531667E-1,2.016392583E0,-4.530236161E0,3.428892920E0,6.028779759E0
7.419201666E-1,2.880051040E0,-2.484768444E0,3.178191503E0,4.956780149E0
7.518871666E-1,3.414112913E0,-6.775928915E-2,2.210641619E0,4.067885774E0
7.618531666E-1,3.765968238E0,2.617117832E0,1.778781181E0,4.918931287E0
7.718201667E-1,4.250813513E0,5.004807293E0,2.344755696E0,6.972473796E0
7.817861667E-1,4.417502136E0,7.938625528E0,2.603976507E0,9.450756268E0
7.917531667E-1,4.739268858E0,1.161801054E1,2.855352986E0,1.286825081E1
8.017191667E-1,4.928908680E0,1.535225880E1,2.611601276E0,1.633421110E1
8.116861667E-1,5.306086249E0,1.857512244E1,2.086024297E0,1.943042003E1
8.216531667E-1,6.876730235E0,1.897772195E1,1.842301239E0,2.026912487E1
8.316191667E-1,7.245690712E0,1.529398662E1,5.278182167E-1,1.693176460E1
8.415861666E-1,5.980870138E0,1.124603640E1,-9.107205024E-1,1.277002562E1
8.515521666E-1,4.027946011E0,9.542729620E0,-1.342737938E0,1.044466289E1
8.615191666E-1,2.052841348E0,1.002208787E1,-1.952129491E0,1.041475935E1
8.714851667E-1,4.329497374E-1,1.082473048E1,-3.649854522E0,1.143169600E1
8.814521667E-1,-1.023922524E0,1.131962478E1,-5.879114553E0,1.279633973E1
8.914191667E-1,-2.239703450E0,1.121114958E1,-7.027869650E0,1.342002601E1
9.013851667E-1,-4.126882946E0,1.049979135E1,-6.137258014E0,1.284300266E1
9.113521667E-1,-4.513541484E0,8.057522811E0,-4.188626035E0,1.014102158E1
9.213181667E-1,-3.595557570E0,5.201884189E0,-2.585980531E0,6.831905200E0
9.312851666E-1,-2.457020482E0,4.010111126E0,-1.280163375E0,4.874090599E0
9.412511666E-1,-1.222771711E0,4.593812352E0,-2.762636903E-1,4.761785822E0
9.512181666E-1,-1.247795089E-1,5.737429501E0,2.265231809E-1,5.743255171E0
9.611851667E-1,9.618343035E-1,7.186620385E0,5.613327026E-4,7.250699146E0
9.711511667E-1,1.858862893E0,8.724405942E0,-7.802910483E-1,8.954299772E0
9.811181667E-1,2.503410245E0,1.003009855E1,-1.988359424E0,1.052727472E1
9.910841667E-1,2.779140084E0,1.075499425E1,-3.070403929E0,1.152479506E1
1.001051167E0,2.630851479E0,1.140609925E1,-3.886811182E0,1.233400912E1
1.011017167E0,2.146598674E0,1.181777247E1,-4.566425748E0,1.284989791E1
1.020984167E0,1.452010704E0,1.193643821E1,-5.161085241E0,1.308524715E1
1.030951167E0,9.087746222E-1,1.229712019E1,-5.245250648E0,1.339991383E1
1.040917167E0,6.961484456E-1,1.256530157E1,-4.713209572E0,1.343822052E1
1.050884167E0,1.057749179E0,1.232397178E1,-3.739727104E0,1.292225493E1
1.060850167E0,1.793373493E0,1.181158846E1,-2.645451100E0,1.223634839E1
1.070817167E0,2.628318173E0,1.116813746E1,-1.856663755E0,1.162250192E1
1.080783167E0,3.453046599E0,1.036530890E1,-1.097367427E0,1.098031760E1
1.090750167E0,4.041741639E0,9.732716181E0,-2.953463709E-1,1.054270692E1
1.100717167E0,4.094727938E0,9.234018853E0,4.952372387E-1,1.011331602E1
1.110683167E0,4.508799684E0,8.867840481E0,1.104015711E-1,9.948872192E0
1.120650167E0,4.322731342E0,8.217915444E0,2.263594589E-1,9.288238752E0
1.130616167E0,3.915586792E0,6.881516765E0,-1.335767180E-2,7.917529371E0
1.140583167E0,3.780627208E0,5.103192544E0,-1.611439132E0,6.552286036E0
1.150549167E0,2.218264488E0,2.013050753E0,-1.036109072E0,3.169636049E0
1.160516167E0,1.586591681E0,-6.412910963E0,2.106796238E0,6.934067390E0
1.170483167E0,-1.135203590E0,-2.273978191E1,5.395675533E0,2.339871114E1
1.180449167E0,-7.820404767E0,-3.462847877E1,7.289722000E0,3.624127922E1
1.190416167E0,-1.520396288E1,-2.380734550E1,6.182927692E0,2.891675607E1
1.200382167E0,-1.158881656E1,-1.107740855E1,3.204374750E0,1.634862890E1
1.210349167E0,-3.520293964E0,-9.622852262E0,5.423763219E0,1.159348794E1
1.220316167E0,2.925548517E0,-1.046161254E1,5.478936961E0,1.216646709E1
1.230282167E0,6.715458180E0,-1.145929956E1,1.679039669E0,1.338775930E1
1.240249167E0,7.469403428E0,-1.069420660E1,2.019641443E-1,1.304602743E1
1.250215167E0,2.716199486E0,-9.416477124E0,6.900626636E-1,9.824661193E0
1.260182167E0,-1.681860658E0,-1.076765581E1,-3.968138351E-1,1.090543572E1
1.270148167E0,-3.643196590E0,-1.140397905E1,-1.671815434E0,1.208795212E1
1.280115167E0,-5.167186811E0,-1.102534377E1,-1.900446244E0,1.232354335E1
1.290082167E0,-5.828485851E0,-1.025632967E1,-1.105192829E0,1.184841748E1
1.300048167E0,-5.184211564E0,-8.783986731E0,4.977348038E-1,1.021186625E1
1.310015167E0,-3.545307768E0,-7.436736204E0,2.354697132E0,8.568480094E0
1.319981167E0,-2.546926686E0,-5.569641309E0,2.643295231E0,6.670438481E0
1.329948167E0,-2.208931455E0,-4.257065356E0,1.544018689E0,5.038449893E0
1.339915167E0,-2.059892798E0,-3.825046751E0,7.345045723E-1,4.406091006E0
1.349881167E0,-1.961605927E0,-3.611476030E0,4.216859901E-1,4.131401215E0
1.359848167E0,-1.723101363E0,-3.486516353E0,-1.024421950E-1,3.890420156E0
1.369814167E0,-1.406257996E0,-3.650184597E0,-8.803545959E-1,4.009542787E0
1.379781167E0,-8.523992772E-1,-3.753395555E0,-1.403949953E0,4.097027971E0
1.389748167E0,-2.412988025E-1,-3.358854094E0,-1.509409604E0,3.690317505E0
1.399715167E0,1.657055600E-1,-2.227685668E0,-1.128707626E0,2.502802963E0
1.409682167E0,1.935538747E-1,-1.014300712E0,-5.955279507E-1,1.192024570E0
1.419648167E0,-1.949072859E-1,-1.958209133E-1,-3.394519186E-1,4.376782896E-1
1.429615167E0,-7.331308421E-1,4.075608712E-1,-3.507228653E-1,9.091717239E-1
1.439581167E0,-1.025433153E0,7.783316463E-1,-5.848756394E-1,1.413998874E0
1.449548167E0,-1.095275658E0,8.522351897E-1,-8.709506652E-1,1.638440920E0
1.459515167E0,-1.111200185E0,8.214618784E-1,-1.124699213E0,1.781716529E0
1.469481167E0,-1.022449538E0,7.728335094E-1,-1.285036152E0,1.814935977E0
1.479448167E0,-9.443088095E-1,8.068836004E-1,-1.281069986E0,1.784354388E0
1.489414167E0,-9.173980227E-1,9.411356717E-1,-1.216666560E0,1.790986600E0
1.499381167E0,-8.575500163E-1,1.171805990E0,-1.313957065E0,1.958316746E0
1.509347167E0,-8.292389676E-1,1.409504662E0,-1.462706138E0,2.194048747E0
1.519314167E0,-9.143994974E-1,1.644643423E0,-1.526894241E0,2.423300322E0
1.529281167E0,-1.030972220E0,1.773110844E0,-1.468314642E0,2.522453898E0
1.539247167E0,-1.088685189E0,1.653142936E0,-1.286709187E0,2.360876434E0
1.549214167E0,-1.046168476E0,1.275492911E0,-1.035870506E0,1.947916413E0
1.559180167E0,-8.468918578E-1,8.685711408E-1,-7.942110761E-1,1.449969958E0
1.569147167E0,-5.920488574E-1,5.331871301E-1,-5.778329605E-1,9.842262420E-1
1.579114167E0,-4.787429743E-1,3.093726718E-1,-3.602995813E-1,6.743308341E-1
1.589080167E0,-4.277001072E-1,1.893094540E-2,-3.480012788E-1,5.517160977E-1
1.599047167E0,-2.628005493E-1,-2.619347960E-1,-6.347640833E-1,7.352546549E-1
1.609013167E0,-1.554365337E-2,-3.666426408E-1,-9.420881832E-1,1.011038365E0
1.618980167E0,1.123961294E-1,-3.815471935E-1,-8.529155132E-1,9.411036200E-1
1.628947167E0,2.140259269E-1,-4.040426016E-1,-5.895314848E-1,7.460595773E-1
1.638913167E0,2.868878253E-1,-3.337122917E-1,-5.917570813E-1,7.374584471E-1
1.648880167E0,2.735334060E-1,-1.656896263E-1,-6.732755998E-1,7.453681035E-1
1.658846167E0,2.074630120E-1,-3.382088006E-2,-5.867949879E-1,6.233081992E-1
1.668813167E0,1.231121023E-1,-7.980572283E-2,-6.099107856E-1,6.273091020E-1
1.678779167E0,4.307599917E-2,-1.648628300E-1,-7.378005016E-1,7.572218133E-1
1.688746167E0,-5.327865958E-2,-2.103413039E-1,-8.529304236E-1,8.800979418E-1
1.698713167E0,-2.016701389E-1,-1.659398872E-1,-9.485812238E-1,9.838766331E-1
1.708679167E0,-3.564190401E-1,6.591098428E-2,-1.011815353E0,1.074778627E0
1.718646167E0,-5.333297656E-1,4.606003797E-1,-1.010143634E0,1.231658845E0
1.728612167E0,-7.325651971E-1,9.755640775E-1,-9.906668508E-1,1.571559050E0
1.738579167E0,-7.987809674E-1,1.487047513E0,-1.070861121E0,1.999025983E0
1.748546167E0,-7.018876339E-1,1.976183474E0,-1.158269978E0,2.395733023E0
1.758512167E0,-5.070610031E-1,2.498611727E0,-1.307749369E0,2.865376038E0
1.768479167E0,-3.394935800E-1,3.048801391E0,-1.511892917E0,3.419980410E0
1.778445167E0,-3.351854612E-1,3.678353559E0,-1.804409527E0,4.110781913E0
1.788412167E0,-4.267132799E-1,4.405459503E0,-2.184087366E0,4.935625115E0
1.798379167E0,-5.989082260E-1,5.221533757E0,-2.541364229E0,5.837948097E0
1.808345167E0,-7.909576853E-1,6.075102112E0,-2.720081160E0,6.703082966E0
1.818312167E0,-9.149967174E-1,6.870899976E0,-2.641236427E0,7.417723056E0
1.828278167E0,-8.929163155E-1,7.649093043E0,-2.444734313E0,8.079767929E0
1.838245167E0,-7.847048190E-1,8.085161430E0,-2.415740017E0,8.474750547E0
1.848211167E0,-5.171008551E-1,7.913622833E0,-2.376116068E0,8.278813152E0
1.858178167E0,-1.599459064E-1,7.388141164E0,-2.099835713E0,7.682416454E0
1.868145167E0,-2.413278924E-1,6.258109437E0,-1.850255499E0,6.530361267E0
1.878111167E0,-4.918293352E-1,4.680820091E0,-1.652020270E0,4.988100219E0
1.888078167E0,-9.004910910E-1,3.285295537E0,-1.482074456E0,3.714915296E0
1.898044167E0,-1.501116060E0,1.465715116E0,-1.107509422E0,2.372392747E0
1.908011167E0,-2.462308120E0,-1.280385861E0,-6.679305138E-1,2.854554326E0
1.917978167E0,-3.246741920E0,-4.268486722E0,1.622193038E-2,5.362981926E0
1.927944167E0,-3.304615029E0,-7.829600099E0,1.112551915E0,8.570932852E0
1.937911167E0,-3.084959988E0,-1.189564803E1,1.662849314E0,1.240114866E1
1.947877167E0,-2.713872001E0,-1.628384304E1,2.510504672E0,1.669824180E1
1.957844167E0,-3.128789547E0,-1.913831807E1,2.675170743E0,1.957603333E1
1.967811167E0,-3.691696320E0,-1.976478875E1,3.008854383E0,2.033048698E1
1.977777167E0,-3.727784166E0,-2.002260886E1,3.252102647E0,2.062467969E1
1.987744167E0,-3.605959767E0,-2.009263512E1,2.289731643E0,2.054166018E1
1.997710167E0,-3.305531873E0,-1.983692001E1,1.464758950E0,2.016371630E1
2.007677167E0,-2.925971856E0,-1.946037335E1,1.329053699E0,1.972394043E1
2.017644167E0,-2.475388926E0,-1.896165263E1,1.298517492E0,1.916658469E1
2.027610167E0,-1.852765124E0,-1.777774466E1,1.395236579E0,1.792840286E1
2.037577167E0,-1.007366499E0,-1.580126766E1,1.949020526E0,1.595285328E1
2.047543167E0,-8.433497608E-2,-1.317806404E1,2.611498950E0,1.343459754E1
2.057510167E0,8.088144241E-1,-1.049758111E1,3.588001213E0,1.112327032E1
2.067476167E0,1.955987776E0,-7.949293773E0,4.617331023E0,9.398771486E0
2.077443167E0,3.210465209E0,-4.845857753E0,4.510072623E0,7.357321475E0
2.087410167E0,3.936008193E0,-9.810382408E-1,3.947552935E0,5.660191755E0
2.097376167E0,4.094430315E0,2.911729208E0,2.687270386E0,5.697714341E0
2.107343167E0,4.165679807E0,5.947176728E0,1.562887946E0,7.427275275E0
2.117309167E0,4.577130831E0,8.376800666E0,1.739598112E0,9.702943761E0
2.127276167E0,4.663041924E0,1.090198740E1,1.861210842E0,1.200255786E1
2.137243167E0,4.305199050E0,1.382037367E1,1.399070013E0,1.454286299E1
2.147209167E0,3.490050995E0,1.703807071E1,6.372485653E-1,1.740351675E1
2.157176167E0,3.232634635E0,1.934242332E1,-2.747957468E-1,1.961261786E1
2.167142167E0,3.887350003E0,1.894688257E1,-8.090622729E-1,1.935847181E1
2.177109167E0,4.290302976E0,1.545506337E1,-1.264129725E0,1.608924198E1
2.187075167E0,4.440520285E0,1.193457879E1,-1.459535486E0,1.281727877E1
2.197042167E0,4.017038907E0,1.010617434E1,-1.215409847E0,1.094296954E1
2.207009167E0,3.193243990E0,9.652404090E0,-1.537967990E0,1.028256084E1
2.216975167E0,2.191778647E0,9.370142618E0,-2.454963432E0,9.931279463E0
2.226942167E0,1.256922593E0,8.947812265E0,-3.548641266E0,9.707525615E0
2.236908167E0,4.851866059E-1,8.487119499E0,-4.450228125E0,9.595370435E0
2.246875167E0,-4.477643526E-1,7.845804487E0,-4.795449784E0,9.206165304E0
2.256842167E0,-1.303984347E0,6.761224921E0,-4.311661101E0,8.124343608E0
2.266808167E0,-1.390671658E0,5.188337944E0,-3.206625051E0,6.255818292E0
2.276775167E0,-7.784382118E-1,4.263639380E0,-2.347310929E0,4.928940598E0
2.286741167E0,-4.270214282E-2,4.952467112E0,-1.983478168E0,5.335066973E0
2.296708167E0,6.654387228E-2,6.285176198E0,-1.872544208E0,6.558528016E0
2.306674167E0,2.377463997E-1,8.005675550E0,-1.674897209E0,8.182459595E0
2.316641167E0,8.776219728E-1,9.831791403E0,-1.508085502E0,9.985422595E0
2.326608167E0,1.647180530E0,1.135744457E1,-1.664401749E0,1.159633494E1
2.336574167E0,2.393326470E0,1.255680089E1,-1.942075496E0,1.292953663E1
2.346541167E0,2.800672456E0,1.316467041E1,-2.070558704E0,1.361761824E1
2.356507167E0,2.893880582E0,1.268376148E1,-2.219070673E0,1.319759921E1
2.366474167E0,2.942121280E0,1.188332911E1,-2.505547110E0,1.249589352E1
2.376441167E0,2.936981286E0,1.163093756E1,-2.727480811E0,1.230218351E1
2.386407167E0,2.705097085E0,1.148740245E1,-2.829666460E0,1.213610224E1
2.396373542E0,2.411098936E0,1.113021125E1,-2.761600776E0,1.171842307E1
2.406339542E0,2.108616184E0,1.081486272E1,-2.607694459E0,1.132287897E1
2.416306542E0,1.560636037E0,1.056411306E1,-1.920093766E0,1.085001520E1
2.426272542E0,9.764052726E-1,1.001158393E1,-1.295434987E0,1.014215617E1
2.436239542E0,5.204367647E-1,9.154178047E0,-8.375950773E-1,9.207138299E0
2.446206542E0,-2.722531582E-1,7.890038674E0,-9.877248242E-2,7.895352308E0
2.456172542E0,-4.225155638E-1,5.565205611E0,1.119956390E0,5.692480585E0
2.466139542E0,-1.587070276E0,2.182583755E0,3.021759481E0,4.051357089E0
2.476105542E0,-3.533700460E0,-3.861542732E0,7.845036163E0,9.430967268E0
2.486072542E0,-1.282392918E0,-2.706540002E1,7.162687731E0,2.802649649E1
2.496039542E0,1.946503007E0,-3.869211122E1,5.678459162E0,3.915499001E1
2.506005542E0,7.940982248E-1,-1.687640222E1,3.739031285E0,1.730386947E1
2.515972542E0,-2.514333721E0,-5.421424332E0,1.501212246E0,6.161765498E0
2.525938542E0,-1.990601246E0,-6.797846618E0,2.462344372E0,7.499090063E0
2.535905542E0,3.892272774E0,-7.793801106E0,3.740682539E0,9.480813724E0
2.545872542E0,6.840159409E0,-8.327983432E0,1.700148118E0,1.091025171E1
2.555838542E0,6.488537096E0,-6.268849018E0,2.859485798E-1,9.026701958E0
2.565805542E0,3.527367633E0,-5.566943403E0,-1.258454125E0,6.709462576E0
2.575771542E0,-1.498934463E0,-7.073903024E0,-1.797103139E0,7.450938747E0
2.585738542E0,-6.026052743E0,-9.105545585E0,-1.749215612E0,1.105821086E1
2.595704542E0,-9.017652578E0,-1.158097193E1,-2.924978998E0,1.496637802E1
2.605671542E0,-1.016952073E1,-1.160082440E1,-2.330619467E0,1.560224554E1
2.615638542E0,-8.235070006E0,-9.736311049E0,-4.477167709E-1,1.275980334E1
2.625604542E0,-4.933397588E0,-8.531272409E0,1.004279754E0,9.906038487E0
2.635571542E0,-2.411357529E0,-7.435366786E0,8.849313578E-1,7.866538494E0
2.645537542E0,-8.362164500E-1,-6.246098671E0,1.757170165E-1,6.304274980E0
2.655504542E0,4.032562973E-1,-4.874120269E0,-5.566644318E-1,4.922350996E0
2.665471542E0,8.697973019E-1,-3.826269988E0,-1.009989560E0,4.051785814E0
2.675437542E0,4.512125288E-1,-3.195768233E0,-1.209260915E0,3.446569208E0
2.685404542E0,-3.923835459E-1,-2.940931372E0,-7.248190981E-1,3.054243754E0
2.695370542E0,-7.811742702E-1,-2.834690387E0,1.809034967E-1,2.945917329E0
2.705337542E0,-1.418890320E0,-2.743010724E0,7.389744763E-1,3.175443410E0
2.715303542E0,-2.142618328E0,-2.946666321E0,6.745675421E-1,3.705225645E0
2.725270542E0,-2.666389394E0,-3.139846047E0,4.095043395E-1,4.139560291E0
2.735237542E0,-3.017179064E0,-3.229347038E0,1.942100054E-1,4.423773200E0
2.745203542E0,-3.222347629E0,-3.170398918E0,4.177367806E-2,4.520696692E0
2.755170542E0,-3.187040094E0,-2.944751943E0,5.879360721E-2,4.339613491E0
2.765136542E0,-2.940326185E0,-2.514940077E0,1.661088717E-1,3.872729506E0
2.775103542E0,-2.386390503E0,-1.811407768E0,2.768092355E-1,3.008767370E0
2.785070542E0,-1.706625078E0,-9.500766492E-1,3.037523282E-1,1.976734751E0
2.795036542E0,-1.178239974E0,-1.180546993E-1,2.623269980E-1,1.212848631E0
2.805003542E0,-7.940763708E-1,6.072643358E-1,2.117357187E-1,1.021841118E0
2.814969542E0,-5.360202523E-1,1.143762159E0,1.742762625E-2,1.263255046E0
2.824936542E0,-3.510225351E-1,1.417268595E0,-3.217427489E-1,1.495120559E0
2.834902542E0,-1.920876123E-1,1.579687874E0,-6.045348555E-1,1.702284882E0
2.844869542E0,-9.264840111E-2,1.578192741E0,-8.479363167E-1,1.793954305E0
2.854836542E0,-2.165801369E-1,1.516062566E0,-1.079936877E0,1.873930713E0
2.864802542E0,-4.579682556E-1,1.573281080E0,-1.281347144E0,2.080095859E0
2.874769542E0,-6.614466825E-1,1.632144415E0,-1.608155043E0,2.384862626E0
2.884735542E0,-8.366692438E-1,1.695291420E0,-1.857781743E0,2.650543609E0
2.894702542E0,-9.906392958E-1,1.770946205E0,-1.961334762E0,2.822135844E0
2.904669542E0,-1.089114593E0,1.875325436E0,-1.878132977E0,2.868867297E0
2.914635542E0,-1.120546155E0,2.021088336E0,-1.696651190E0,2.866888036E0
2.924602542E0,-1.092531487E0,2.015760353E0,-1.460555533E0,2.718480700E0
2.934568542E0,-8.917812248E-1,1.715562547E0,-1.186091908E0,2.268312725E0
2.944535542E0,-5.593817791E-1,1.126565498E0,-9.471699983E-1,1.574543998E0
2.954501542E0,-1.829032445E-1,3.377041858E-1,-9.047010863E-1,9.828437157E-1
2.964468542E0,1.129847979E-1,-4.507706255E-1,-8.904751030E-1,1.004442945E0
2.974435542E0,2.563143061E-1,-1.010784196E0,-7.041111839E-1,1.258234586E0
2.984401542E0,2.057817914E-1,-1.145540882E0,-4.735654110E-1,1.256532633E0
2.994368542E0,1.460678324E-2,-9.414824116E-1,-3.789445978E-1,1.014988422E0
3.004334542E0,-1.129543193E-1,-4.728695923E-1,-3.573993623E-1,6.034058616E-1
3.014301542E0,-1.415096354E-1,1.610995620E-1,-6.098172301E-1,6.464171254E-1
3.024268542E0,-7.929829415E-2,7.065155590E-1,-1.073346772E0,1.287449319E0
3.034234542E0,7.694204897E-4,1.205958992E0,-1.252066919E0,1.738392721E0
3.044201542E0,1.128174213E-1,1.623235012E0,-1.385212697E0,2.136921592E0
3.054167542E0,2.077714892E-1,1.855629090E0,-1.650536539E0,2.492147503E0
3.064134542E0,2.023057678E-1,2.000523679E0,-1.861803750E0,2.740316736E0
3.074100542E0,4.794059023E-2,2.126613037E0,-2.053155636E0,2.956387893E0
3.084067542E0,9.668663442E-2,2.482635965E0,-2.070206117E0,3.233973254E0
3.094034542E0,3.123812470E-1,3.149365314E0,-1.974149520E0,3.730060355E0
3.104000542E0,4.401035500E-1,3.867323874E0,-1.858448617E0,4.313202563E0
3.113967542E0,5.047287681E-1,4.543183651E0,-1.756497442E0,4.896994188E0
3.123933542E0,5.858046523E-1,5.386135216E0,-1.712018258E0,5.681956193E0
3.133900542E0,7.219068924E-1,6.474578038E0,-1.755723856E0,6.747138400E0
3.143866542E0,8.751116900E-1,7.755638083E0,-1.578661980E0,7.962908777E0
3.153833542E0,8.170143400E-1,9.159889607E0,-1.229205475E0,9.278040534E0
3.163800542E0,4.954781805E-1,1.031241148E1,-1.148681714E0,1.038801227E1
3.173766542E0,5.245638026E-1,1.129021680E1,-1.175150598E0,1.136332440E1
3.183733542E0,4.655189113E-1,1.176990716E1,-1.277031314E0,1.184813198E1
3.193699542E0,-2.609155532E-2,1.116385496E1,-1.552955281E0,1.127138006E1
3.203666542E0,-7.258523742E-1,9.507067451E0,-1.801627422E0,9.703455805E0
3.213633542E0,-1.596317209E0,6.570013953E0,-2.340163585E0,7.154696190E0
3.223599542E0,-1.843012845E0,3.161593012E0,-2.380405878E0,4.365626972E0
3.233566542E0,-1.275382838E0,-4.456022716E-1,-5.707268393E-1,1.466591931E0
3.243532542E0,-3.613870465E0,-1.228974335E1,-1.105359547E0,1.285766973E1
3.253499542E0,-7.365742235E0,-2.266485101E1,3.196911071E-1,2.383383797E1
3.263465542E0,-5.732671621E0,-1.883650585E1,2.553984275E0,1.985447839E1
3.273432542E0,-2.699016565E0,-1.098952373E1,2.842406081E0,1.166763020E1
3.283399542E0,-5.323962942E-3,-9.503418789E0,2.279445075E0,9.772966124E0
3.293365542E0,1.998980014E0,-1.244081786E1,7.638445848E-1,1.262352283E1
3.303332542E0,1.794242827E0,-1.720645883E1,-8.697148561E-3,1.729975747E1
3.313298542E0,8.301411199E-1,-2.046983432E1,-6.635176201E-1,2.049740245E1
3.323265542E0,-1.148337606E0,-1.916687587E1,3.884539247E-2,1.920128430E1
3.333231542E0,-3.727848777E0,-1.704904711E1,1.040402098E0,1.748282873E1
3.343198542E0,-5.987650570E0,-1.641223737E1,4.966233212E-1,1.747741771E1
3.353165542E0,-7.060671945E0,-1.620829234E1,1.921710813E-1,1.768046262E1
3.363131542E0,-6.815788214E0,-1.633818473E1,4.677225807E-1,1.770903762E1
3.373098542E0,-5.768130307E0,-1.601858294E1,6.714059526E-1,1.703869456E1
3.383064542E0,-4.262916664E0,-1.422911275E1,9.191776228E-1,1.488237198E1
3.393031792E0,-2.963481452E0,-1.182509319E1,1.703174636E0,1.230917767E1
3.402998792E0,-2.109766916E0,-9.585470427E0,3.286625486E0,1.035056843E1
3.412964792E0,-1.508556495E0,-7.408538007E0,4.030559717E0,8.567822928E0
3.422931792E0,-1.026402694E-1,-4.890319396E0,3.892540576E0,6.251210359E0
3.432897792E0,2.098065176E0,-1.632388244E0,2.942558360E0,3.965503570E0
3.442864792E0,4.182565981E0,2.032008011E0,2.201814955E0,5.144988225E0
3.452830792E0,6.086563239E0,6.039942219E0,2.231749775E0,8.860466192E0
3.462797792E0,7.216313716E0,1.019252719E1,2.605930062E0,1.275749449E1
3.472764792E0,6.675059767E0,1.425836988E1,2.719921823E0,1.597671772E1
3.482730792E0,5.321600667E0,1.837068273E1,2.203763832E0,1.925248017E1
3.492697792E0,4.664857484E0,2.213225854E1,1.289155808E0,2.265523530E1
3.502663792E0,5.008853567E0,2.307222887E1,-5.047667384E-2,2.360972060E1
3.512630792E0,5.828326807E0,1.895376123E1,-1.142078454E0,1.986249736E1
3.522596792E0,6.651003152E0,1.345268203E1,-1.452574376E0,1.507715057E1
3.532563792E0,6.528178879E0,1.053840052E1,-9.422752941E-1,1.243233235E1
3.542530792E0,5.253413361E0,9.056008558E0,-1.369840659E0,1.055869814E1
3.552496792E0,3.521357280E0,7.401689163E0,-2.756707242E0,8.647797082E0
3.562463792E0,1.800972534E0,5.872871481E0,-3.872194605E0,7.261405687E0
3.572429792E0,2.968021084E-2,4.820866168E0,-4.031123973E0,6.284233606E0
3.582396792E0,-1.612684150E0,4.150585805E0,-3.643826920E0,5.753745503E0
3.592363792E0,-2.682376559E0,3.752827790E0,-2.933195798E0,5.466488637E0
3.602329792E0,-3.018639991E0,4.146334879E0,-1.871899845E0,5.459696819E0
3.612296792E0,-2.839564919E0,5.051968596E0,-8.697888234E-1,5.860208889E0
3.622262792E0,-1.960840965E0,6.044165078E0,-5.085542724E-1,6.374594594E0
3.632229792E0,-1.358394881E0,7.036358637E0,-3.966739404E-1,7.177250848E0
3.642195792E0,-5.653308825E-1,8.491590865E0,-5.705180937E-1,8.529490331E0
3.652162792E0,6.789925687E-1,1.031442292E1,-1.340562481E0,1.042331324E1
3.662129792E0,1.600911805E0,1.171543216E1,-2.530597751E0,1.209207155E1
3.672095792E0,1.957818832E0,1.255089169E1,-3.779366840E0,1.325298270E1
3.682062792E0,1.998895521E0,1.317275243E1,-4.947043819E0,1.421232678E1
3.692028792E0,1.836712617E0,1.319169507E1,-5.903408564E0,1.456861575E1
3.701995792E0,1.631664358E0,1.267772599E1,-6.221519900E0,1.421599010E1
3.711961792E0,1.278301914E0,1.220432371E1,-5.796143147E0,1.357110344E1
3.721928792E0,7.183161172E-1,1.176903476E1,-4.995470459E0,1.280550203E1
3.731895792E0,1.897974041E-1,1.126717409E1,-4.162934539E0,1.201312861E1
3.741861792E0,2.199054484E-1,1.094802253E1,-3.239472077E0,1.141935791E1
3.751828792E0,6.093298647E-1,1.083389892E1,-1.899087351E0,1.101595122E1
3.761794792E0,1.473310649E0,1.078685339E1,-4.364499173E-1,1.089574866E1
3.771761792E0,2.430352209E0,1.061690173E1,4.407791957E-1,1.090043579E1
3.781727792E0,2.595968745E0,9.707362069E0,1.008908994E0,1.009900141E1
3.791694792E0,3.587194297E0,7.567482285E0,1.533589010E0,8.513908991E0
3.801661792E0,3.924823639E0,4.156941728E0,2.639102778E0,6.296766519E0
3.811627792E0,4.584053349E0,-2.097291589E0,4.074847405E0,6.482018088E0
3.821594792E0,6.955347219E0,-1.524156048E1,2.845845121E0,1.699355334E1
3.831560792E0,3.881347544E0,-2.824015243E1,1.857246430E0,2.856607135E1
3.841527792E0,-1.951794153E0,-2.673859680E1,4.471247403E-1,2.681346639E1
3.851494792E0,-8.138869275E0,-1.361172864E1,6.422137284E-1,1.587239075E1
3.861460792E0,-8.680685141E0,-8.407010306E0,1.388537570E0,1.216388726E1
3.871427792E0,-4.827571755E0,-8.064514911E0,2.789224777E0,9.804163639E0
3.881393792E0,-1.426817391E0,-9.626156523E0,4.161256973E0,1.058370242E1
3.891360792E0,-2.583900677E-1,-1.315386943E1,4.773079798E0,1.399547560E1
3.901326792E0,-1.440843399E0,-1.574952682E1,1.949248129E0,1.593496761E1
3.911293792E0,-4.150948917E0,-1.352183705E1,-6.080860157E-1,1.415769130E1
3.921260792E0,-6.460476308E0,-8.765964442E0,-1.260744625E0,1.096217879E1
3.931226792E0,-7.721893217E0,-7.019073098E0,-1.899022008E0,1.060666331E1
3.941193792E0,-8.241209582E0,-7.562286449E0,-2.737519019E0,1.151519527E1
3.951159792E0,-7.186705170E0,-7.628944708E0,-3.023584104E0,1.090832661E1
3.961126792E0,-4.892610919E0,-6.441360590E0,-2.435713813E0,8.447571820E0
3.971092792E0,-2.918433040E0,-5.620148388E0,-1.491365827E0,6.505958142E0
3.981059792E0,-1.301396808E0,-5.591823891E0,-6.473341352E-1,5.777643945E0
3.991026792E0,-4.206386076E-1,-5.293662086E0,1.241970532E-1,5.311800074E0
4.000992792E0,-3.389977361E-1,-4.524105356E0,2.643653373E-1,4.544484323E0
4.010959792E0,-8.200268255E-1,-3.946013948E0,6.232785438E-1,4.078228319E0
4.020925792E0,-1.395253828E0,-3.582901856E0,9.652921276E-1,3.964304207E0
4.030892792E0,-1.682941808E0,-3.345092087E0,1.010969261E0,3.878658666E0
4.040858792E0,-1.644577057E0,-3.109317150E0,9.242025737E-1,3.636844406E0
4.050825792E0,-1.528730266E0,-2.483506030E0,4.346152072E-1,2.948509591E0
4.060792792E0,-1.316050807E0,-1.673108838E0,-8.527710870E-2,2.130388485E0
4.070758792E0,-9.104936305E-1,-9.788262391E-1,-4.561513795E-1,1.412506120E0
4.080725792E0,-4.083335808E-1,-5.259780979E-1,-6.415420295E-1,9.246434169E-1
4.090691792E0,3.261386856E-2,-2.340312982E-1,-7.219675572E-1,7.596522011E-1
4.100658792E0,2.593467452E-1,-4.874414384E-2,-7.290516052E-1,7.753405502E-1
4.110624792E0,2.789452965E-1,4.774310052E-2,-6.347563358E-1,6.949859624E-1
4.120591792E0,1.315018335E-1,2.380109131E-2,-5.145131698E-1,5.315853893E-1
4.130558792E0,-5.523060635E-2,-7.681311786E-2,-3.843848473E-1,3.958565217E-1
4.140524792E0,-1.501269695E-1,-2.298511237E-1,-2.062210634E-1,3.433609952E-1
4.150491792E0,-1.712422885E-1,-3.518871921E-1,-6.585865170E-2,3.968449059E-1
4.160457792E0,-1.791032852E-1,-3.288427305E-1,-3.464036733E-2,3.760525006E-1
4.170424792E0,-1.962386969E-1,-4.364361763E-3,-1.778316620E-1,2.648636891E-1
4.180391792E0,-1.877099481E-1,5.326380765E-1,-4.753827256E-1,7.381917644E-1
4.190357792E0,-1.921995865E-1,8.886066252E-1,-8.242030531E-1,1.227140207E0
4.200324792E0,-1.172516573E-1,1.134823521E0,-1.050188144E0,1.550634551E0
4.210290792E0,8.236599930E-2,1.375619463E0,-1.110796435E0,1.770023102E0
4.220257792E0,3.179088758E-1,1.574572145E0,-1.067060139E0,1.928460742E0
4.230223792E0,5.779651807E-1,1.697718015E0,-1.022920969E0,2.064620429E0
4.240190792E0,8.102606598E-1,1.844527566E0,-9.509847218E-1,2.227818714E0
4.250157792E0,9.849583603E-1,1.997109489E0,-9.077246815E-1,2.404694031E0
4.260123792E0,1.073850072E0,2.124660067E0,-8.810619628E-1,2.538425606E0
4.270090792E0,1.072920730E0,2.220809927E0,-8.030019262E-1,2.593832631E0
4.280056792E0,1.009141713E0,2.273941821E0,-7.563689196E-1,2.600244671E0
4.290023792E0,8.332436525E-1,2.285436278E0,-7.027724639E-1,2.532074861E0
4.299989792E0,5.813165854E-1,2.224252183E0,-6.087009966E-1,2.378180743E0
4.309956792E0,3.090724173E-1,2.141628102E0,-5.227866876E-1,2.226073361E0
4.319923792E0,1.449354460E-1,2.033082145E0,-5.227314314E-1,2.104204705E0
4.329889792E0,2.132040276E-1,1.916942409E0,-5.765661612E-1,2.013095302E0
4.339856792E0,3.298154148E-1,1.845615733E0,-5.392489386E-1,1.950862645E0
4.349822792E0,3.646839698E-1,1.795688113E0,-4.425406694E-1,1.885028499E0
4.359789792E0,4.275616378E-1,1.801811317E0,-3.900054833E-1,1.892468561E0
4.369755792E0,5.285165935E-1,2.010303732E0,-3.730707774E-1,2.111831595E0
4.379722792E0,6.154374276E-1,2.418732914E0,-3.729681587E-1,2.523516868E0
4.389689792E0,6.344166856E-1,2.853329557E0,-4.498119745E-1,2.957415240E0
4.399656333E0,6.105723980E-1,3.303575687E0,-5.174224520E-1,3.399137680E0
4.409623333E0,5.761536402E-1,3.742989265E0,-6.952473897E-1,3.850362397E0
4.419589333E0,5.593316393E-1,4.068228357E0,-9.556279957E-1,4.216225648E0
4.429556333E0,5.313212105E-1,4.307153190E0,-1.156110602E0,4.491153811E0
4.439522333E0,4.059143684E-1,4.458397270E0,-1.368935218E0,4.681458781E0
4.449489333E0,2.729312159E-1,4.450108842E0,-1.440692541E0,4.685462106E0
4.459456333E0,1.939122359E-1,4.425500250E0,-1.437958383E0,4.657293069E0
4.469422333E0,-2.018758513E-2,4.477873760E0,-1.576780930E0,4.747420253E0
4.479389333E0,-2.875714014E-1,4.590271279E0,-1.835825448E0,4.952125079E0
4.489355333E0,-6.367699707E-1,4.670061799E0,-2.100813367E0,5.160268404E0
4.499322333E0,-1.004574380E0,4.599847264E0,-2.330392157E0,5.253426705E0
4.509288333E0,-1.407798445E0,4.246246837E0,-2.620345495E0,5.184469035E0
4.519255333E0,-1.892045257E0,3.495271974E0,-2.949905971E0,4.949616820E0
4.529222333E0,-2.386140096E0,2.212492263E0,-3.243739375E0,4.594630747E0
4.539188333E0,-3.006775698E0,3.850742340E-2,-3.085144760E0,4.308166792E0
4.549155333E0,-3.846153153E0,-2.767041610E0,-2.278091737E0,5.257291633E0
4.559121333E0,-4.683998637E0,-5.696632892E0,-9.368797758E-1,7.434326685E0
4.569088333E0,-5.010931667E0,-9.186067007E0,7.033242948E-1,1.048751297E1
4.579054333E0,-4.565868509E0,-1.263711473E1,2.826801909E0,1.373079142E1
4.589021333E0,-3.956959936E0,-1.483987898E1,2.764738977E0,1.560523380E1
4.598988333E0,-2.293749849E0,-1.679847403E1,2.369085376E0,1.711907076E1
4.608954333E0,-1.177351051E0,-1.856621596E1,1.719557950E0,1.868281056E1
4.618921333E0,-6.369374203E-1,-1.800954583E1,1.146046959E-1,1.802116990E1
4.628887333E0,-2.467416832E-1,-1.660562701E1,-9.441319312E-1,1.663427531E1
4.638854333E0,-3.345922977E-1,-1.565311091E1,-1.486647563E0,1.572710889E1
4.648821333E0,-6.123208617E-1,-1.539197776E1,-1.927003713E0,1.552421527E1
4.658787333E0,-8.049172548E-1,-1.590302090E1,-1.736212720E0,1.601775266E1
4.668754333E0,-9.779954959E-1,-1.690275445E1,-1.024370202E0,1.696198448E1
4.678720333E0,-1.532419421E0,-1.772998110E1,-7.821235657E-3,1.779608384E1
4.688687333E0,-2.308370227E0,-1.742318471E1,1.367566531E0,1.762856139E1
4.698653333E0,-2.457132749E0,-1.515716177E1,2.857998558E0,1.561874547E1
4.708620333E0,-1.810618686E0,-1.156708129E1,4.476953993E0,1.253470489E1
4.718587333E0,-1.397656011E0,-7.944013152E0,6.118486698E0,1.012406375E1
4.728553333E0,-1.174563537E0,-4.407330027E0,6.500934362E0,7.941429661E0
4.738520333E0,-8.540917537E-1,-9.737198657E-1,5.362884348E0,5.517076366E0
4.748486333E0,3.299041463E-1,2.190928316E0,3.798125585E0,4.397131064E0
4.758453333E0,2.484677228E0,5.070774996E0,2.423477930E0,6.144886106E0
4.768419333E0,4.653267134E0,7.896415063E0,2.274038008E0,9.443384707E0
4.778386333E0,5.110926656E0,1.046583189E1,2.857296892E0,1.199247072E1
4.788353333E0,4.276561142E0,1.332687100E1,2.830765151E0,1.427962525E1
4.798319333E0,3.267057486E0,1.658993543E1,1.865544798E0,1.701116926E1
4.808286333E0,3.461841688E0,1.896839564E1,6.704788765E-1,1.929336474E1
4.818252333E0,4.884639995E0,1.895123874E1,-5.575095007E-1,1.957855905E1
4.828219333E0,5.371489695E0,1.627812213E1,-2.157721686E0,1.727674519E1
4.838185333E0,4.625816503E0,1.253061121E1,-3.538826422E0,1.381802041E1
4.848152333E0,4.187784329E0,1.086511135E1,-3.811699312E0,1.225223384E1
4.858119333E0,3.270748541E0,1.053447937E1,-3.625421639E0,1.161106084E1
4.868085333E0,2.255880942E0,1.021361692E1,-3.782372309E0,1.112264851E1
4.878052333E0,1.250720890E0,9.598030831E0,-4.400672095E0,1.063261085E1
4.888018333E0,1.665630542E-1,8.998957275E0,-5.080310635E0,1.033530510E1
4.897985333E0,-9.600728298E-1,8.414723952E0,-5.422498466E0,1.005648093E1
4.907951333E0,-1.901017517E0,7.678679370E0,-4.957828424E0,9.335740310E0
4.917918333E0,-2.641841029E0,6.709533781E0,-3.909851258E0,8.202688854E0
4.927885333E0,-2.599982859E0,5.614773628E0,-2.639629904E0,6.727052831E0
4.937851333E0,-1.545668188E0,5.496451126E0,-1.621172992E0,5.935340512E0
4.947818333E0,-4.396910289E-1,6.232413847E0,-1.171845167E0,6.356849193E0
4.957784333E0,3.976329569E-1,7.351242895E0,-1.035846240E0,7.434504792E0
4.967751333E0,1.090921675E0,9.022461328E0,-9.609972015E-1,9.138842057E0
4.977717333E0,1.802195479E0,1.085073890E1,-1.142637740E0,1.105857424E1
4.987684333E0,2.544570550E0,1.219660890E1,-1.545292505E0,1.255468187E1
4.997651333E0,3.110241010E0,1.278157604E1,-1.990711466E0,1.330433078E1
5.007617333E0,3.567780664E0,1.285387219E1,-2.498961391E0,1.357187891E1
5.017584333E0,3.623316641E0,1.240193972E1,-3.161336026E0,1.330152539E1
5.027550333E0,3.502424581E0,1.189241803E1,-3.532958741E0,1.289101943E1
5.037517333E0,3.151270337E0,1.174725037E1,-3.352941682E0,1.261628368E1
5.047483333E0,2.619856668E0,1.157032298E1,-2.562697796E0,1.213686298E1
5.057450333E0,2.425782171E0,1.123002439E1,-1.512230886E0,1.158812794E1
5.067417333E0,2.475986803E0,1.097265919E1,-6.194703984E-1,1.126558937E1
5.077383333E0,2.064387260E0,1.038526896E1,5.086001730E-1,1.060066886E1
5.087350333E0,1.508082578E0,9.920484309E0,1.819014118E0,1.019799659E1
5.097316333E0,2.127404750E0,9.384157809E0,2.222489101E0,9.875612718E0
5.107283333E0,2.840394346E0,8.068406818E0,2.029147407E0,8.791158503E0
5.117249333E0,2.488611234E0,6.783741964E0,1.929953633E0,7.479108365E0
5.127216333E0,1.364773316E0,4.384915311E0,1.330041586E0,4.781119023E0
5.137183333E0,8.092327192E-1,-3.786865017E0,2.371437272E0,4.540805985E0
5.147149333E0,4.955008020E-1,-3.005376225E1,2.261552595E0,3.014280622E1
5.157116333E0,-6.252330633E0,-5.618615716E1,1.999086872E0,5.656829716E1
5.167082333E0,-1.427263592E1,-2.867435029E1,1.644863717E0,3.207229454E1
5.177049333E0,-1.543256329E1,-3.487356014E0,4.360587385E0,1.641159297E1
5.187015333E0,-8.525935655E0,-5.182692457E0,6.101708112E0,1.169541456E1
5.196982333E0,-2.730675437E0,-6.246005700E0,4.327162362E0,8.074249789E0
5.206949333E0,1.321588120E0,-6.868021976E0,1.706451416E0,7.199187278E0
5.216915333E0,2.826735835E0,-9.963847260E0,-3.270066463E0,1.086103229E1
5.226882333E0,6.271565634E-1,-1.250672533E1,-4.300929413E0,1.324044930E1
5.236848333E0,-1.004902336E0,-1.085113885E1,-4.299192206E0,1.171495184E1
5.246815333E0,-2.925871868E0,-7.054204924E0,-4.662576778E0,8.947745834E0
5.256781333E0,-4.687332427E0,-5.401168993E0,-4.265063177E0,8.326732593E0
5.266748333E0,-5.703347835E0,-5.278645266E0,-3.195882838E0,8.402734049E0
5.276715333E0,-4.917245239E0,-5.157306186E0,-1.675410741E0,7.320116733E0
5.286681333E0,-2.960468674E0,-5.180426077E0,-5.339044373E-1,5.990512754E0
5.296648333E0,-1.255530371E0,-5.239984646E0,-5.039412577E-1,5.411815998E0
5.306614333E0,-7.548144373E-1,-5.171527784E0,-6.680410261E-1,5.268844586E0
5.316581333E0,-8.615312393E-1,-5.311319507E0,-6.989517470E-1,5.425945496E0
5.326547333E0,-4.832083467E-1,-5.842369480E0,-4.896130943E-1,5.882728315E0
5.336514333E0,1.251384549E-1,-5.602535990E0,-2.329092175E-3,5.603933848E0
5.346481333E0,8.748984128E-2,-4.863437406E0,2.353742574E-1,4.869915699E0
5.356447333E0,-2.583403663E-1,-4.103505194E0,2.456402139E-1,4.118960273E0
5.366414333E0,-7.186412224E-1,-3.380742561E0,2.540438323E-1,3.465602940E0
5.376380333E0,-1.117167268E0,-2.651250953E0,2.943627231E-1,2.892031074E0
5.386347333E0,-1.173428593E0,-1.991150592E0,3.683237153E-1,2.340358456E0
5.396313042E0,-9.043189707E-1,-1.421011398E0,4.746141091E-1,1.749949927E0
5.406280042E0,-4.815627940E-1,-9.877192694E-1,6.540239346E-1,1.278764789E0
5.416247042E0,-8.563978225E-4,-6.980996615E-1,8.649410431E-1,1.111515577E0
5.426213042E0,4.816701635E-1,-4.777373993E-1,8.717296605E-1,1.104604803E0
5.436180042E0,9.545623407E-1,-2.393271214E-1,8.357244068E-1,1.291085596E0
5.446146042E0,1.346700011E0,-2.028340638E-2,7.643059301E-1,1.548604498E0
5.456113042E0,1.629225192E0,9.741578221E-2,6.290943307E-1,1.749178161E0
5.466080042E0,1.775123309E0,1.660258412E-1,4.567318618E-1,1.840443245E0
5.476046042E0,1.936378846E0,3.246491075E-1,2.581522322E-1,1.980303677E0
5.486013042E0,2.121347912E0,6.362103921E-1,3.827689692E-2,2.215027256E0
5.495979042E0,2.158098247E0,1.025905096E0,-2.216401711E-2,2.389636071E0
5.505946042E0,2.008648239E0,1.396431457E0,-6.981575489E-2,2.447358331E0
5.515912042E0,1.778210785E0,1.590446751E0,-2.375368501E-1,2.397494154E0
5.525879042E0,1.467333040E0,1.632271299E0,-4.577739818E-1,2.242082261E0
5.535845042E0,1.160221925E0,1.596097500E0,-5.899004441E-1,2.059520497E0
5.545812042E0,7.972256081E-1,1.530861869E0,-7.220141888E-1,1.870938593E0
5.555779042E0,4.012161306E-1,1.511588861E0,-7.918476315E-1,1.752968323E0
5.565745042E0,8.452625312E-2,1.550024949E0,-7.820648012E-1,1.738202342E0
5.575712042E0,-9.157448687E-2,1.516324521E0,-8.481143644E-1,1.739805712E0
5.585678042E0,-2.371690603E-1,1.403338773E0,-9.014406788E-1,1.684697057E0
5.595645042E0,-3.781082267E-1,1.353585985E0,-9.002925780E-1,1.669037919E0
5.605612042E0,-5.332425325E-1,1.385066809E0,-8.876488513E-1,1.729357727E0
5.615578042E0,-6.469704384E-1,1.516567765E0,-8.966325134E-1,1.876832012E0
5.625545042E0,-7.054178904E-1,1.741041790E0,-1.020858364E0,2.137988006E0
5.635511042E0,-7.353918873E-1,1.937961395E0,-1.119834768E0,2.355955327E0
5.645478042E0,-8.067856595E-1,2.071924029E0,-1.179182253E0,2.516792218E0
5.655444042E0,-8.705779783E-1,2.085334618E0,-1.302432496E0,2.608228688E0
5.665411042E0,-8.477896247E-1,1.894441153E0,-1.402077236E0,2.504690621E0
5.675377042E0,-7.621357360E-1,1.566580170E0,-1.426161625E0,2.251435385E0
5.685344042E0,-7.100504932E-1,1.212567515E0,-1.321524532E0,1.928968318E0
5.695311042E0,-6.603449209E-1,9.178046966E-1,-1.188763500E0,1.640603406E0
5.705277042E0,-5.536614115E-1,7.478080112E-1,-1.020260486E0,1.380829186E0
5.715244042E0,-4.395204364E-1,7.954867923E-1,-8.038658524E-1,1.213333326E0
5.725210042E0,-3.633440803E-1,9.302276909E-1,-6.654517329E-1,1.200070201E0
5.735177042E0,-3.575914799E-1,9.609314203E-1,-6.081165674E-1,1.192084989E0
5.745144042E0,-3.664204101E-1,8.960501307E-1,-5.685478744E-1,1.122682697E0
5.755110042E0,-3.469986275E-1,7.756337410E-1,-5.139714253E-1,9.930671547E-1
5.765077042E0,-3.747088383E-1,7.879327744E-1,-4.895379576E-1,1.000445992E0
5.775043042E0,-4.397983253E-1,1.098377826E0,-5.857214391E-1,1.320199235E0
5.785010042E0,-5.877387285E-1,1.671868059E0,-6.992878157E-1,1.905146469E0
5.794976042E0,-7.203041705E-1,2.430119782E0,-8.067736727E-1,2.659925565E0
5.804943042E0,-7.171937442E-1,3.318684307E0,-1.127082392E0,3.577477759E0
5.814909042E0,-5.803282232E-1,4.317575267E0,-1.551233861E0,4.624344659E0
5.824876042E0,-4.451812720E-1,5.385570375E0,-1.986448261E0,5.757476125E0
5.834843042E0,-5.413393182E-1,6.448802927E0,-2.418523584E0,6.908644134E0
5.844809042E0,-8.526184747E-1,7.275636057E0,-2.496695595E0,7.739207142E0
5.854776042E0,-1.149954653E0,7.954833425E0,-2.478962159E0,8.411125008E0
5.864742042E0,-1.109671430E0,8.188553066E0,-2.723001552E0,8.700489035E0
5.874709042E0,-8.674399969E-1,7.947833723E0,-2.950730721E0,8.522166674E0
5.884675042E0,-8.000543448E-1,7.409701602E0,-3.095435275E0,8.070036204E0
5.894642042E0,-1.258313792E0,6.521396109E0,-3.127568064E0,7.341228971E0
5.904609042E0,-2.086688541E0,5.506862678E0,-3.232453664E0,6.717779567E0
5.914575042E0,-2.996850342E0,4.155323219E0,-3.476096908E0,6.191209311E0
5.924542042E0,-3.683965132E0,1.815914801E0,-3.639453202E0,5.487692162E0
5.934508042E0,-4.338938362E0,-1.385230531E0,-3.501296653E0,5.744939337E0
5.944475042E0,-5.097310245E0,-5.354172581E0,-2.592798677E0,7.834050086E0
5.954442042E0,-5.140584319E0,-9.371807905E0,-1.116379941E0,1.074721800E1
5.964408042E0,-4.256819773E0,-1.309186205E1,1.713813061E-1,1.376759740E1
5.974375042E0,-2.805834963E0,-1.714930580E1,2.238671563E0,1.752093176E1
5.984341042E0,-2.681461762E0,-2.051320429E1,3.683088049E0,2.101301799E1
5.994308042E0,-4.379047630E0,-2.177776057E1,4.132419090E0,2.259477376E1
6.004274042E0,-5.622463301E0,-2.159240851E1,3.957910109E0,2.266074251E1
6.014241042E0,-5.027888592E0,-2.128455729E1,3.072290826E0,2.208508577E1
6.024208042E0,-4.964539273E0,-2.013333876E1,9.487084007E-1,2.075808342E1
6.034174042E0,-4.727786973E0,-1.975953562E1,-3.403279777E-1,2.032011419E1
6.044141042E0,-3.785832399E0,-1.947653973E1,-7.363270032E-1,1.985473003E1
6.054107042E0,-2.447714346E0,-1.832140942E1,-4.372186799E-1,1.848936204E1
6.064074042E0,-1.052471262E0,-1.648520712E1,5.312766986E-1,1.652731086E1
6.074040042E0,4.891168119E-1,-1.385141887E1,1.723771746E0,1.396683318E1
6.084007042E0,2.092188724E0,-1.093243269E1,2.840238225E0,1.148748411E1
6.093974042E0,3.383307150E0,-8.736722517E0,4.129269195E0,1.023855223E1
6.103940042E0,4.402124251E0,-6.879757338E0,4.379180946E0,9.267523117E0
6.113907042E0,5.048131653E0,-4.215949489E0,3.742111598E0,7.567117185E0
6.123873042E0,4.927539847E0,-5.349950892E-1,2.677031912E0,5.633237838E0
6.133840042E0,4.936320611E0,3.902209532E0,1.243096998E0,6.414030757E0
6.143806042E0,5.242166242E0,7.938730193E0,5.409484318E-1,9.528712882E0
6.153773042E0,5.356392184E0,1.106929379E1,9.722837895E-1,1.233553963E1
6.163740042E0,5.191228223E0,1.366915999E1,1.512793388E0,1.469977310E1
6.173706042E0,4.743494056E0,1.641623102E1,8.286001593E-1,1.710789160E1
6.183673042E0,3.700603384E0,1.886801064E1,1.867483735E-1,1.922839479E1
6.193639042E0,3.108728920E0,2.009502780E1,-5.679108202E-1,2.034199746E1
6.203606042E0,2.912266274E0,1.818032195E1,-1.524486650E0,1.847510381E1
6.213572042E0,3.709527404E0,1.413459836E1,-1.945274800E0,1.474216939E1
6.223539042E0,4.841422639E0,1.195080598E1,-1.952588789E0,1.304123230E1
6.233505042E0,4.323841728E0,1.065267265E1,-1.764270731E0,1.163132379E1
6.243472042E0,3.304490776E0,9.129178861E0,-1.741777954E0,9.863840854E0
6.253439042E0,2.263780238E0,7.795287468E0,-2.145151634E0,8.396004002E0
6.263405042E0,1.252008301E0,6.901247025E0,-2.802512575E0,7.553066398E0
6.273372042E0,3.339248746E-1,6.637771488E0,-3.436892496E0,7.482228690E0
6.283338042E0,-4.262998818E-1,6.734514256E0,-3.912252710E0,7.800072763E0
6.293305042E0,-1.207674858E0,6.869672645E0,-4.124624752E0,8.103296253E0
6.303272042E0,-2.029860329E0,6.895837181E0,-3.950603720E0,8.202449216E0
6.313238042E0,-2.880103372E0,6.709988109E0,-3.352144999E0,8.034663152E0
6.323205042E0,-2.888831804E0,6.727957773E0,-2.689556063E0,7.800286969E0
6.333171042E0,-1.891805813E0,7.184860373E0,-2.571740222E0,7.862251305E0
6.343138042E0,-8.801968673E-1,8.117781876E0,-2.661628007E0,8.588212431E0
6.353104042E0,-6.279076383E-2,9.183619947E0,-2.648933702E0,9.558225137E0
6.363071042E0,7.158903998E-1,1.016348173E1,-2.589453485E0,1.051257006E1
6.373038042E0,1.465048241E0,1.091984714E1,-2.474805081E0,1.129221360E1
6.383004042E0,2.158631951E0,1.147302531E1,-2.275181431E0,1.189396706E1
6.392971042E0,2.604673495E0,1.218850933E1,-1.824219309E0,1.259650189E1
6.402936958E0,2.610713084E0,1.299581101E1,-1.054485994E0,1.329732557E1
6.412903958E0,2.576396652E0,1.339312347E1,-3.135987470E-1,1.364228427E1
6.422869958E0,2.681191036E0,1.307479754E1,2.101389903E-1,1.334853080E1
6.432836958E0,2.869400629E0,1.223567882E1,7.998955929E-1,1.259305877E1
6.442802958E0,3.289466355E0,1.146825399E1,1.228805233E0,1.199380676E1
6.452769958E0,3.308216622E0,1.079148555E1,8.089634550E-1,1.131613359E1
6.462736958E0,3.039939936E0,9.817356967E0,2.116195053E-1,1.027942194E1
6.472702958E0,3.079639022E0,7.884788459E0,6.414027196E-1,8.489137942E0
6.482669958E0,2.387276210E0,4.842588574E0,7.972295550E-1,5.457593496E0
6.492635958E0,2.238344850E0,9.614927530E-2,5.130817714E-1,2.298409288E0
6.502602958E0,2.572872243E0,-8.289526879E0,7.057817334E-1,8.708275106E0
6.512568958E0,1.973645782E-1,-2.286256175E1,1.227628773E0,2.289634807E1
6.522535958E0,-8.062973000E0,-3.628322443E1,4.300892576E0,3.741632779E1
6.532502958E0,-1.051252542E1,-2.609949379E1,3.546507032E0,2.835973341E1
6.542468958E0,-8.646860168E0,-1.353655450E1,3.130022725E0,1.636470411E1
6.552435958E0,-4.147351125E0,-9.729263400E0,3.117169960E0,1.102614331E1
6.562401958E0,2.035151182E0,-8.595878879E0,6.850514536E-1,8.860037784E0
6.572368958E0,3.712528780E0,-7.771201617E0,8.920727085E-1,8.658535571E0
6.582334958E0,1.327183029E0,-8.962713894E0,-4.398114815E-2,9.060551279E0
6.592301958E0,-3.910196244E0,-1.166808609E1,-1.233132173E0,1.236747681E1
6.602268958E0,-8.058567708E0,-1.071629270E1,-1.144791708E0,1.345696811E1
6.612234958E0,-6.828901765E0,-8.186859713E0,-7.151068729E-1,1.068503388E1
6.622201958E0,-5.448402801E0,-7.506832625E0,-7.301103897E-1,9.304337178E0
6.632167958E0,-3.795065737E0,-7.277675566E0,-1.258597966E0,8.303683185E0
6.642134958E0,-1.375076110E0,-7.415103845E0,-1.147581122E0,7.628338074E0
6.652100958E0,1.016370334E0,-7.700022292E0,-9.630581988E-1,7.826291142E0
6.662067958E0,2.365791785E0,-7.646217383E0,-9.698187496E-1,8.062391670E0
6.672034958E0,2.480032492E0,-5.972466520E0,-8.253007217E-1,6.519358770E0
6.682000958E0,1.628463154E0,-4.004110129E0,-1.053982841E0,4.449232518E0
6.691967958E0,8.027187748E-1,-2.761048799E0,-1.191590191E0,3.112496600E0
6.701933958E0,-5.302401334E-3,-1.841159570E0,-6.230430472E-1,1.943728200E0
6.711900958E0,-1.119782143E0,-1.429617915E0,-8.847041935E-2,1.818116180E0
6.721866958E0,-1.910126748E0,-1.097070388E0,1.530624180E-1,2.208070591E0
6.731833958E0,-2.153788118E0,-7.671587867E-1,2.208288699E-1,2.296976546E0
6.741800958E0,-1.776977461E0,-3.484835279E-1,1.629180461E-1,1.818139697E0
6.751766958E0,-1.016579226E0,2.260861015E-1,-8.276207507E-2,1.044699865E0
6.761733958E0,-4.733814429E-1,3.853537309E-1,-3.529217108E-1,7.050824224E-1
6.771699958E0,-1.596319109E-2,4.119685024E-1,-6.989206105E-1,8.114572634E-1
6.781666958E0,3.049790740E-1,5.458007437E-1,-9.763414648E-1,1.159376273E0
6.791632958E0,3.708421111E-1,7.749583876E-1,-1.068003879E0,1.370662854E0
6.801599958E0,1.229961812E-1,9.264807951E-1,-9.855125302E-1,1.358208258E0
6.811566958E0,-4.783922144E-1,8.250000286E-1,-7.967721565E-1,1.242710758E0
6.821532958E0,-1.123126385E0,7.718219411E-1,-5.755972776E-1,1.479335733E0
6.831499958E0,-1.531560319E0,9.408795637E-1,-3.847821656E-1,1.838202567E0
6.841465958E0,-1.682088407E0,1.099947803E0,-2.608703104E-1,2.026662256E0
6.851432958E0,-1.580079052E0,1.401610336E0,-4.018523808E-1,2.150034112E0
6.861398958E0,-1.282966676E0,1.849190721E0,-6.517142844E-1,2.343126399E0
6.871365958E0,-8.447035374E-1,2.315793267E0,-9.176585162E-1,2.630307905E0
6.881332958E0,-3.131762125E-1,2.615975286E0,-1.248165072E0,2.915359683E0
6.891298958E0,2.288791703E-1,2.638290015E0,-1.504027827E0,3.045498248E0
6.901265958E0,6.163895005E-1,2.439746053E0,-1.601883320E0,2.983006368E0
6.911231958E0,6.454829067E-1,2.168168029E0,-1.566900013E0,2.751867809E0
6.921198958E0,4.159909482E-1,1.902644797E0,-1.444450547E0,2.424776912E0
6.931164958E0,3.836036593E-2,1.599021692E0,-1.390071441E0,2.119113140E0
6.941131958E0,-4.725424406E-1,1.087335944E0,-1.222541696E0,1.702998535E0
6.951098958E0,-9.380287537E-1,5.580448133E-1,-1.028372036E0,1.499620286E0
6.961064958E0,-1.266814035E0,1.300128400E-2,-8.766996476E-1,1.540645678E0
6.971031958E0,-1.468245498E0,-3.864325422E-1,-7.655826697E-1,1.700350486E0
6.980997958E0,-1.555556999E0,-4.853054506E-1,-6.260552403E-1,1.745630007E0
6.990964958E0,-1.545736308E0,-2.739730436E-1,-5.970720541E-1,1.679540711E0
7.000930958E0,-1.453093170E0,2.523658276E-2,-7.604306880E-1,1.640235189E0
7.010897958E0,-1.233175881E0,3.503166300E-1,-9.582718143E-1,1.600540335E0
7.020864958E0,-9.182172907E-1,8.043342143E-1,-1.125959727E0,1.660681134E0
7.030830958E0,-6.623492733E-1,1.313463560E0,-1.361805123E0,2.004596288E0
7.040797958E0,-6.225320005E-1,1.755668600E0,-1.543102430E0,2.418901286E0
7.050763958E0,-6.590195033E-1,2.171480477E0,-1.611233310E0,2.783111019E0
7.060730958E0,-6.360725440E-1,2.599106069E0,-1.598276172E0,3.116797613E0
7.070696958E0,-5.621771502E-1,3.011161110E0,-1.558530601E0,3.436881146E0
7.080663958E0,-4.661329055E-1,3.397225277E0,-1.522814638E0,3.751983994E0
7.090630958E0,-3.552636303E-1,3.879672024E0,-1.482589303E0,4.168469540E0
7.100596958E0,-3.104567091E-1,4.412158658E0,-1.520524869E0,4.677127673E0
7.110563958E0,-2.981688950E-1,4.940557503E0,-1.625904559E0,5.209758033E0
7.120529958E0,-2.624638959E-1,5.378449636E0,-1.711017799E0,5.650149528E0
7.130496958E0,-2.853594728E-1,5.740040867E0,-1.771920351E0,6.014083548E0
7.140462958E0,-3.561414801E-1,5.950480989E0,-1.917096190E0,6.261814319E0
7.150429958E0,-4.684534461E-1,5.972923188E0,-2.064333466E0,6.336934014E0
7.160395958E0,-6.912552032E-1,5.918960989E0,-1.892472981E0,6.252470465E0
7.170362958E0,-1.024680616E0,5.725304130E0,-1.730788405E0,6.068336365E0
7.180329958E0,-1.495339157E0,5.156031493E0,-1.739593434E0,5.643304463E0
7.190295958E0,-2.065218881E0,3.658456653E0,-1.954389732E0,4.633473139E0
7.200262958E0,-2.440615680E0,1.110448818E0,-2.308390692E0,3.538130730E0
7.210228958E0,-2.601443201E0,-2.365383503E0,-2.319523791E0,4.212212775E0
7.220195958E0,-2.654636491E0,-6.239303622E0,-1.344173283E0,6.912510861E0
7.230161958E0,-2.613738726E0,-9.603493885E0,-1.555673944E0,1.007367095E1
7.240128958E0,-1.811526905E0,-1.346851629E1,-4.365583831E-1,1.359680639E1
7.250095958E0,-4.216732724E-1,-1.489162450E1,9.782643217E-1,1.492967815E1
7.260061958E0,7.654146353E-1,-1.419704779E1,2.695308554E0,1.447089195E1
7.270028958E0,1.045541508E0,-1.497451113E1,3.706397097E0,1.546177609E1
7.279994958E0,4.726022284E-1,-1.646294911E1,3.431085334E0,1.682332882E1
7.289961958E0,-6.884399881E-1,-1.683245805E1,2.386205292E0,1.701468687E1
7.299927958E0,-2.388310875E0,-1.616327463E1,2.153627758E0,1.648009672E1
7.309894958E0,-3.935162686E0,-1.622873187E1,2.060348296E0,1.682564348E1
7.319861958E0,-5.277216792E0,-1.690403616E1,1.819815187E0,1.780188706E1
7.329827958E0,-6.002942208E0,-1.736639421E1,1.613211130E0,1.844530870E1
7.339794958E0,-5.778285751E0,-1.720920936E1,1.702417422E0,1.823303864E1
7.349760958E0,-4.579360959E0,-1.614257548E1,2.342940136E0,1.694233332E1
7.359727958E0,-2.840172152E0,-1.411034294E1,3.005588421E0,1.470380622E1
7.369693958E0,-1.007732681E0,-1.124377002E1,3.299756870E0,1.176121953E1
7.379660958E0,7.048363848E-1,-8.008192191E0,3.470910720E0,8.756435218E0
7.389627958E0,2.515875047E0,-4.568782176E0,3.034958985E0,6.034432357E0
7.399593917E0,3.915983526E0,-6.721959114E-1,1.465354342E0,4.234859817E0
7.409560917E0,4.721833631E0,3.205222596E0,2.713002813E-1,5.713385036E0
7.419526917E0,5.014744052E0,6.677667625E0,-8.453167641E-1,8.393656131E0
7.429493917E0,4.985019731E0,9.472208106E0,-1.429070615E0,1.079886063E1
7.439459917E0,4.904411478E0,1.162571950E1,-1.154990275E0,1.267061989E1
7.449426917E0,5.008790417E0,1.383449352E1,-7.399481839E-1,1.473189451E1
7.459393917E0,4.836888708E0,1.627935472E1,-7.617922121E-1,1.699980029E1
7.469359917E0,4.271668192E0,1.790073266E1,-9.387038147E-1,1.842727716E1
7.479326917E0,4.184059945E0,1.765054550E1,-8.535256702E-1,1.815975276E1
7.489292917E0,4.160846499E0,1.512815490E1,-7.483114564E-1,1.570775873E1
7.499259917E0,3.590555862E0,1.247410606E1,-8.090973562E-1,1.300576994E1
7.509225917E0,2.523419124E0,1.086111420E1,-6.186582202E-1,1.116755048E1
7.519192917E0,1.276922409E0,9.583746083E0,-5.596232691E-1,9.684621729E0
7.529159917E0,2.063471075E-1,8.730605160E0,-1.007513556E0,8.790968613E0
7.539125917E0,-7.748927526E-1,8.214367354E0,-1.559918145E0,8.397001514E0
7.549092917E0,-1.650232192E0,7.738009313E0,-1.916259746E0,8.140768135E0
7.559058917E0,-2.294089280E0,7.030440086E0,-1.969988349E0,7.653155396E0
7.569025917E0,-2.559010541E0,6.288151261E0,-1.825176206E0,7.029982178E0
7.578991917E0,-2.589333325E0,5.834903170E0,-1.629773661E0,6.588391629E0
7.588958917E0,-2.099623898E0,5.704361157E0,-1.571390967E0,6.278329897E0
7.598924917E0,-1.284659737E0,5.782853596E0,-1.732175657E0,6.171886167E0
7.608891917E0,-2.535817195E-1,6.249657286E0,-1.948025330E0,6.551131396E0
7.618858917E0,8.975582738E-1,6.953393664E0,-2.206568741E0,7.350118360E0
7.628824917E0,2.069461328E0,7.741227036E0,-2.570776309E0,8.415352460E0
7.638791917E0,3.030457506E0,8.422240548E0,-2.949683484E0,9.424353623E0
7.648757917E0,3.728314801E0,8.959806658E0,-3.189616962E0,1.021528869E1
7.658724917E0,4.098266088E0,9.582254459E0,-3.322808349E0,1.093875865E1
7.668690917E0,4.240562759E0,1.029034877E1,-3.309998561E0,1.161162093E1
7.678657917E0,4.242967719E0,1.098929920E1,-3.341549844E0,1.224473059E1
7.688624917E0,3.946210999E0,1.157705313E1,-3.601904430E0,1.275046885E1
7.698590917E0,3.512154348E0,1.205357898E1,-4.025758275E0,1.318448801E1
7.708557917E0,3.210229859E0,1.236243593E1,-4.585149410E0,1.357051926E1
7.718523917E0,3.009539677E0,1.262187923E1,-4.959848052E0,1.389133748E1
7.728490917E0,2.338801476E0,1.286433403E1,-5.021070739E0,1.400614985E1
7.738456917E0,1.748930707E0,1.291730395E1,-5.065451106E0,1.398478798E1
7.748423917E0,1.631492743E0,1.237824213E1,-4.090009235E0,1.313814379E1
7.758390917E0,1.901977337E0,1.072045124E1,-2.109127523E0,1.109026652E1
7.768356917E0,2.558490724E0,7.677073724E0,5.864175501E-1,8.113397642E0
7.778323917E0,2.302826921E0,1.627212288E0,5.206012323E0,5.920590846E0
7.788289917E0,5.080882493E-1,-1.696518634E1,5.532324963E0,1.785167557E1
7.798256917E0,-4.007095132E0,-4.457705310E1,2.855057994E0,4.484776283E1
7.808222917E0,-6.997528448E0,-2.442000272E1,2.753588044E0,2.555159847E1
7.818189917E0,-5.973640056E0,-4.701649042E0,2.012638232E0,7.863878934E0
7.828156917E0,-7.199329308E0,-5.038169752E0,3.419444989E0,9.429003180E0
7.838122917E0,-6.406984810E0,-8.664097175E0,3.327174464E0,1.127768257E1
7.848089917E0,-6.038940006E0,-1.285618184E1,3.387164851E0,1.460216058E1
7.858055917E0,-3.748209952E0,-1.471932460E1,2.602817881E0,1.541045929E1
7.868022917E0,-2.390008321E0,-1.183647421E1,1.811173294E0,1.221043038E1
7.877988917E0,-1.436208604E0,-7.691312279E0,-8.943506375E-2,7.824766984E0
7.887955917E0,-7.789586140E-1,-7.770423353E0,-5.393337232E-1,7.827971415E0
7.897921917E0,-1.225355815E0,-9.053900637E0,-7.628216144E-1,9.168233768E0
7.907888917E0,-1.708894090E0,-9.180930812E0,-7.430065700E-1,9.368130462E0
7.917855917E0,-2.006113909E0,-8.515298985E0,-3.587784281E-1,8.755771342E0
7.927821917E0,-2.271188514E0,-7.443956931E0,4.412981361E-2,7.782849060E0
7.937788917E0,-2.459763411E0,-6.370143843E0,-1.382275933E-1,6.829954281E0
7.947754917E0,-2.254587538E0,-5.431873307E0,-4.853880425E-1,5.901187519E0
7.957721917E0,-2.021607423E0,-4.545565222E0,-1.508917853E-1,4.977130508E0
7.967687917E0,-1.560282427E0,-3.685034587E0,4.110211073E-1,4.022797473E0
7.977654917E0,-1.049690765E0,-3.111035646E0,6.129862748E-1,3.340081686E0
7.987621917E0,-7.792966562E-1,-3.035667375E0,4.746774052E-1,3.169842004E0
7.997587917E0,-5.658727001E-1,-3.194990553E0,2.451993339E-1,3.253966696E0
8.007554917E0,-3.711354952E-1,-3.127694364E0,1.002250770E-1,3.151231292E0
8.017520917E0,-1.871879379E-1,-2.730843837E0,6.897872597E-2,2.738120788E0
8.027487917E0,-8.948944286E-3,-2.156425651E0,2.080127965E-1,2.166453552E0
8.037453917E0,1.492137075E-1,-1.561297796E0,3.485722594E-1,1.606679233E0
8.047420917E0,1.844223511E-1,-1.067509205E0,4.142685047E-1,1.159830117E0
8.057387917E0,1.861487415E-1,-7.043444878E-1,4.794167197E-1,8.721197754E-1
8.067353917E0,2.301075241E-1,-4.285827810E-1,5.546575212E-1,7.377517460E-1
8.077320917E0,3.514527440E-1,-2.005559886E-1,5.064969295E-1,6.482907337E-1
8.087286917E0,5.339866637E-1,9.537042618E-2,3.341821155E-1,6.371145592E-1
8.097253917E0,7.382451092E-1,3.763747466E-1,1.893799129E-1,8.500167896E-1
8.107219917E0,8.753687482E-1,6.177022004E-1,1.941421777E-2,1.071542517E0
8.117186917E0,8.532127710E-1,7.704946232E-1,-1.206429693E-1,1.155936297E0
8.127153917E0,7.104652070E-1,8.616994929E-1,-2.465975493E-1,1.143720760E0
8.137119917E0,6.293717811E-1,8.619731426E-1,-3.880463737E-1,1.135643661E0
8.147086917E0,5.563393997E-1,9.662909782E-1,-5.090045080E-1,1.225690569E0
8.157052917E0,4.046751972E-1,1.170695019E0,-5.847961172E-1,1.369772004E0
8.167019917E0,2.482256334E-1,1.405297006E0,-6.247992584E-1,1.557834957E0
8.176985917E0,8.637404636E-2,1.556791931E0,-6.656996548E-1,1.695351770E0
8.186952917E0,-7.430261582E-2,1.562967176E0,-8.232610667E-1,1.768091077E0
8.196919917E0,-1.722825082E-1,1.456483532E0,-9.836759198E-1,1.765968249E0
8.206885917E0,-1.255074873E-1,1.362218229E0,-1.098842972E0,1.754664216E0
8.216852917E0,-7.193193533E-2,1.271838402E0,-1.136891973E0,1.707416318E0
8.226818917E0,-1.853435799E-2,1.299714417E0,-1.190203085E0,1.762437083E0
8.236785917E0,8.307431638E-3,1.419633209E0,-1.322599835E0,1.940282914E0
8.246751917E0,-2.622008443E-2,1.572835522E0,-1.484783471E0,2.163118357E0
8.256718917E0,-1.957515507E-1,1.766827426E0,-1.638542731E0,2.417606275E0
8.266684917E0,-3.273057899E-1,2.058045078E0,-1.782730098E0,2.742408654E0
8.276651917E0,-4.938062789E-1,2.389022042E0,-1.909815822E0,3.098171628E0
8.286618917E0,-6.839596322E-1,2.813490722E0,-2.022597502E0,3.531916120E0
8.296584917E0,-8.227862728E-1,3.386587438E0,-2.138753903E0,4.089036559E0
8.306551917E0,-9.825509886E-1,3.937460057E0,-2.295847538E0,4.662608075E0
8.316517917E0,-1.107606632E0,4.373263564E0,-2.431815767E0,5.125032154E0
8.326484917E0,-1.225181275E0,4.656827796E0,-2.461649723E0,5.408034175E0
8.336450917E0,-1.286637997E0,4.828283946E0,-2.563027871E0,5.615770211E0
8.346417917E0,-1.220304697E0,4.984525056E0,-2.680029779E0,5.789403528E0
8.356384917E0,-1.098364816E0,5.178826278E0,-2.793502600E0,5.985841935E0
8.366350917E0,-1.124351450E0,5.346907416E0,-2.741781346E0,6.113178392E0
8.376317917E0,-1.308003430E0,5.491930643E0,-2.619483908E0,6.223654160E0
8.386283917E0,-1.494380652E0,5.333681599E0,-2.625331416E0,6.129738818E0
8.396250917E0,-1.608395364E0,4.847914803E0,-2.728237441E0,5.790724749E0
8.406216708E0,-1.736543527E0,3.930331716E0,-2.782900721E0,5.119338555E0
8.416183708E0,-1.928761970E0,2.385913662E0,-2.622323900E0,4.035999180E0
8.426150708E0,-2.391924746E0,-5.606778145E-2,-2.333404496E0,3.342038918E0
8.436116708E0,-2.838037041E0,-3.139147890E0,-2.103534369E0,4.725839667E0
8.446083708E0,-3.193878705E0,-6.226874780E0,-1.635596757E0,7.186793963E0
8.456049708E0,-3.527647715E0,-9.453498770E0,-5.445865694E-1,1.010492513E1
8.466016708E0,-3.798275566E0,-1.256419528E1,7.686568433E-1,1.314825972E1
8.475982708E0,-3.433118411E0,-1.465580045E1,2.131266105E0,1.520266700E1
8.485949708E0,-2.535708802E0,-1.638280366E1,3.735372390E0,1.699350116E1
8.495916708E0,-1.409630085E0,-1.809603785E1,4.495356058E0,1.869924781E1
8.505882708E0,-5.594671485E-1,-1.884372131E1,4.531126692E0,1.938891295E1
8.515849708E0,-6.724242452E-1,-1.865431947E1,3.213929392E0,1.894109636E1
8.525815708E0,-1.377713204E0,-1.769106203E1,2.000949064E0,1.785708729E1
8.535782708E0,-2.193975300E0,-1.686636138E1,1.935749978E0,1.711825931E1
8.545748708E0,-2.646286667E0,-1.619504606E1,1.731979190E0,1.650097275E1
8.555715708E0,-2.761390277E0,-1.523053380E1,1.867508878E0,1.559108802E1
8.565682708E0,-2.386930785E0,-1.377016830E1,2.153416966E0,1.414044477E1
8.575648708E0,-1.516642464E0,-1.164338979E1,2.256266273E0,1.195656588E1
8.585615708E0,-5.926533133E-2,-9.163060552E0,2.694578236E0,9.551227300E0
8.595581708E0,1.560128206E0,-6.513141595E0,3.165170046E0,7.407652453E0
8.605548708E0,2.927704386E0,-3.552523232E0,2.932475713E0,5.458139618E0
8.615514708E0,3.544112597E0,-3.219564646E-1,1.957800413E0,4.061695769E0
8.625481708E0,3.598362479E0,3.018532110E0,5.479367316E-1,4.728634400E0
8.635447708E0,3.470634731E0,6.060573535E0,-6.189032185E-1,7.011340685E0
8.645414708E0,3.634024063E0,8.909709468E0,-1.015437410E0,9.675751487E0
8.655381708E0,3.637062861E0,1.154369242E1,-2.570286897E-1,1.210583020E1
8.665347708E0,3.150346477E0,1.402914733E1,5.612642902E-1,1.438946404E1
8.675314708E0,2.673227421E0,1.649732839E1,4.509825870E-1,1.671859367E1
8.685280708E0,2.475312620E0,1.802265763E1,-8.491355807E-2,1.819204691E1
8.695247708E0,2.925014082E0,1.697591013E1,-5.231193942E-1,1.723400377E1
8.705213708E0,3.724336940E0,1.413346400E1,-6.842993554E-1,1.463194300E1
8.715180708E0,3.670356322E0,1.131645325E1,-7.317869326E-1,1.191927606E1
8.725147708E0,3.062651398E0,9.287178814E0,-5.162486234E-1,9.792754288E0
8.735113708E0,2.234672652E0,8.129361117E0,-6.952909514E-1,8.459533294E0
8.745080708E0,1.205993052E0,7.802305881E0,-1.426832886E0,8.022857869E0
8.755046708E0,2.138236132E-1,8.157924181E0,-2.386074461E0,8.502399592E0
8.765013708E0,-7.936422881E-1,8.467664058E0,-3.208067559E0,9.089713975E0
8.774979708E0,-1.690182269E0,8.375717762E0,-3.673938911E0,9.300924215E0
8.784946708E0,-2.114425832E0,8.284296545E0,-3.705924642E0,9.318489325E0
8.794913708E0,-2.078190051E0,7.962709624E0,-3.417638200E0,8.910884878E0
8.804879708E0,-1.384563949E0,7.526748827E0,-3.115013799E0,8.262703928E0
8.814846708E0,-3.825211569E-1,7.325030996E0,-2.969583021E0,7.913332095E0
8.824812708E0,5.780939290E-1,7.626868946E0,-2.924357147E0,8.188723175E0
8.834779708E0,1.306080135E0,8.443702168E0,-2.828659277E0,9.000181383E0
8.844745708E0,1.611998564E0,9.174943264E0,-2.853233955E0,9.742641698E0
8.854712708E0,1.710460852E0,9.547952937E0,-2.875255738E0,1.011712297E1
8.864678708E0,1.839368568E0,9.778758327E0,-2.729332624E0,1.031778308E1
8.874645708E0,2.036365503E0,1.029463594E1,-2.369967136E0,1.075839476E1
8.884612708E0,2.283535056E0,1.113468904E1,-1.986823360E0,1.153877375E1
8.894578708E0,2.395723975E0,1.183606490E1,-1.812624573E0,1.221136903E1
8.904545708E0,2.166724059E0,1.207081658E1,-1.870729232E0,1.240560091E1
8.914511708E0,1.737148129E0,1.198524842E1,-1.905623076E0,1.225949684E1
8.924478708E0,1.383716687E0,1.170226540E1,-1.642480830E0,1.189770695E1
8.934444708E0,1.166063805E0,1.121960465E1,-8.475688192E-1,1.131183478E1
8.944411708E0,1.459048413E0,1.073317712E1,-3.902680233E-1,1.083892165E1
8.954378708E0,2.316457950E0,1.007160911E1,-2.751758158E-1,1.033823047E1
8.964344708E0,2.927944706E0,8.744456629E0,6.637133557E-1,9.245479834E0
8.974311708E0,2.957604415E0,6.717253275E0,1.176595152E0,7.433255787E0
8.984277708E0,2.079786488E0,3.366964182E0,2.078661483E0,4.470211762E0
8.994244708E0,2.158290620E0,-3.542472453E0,3.212110324E0,5.246425661E0
9.004210708E0,9.262290725E-1,-2.006518829E1,4.550088628E0,2.059546037E1
9.014177708E0,-5.045867026E0,-3.548608755E1,4.458973805E0,3.611932490E1
9.024143708E0,-8.212311473E0,-2.390410054E1,5.629295772E-1,2.528171221E1
9.034110708E0,-9.356078310E0,-7.405056574E0,-3.547863878E-1,1.193720812E1
9.044077708E0,-6.771315461E0,-4.334835663E0,1.193361605E0,8.128076354E0
9.054043708E0,-3.272694494E0,-5.883888220E0,8.760014901E-1,6.789554363E0
9.064010708E0,-3.206643762E-1,-1.022032602E1,3.294439412E0,1.074296145E1
9.073976708E0,2.225917616E0,-1.391530321E1,2.418722682E0,1.429827235E1
9.083943708E0,2.159583440E0,-1.392189302E1,-8.403951627E-1,1.411343934E1
9.093910708E0,-9.138869159E-2,-1.009062893E1,-6.523470993E-1,1.011210665E1
9.103876708E0,-1.525464304E0,-6.841713014E0,5.548637818E-1,7.031639363E0
9.113843708E0,-3.702882628E0,-7.141861703E0,9.327770770E-2,8.045261281E0
9.123809708E0,-5.606702131E0,-8.880192139E0,-6.930027898E-1,1.052488357E1
9.133776708E0,-6.082816343E0,-8.935747120E0,-1.113249049E0,1.086680978E1
9.143742708E0,-4.882923837E0,-7.602638669E0,-9.835367560E-1,9.089026597E0
9.153709708E0,-3.264435595E0,-6.275465727E0,-1.124395012E0,7.162560574E0
9.163675708E0,-1.914410857E0,-5.392992831E0,-1.313794074E0,5.871575212E0
9.173642708E0,-9.372371869E-1,-4.837504420E0,-1.318931146E0,5.100925595E0
9.183609708E0,-2.027484021E-1,-4.294332000E0,-9.640583651E-1,4.405882746E0
9.193575708E0,1.740698558E-1,-3.777685474E0,-3.821659751E-1,3.800954970E0
9.203542708E0,8.533645794E-2,-3.413634903E0,1.425206190E-1,3.417674310E0
9.213508708E0,-2.493227904E-1,-3.087123458E0,4.711475873E-1,3.132805954E0
9.223475708E0,-6.091388069E-1,-2.700802597E0,4.893521623E-1,2.811556561E0
9.233441708E0,-8.559492680E-1,-2.184677058E0,2.222285472E-1,2.356872615E0
9.243408708E0,-9.545335431E-1,-1.591251327E0,2.041292220E-2,1.855702498E0
9.253375708E0,-9.097796854E-1,-1.004279169E0,-9.457374305E-2,1.358388721E0
9.263341708E0,-6.725278871E-1,-4.949463397E-1,-2.710798413E-1,8.779236404E-1
9.273308708E0,-2.778375415E-1,-5.070062220E-2,-3.809748973E-1,4.742426857E-1
9.283274708E0,1.652745471E-1,3.289140666E-1,-4.256026013E-1,5.627057076E-1
9.293241708E0,5.893562876E-1,6.807638365E-1,-4.315790404E-1,9.985192552E-1
9.303207708E0,9.018651136E-1,9.851535112E-1,-4.164084394E-1,1.399029704E0
9.313174708E0,1.106740513E0,1.192256627E0,-4.172187173E-1,1.679411173E0
9.323141708E0,1.241042579E0,1.357607115E0,-4.461678435E-1,1.892709567E0
9.333107708E0,1.303167783E0,1.480028515E0,-4.761890566E-1,2.028666235E0
9.343074708E0,1.340337071E0,1.513086918E0,-4.675136890E-1,2.074729991E0
9.353040708E0,1.357638398E0,1.518632417E0,-4.577431378E-1,2.087811107E0
9.363007708E0,1.303089138E0,1.489990416E0,-4.941508260E-1,2.040171018E0
9.372973708E0,1.188798730E0,1.384904256E0,-5.962698162E-1,1.920088517E0
9.382940708E0,1.103631257E0,1.265439209E0,-6.778495842E-1,1.810750784E0
9.392906708E0,9.451608219E-1,1.228970709E0,-7.447601500E-1,1.719990019E0
9.402874417E0,7.262640913E-1,1.220146092E0,-7.037597662E-1,1.584769328E0
9.412841417E0,5.547399670E-1,1.261844925E0,-6.305146194E-1,1.515763086E0
9.422807417E0,3.757699983E-1,1.285643678E0,-5.857658780E-1,1.461918062E0
9.432774417E0,1.705034928E-1,1.302502370E0,-5.335397172E-1,1.417832322E0
9.442740417E0,-1.869062483E-3,1.317013990E0,-4.885430539E-1,1.404707677E0
9.452707417E0,-1.162074177E-1,1.289611014E0,-5.137398756E-1,1.393028855E0
9.462673417E0,-2.621697079E-1,1.236766802E0,-5.418550426E-1,1.375475178E0
9.472640417E0,-4.841979148E-1,1.228186013E0,-5.737466338E-1,1.439469938E0
9.482607417E0,-6.636689899E-1,1.155194635E0,-6.674009022E-1,1.490085614E0
9.492573417E0,-7.515274251E-1,9.945540798E-1,-8.312957257E-1,1.498327024E0
9.502540417E0,-8.078521916E-1,8.324651688E-1,-1.047679542E0,1.563091758E0
9.512506417E0,-8.113850793E-1,6.629695898E-1,-1.288649731E0,1.660871023E0
9.522473417E0,-8.341577916E-1,5.750075859E-1,-1.549724402E0,1.851512535E0
9.532439417E0,-8.869651656E-1,6.238119560E-1,-1.798466710E0,2.100078824E0
9.542406417E0,-9.691585989E-1,8.315465713E-1,-1.981392174E0,2.357255403E0
9.552373417E0,-1.093533042E0,1.217212543E0,-1.976087287E0,2.565607503E0
9.562339417E0,-1.173887087E0,1.663663831E0,-1.847966606E0,2.749685221E0
9.572306417E0,-1.209127525E0,2.055402721E0,-1.750320444E0,2.958089142E0
9.582272417E0,-1.191694783E0,2.424770164E0,-1.596749757E0,3.138352528E0
9.592239417E0,-1.164636719E0,2.775848102E0,-1.389753937E0,3.315588542E0
9.602205417E0,-1.065752847E0,3.174024192E0,-1.266590526E0,3.579736061E0
9.612172417E0,-9.367651704E-1,3.597890609E0,-1.211516771E0,3.910258138E0
9.622138417E0,-7.508525102E-1,4.065812287E0,-1.163573111E0,4.295173039E0
9.632105417E0,-5.044394405E-1,4.595189956E0,-1.185494907E0,4.772381801E0
9.642072417E0,-3.575562139E-1,5.052777266E0,-1.366631123E0,5.246530775E0
9.652038417E0,-3.623175285E-1,5.410671887E0,-1.558432368E0,5.642282846E0
9.662005417E0,-4.625256485E-1,5.550349005E0,-1.649025034E0,5.808578795E0
9.671971417E0,-6.202705168E-1,5.254553568E0,-1.751919657E0,5.573534893E0
9.681938417E0,-7.657532622E-1,4.289928462E0,-1.657290950E0,4.662239544E0
9.691904417E0,-7.834052753E-1,2.539438741E0,-1.314914255E0,2.965041727E0
9.701871417E0,-9.058526954E-1,2.308802336E-1,-9.679767305E-1,1.345679657E0
9.711838417E0,-1.322743092E0,-2.472824922E0,-7.021688850E-1,2.890943362E0
9.721804417E0,-1.837726378E0,-5.773043137E0,-1.826997614E-1,6.061241169E0
9.731771417E0,-2.293546658E0,-9.951975074E0,5.822669041E-1,1.022942808E1
9.741737417E0,-2.637036079E0,-1.407570871E1,1.129175110E0,1.436504686E1
9.751704417E0,-2.506022196E0,-1.608659073E1,1.903628883E0,1.639153292E1
9.761670417E0,-1.886598868E0,-1.594717440E1,3.010943009E0,1.633821913E1
9.771637417E0,-1.385570839E0,-1.535999700E1,3.321177560E0,1.577591629E1
9.781603417E0,-1.330951413E0,-1.519254795E1,2.676906489E0,1.548388754E1
9.791570417E0,-2.139079885E0,-1.555676166E1,1.944815501E0,1.582310979E1
9.801537417E0,-3.346905309E0,-1.607671595E1,1.481571595E0,1.648810557E1
9.811503417E0,-3.837726730E0,-1.651115823E1,1.097980069E0,1.698681997E1
9.821470417E0,-3.491409304E0,-1.672700819E1,9.031357867E-1,1.711135285E1
9.831436417E0,-2.912536416E0,-1.625437074E1,1.167815850E0,1.655449275E1
9.841403417E0,-2.200101136E0,-1.488582407E1,1.665570315E0,1.513942957E1
9.851369417E0,-1.314547634E0,-1.294436954E1,2.384084946E0,1.322756967E1
9.861336417E0,-3.222827393E-1,-1.055585212E1,2.931557701E0,1.096010541E1
9.871303417E0,4.958051495E-1,-8.018703731E0,3.411048095E0,8.728154523E0
9.881269417E0,1.219537177E0,-5.498370767E0,3.743849683E0,6.762822078E0
9.891236417E0,1.766843213E0,-2.770561634E0,3.250079803E0,4.621770812E0
9.901202417E0,2.217373811E0,1.516077769E-1,2.478124546E0,3.328788488E0
9.911169417E0,2.703025709E0,3.060660714E0,1.603533989E0,4.386948055E0
9.921135417E0,3.244360934E0,5.915953766E0,1.124983242E0,6.840319738E0
9.931102417E0,3.395478129E0,8.725922125E0,1.288678967E0,9.451543902E0
9.941069417E0,3.155391162E0,1.158345583E1,1.098947637E0,1.205573010E1
9.951035417E0,3.165080583E0,1.422197330E1,5.842409241E-1,1.458161847E1
9.961002417E0,3.286353590E0,1.675903924E1,-4.362914577E-1,1.708378958E1
9.970968417E0,3.838151238E0,1.841219913E1,-1.343473225E0,1.885591160E1
9.980935417E0,4.390777144E0,1.810315742E1,-2.148954663E0,1.875156629E1
9.990901417E0,4.160707335E0,1.549742294E1,-3.116044956E0,1.634598849E1
1.000086842E1,3.713844404E0,1.241219340E1,-4.017348225E0,1.356444883E1
1.001083442E1,3.414910766E0,1.111425186E1,-4.151611991E0,1.234601523E1
1.002080142E1,2.492683820E0,1.076638579E1,-4.027672069E0,1.176225650E1
1.003076842E1,1.523279931E0,1.036471132E1,-4.153498887E0,1.126939108E1
1.004073442E1,2.796897567E-1,9.749426939E0,-4.334512019E0,1.067321631E1
1.005070142E1,-1.078730304E0,9.029138848E0,-4.303025348E0,1.006007130E1
1.006066742E1,-2.257989009E0,8.176593171E0,-4.000390715E0,9.378609499E0
1.007063442E1,-2.912726743E0,7.227367292E0,-3.446796510E0,8.520517662E0
1.008060042E1,-2.979532643E0,6.101287698E0,-2.670668094E0,7.296286344E0
1.009056742E1,-2.666487920E0,4.943974616E0,-1.960589242E0,5.949533848E0
1.010053442E1,-1.888518362E0,4.673647311E0,-1.696960800E0,5.318755188E0
1.011050042E1,-8.331117247E-1,5.385018983E0,-1.825453364E0,5.746719462E0
1.012046742E1,-1.185529917E-1,6.406615850E0,-2.113191631E0,6.747174248E0
1.013043342E1,3.736823961E-1,7.480603770E0,-2.428657393E0,7.873845822E0
1.014040042E1,7.279510130E-1,8.497827505E0,-2.513969439E0,8.891739274E0
1.015036642E1,1.233568083E0,9.422411463E0,-2.467757725E0,9.818011824E0
1.016033342E1,1.916307109E0,1.043760037E1,-2.523536946E0,1.090797750E1
1.017030042E1,2.386647488E0,1.154228909E1,-2.603275133E0,1.207052464E1
1.018026642E1,2.557337653E0,1.242430649E1,-2.756265192E0,1.298076906E1
1.019023342E1,2.466693531E0,1.286872996E1,-2.958154346E0,1.343277577E1
1.020019942E1,2.034519683E0,1.311057314E1,-3.212334564E0,1.365084216E1
1.021016642E1,1.340119847E0,1.317319097E1,-3.201533003E0,1.362272716E1
1.022013242E1,8.937140219E-1,1.271058500E1,-3.255467428E0,1.315126473E1
1.023009942E1,1.013636760E0,1.212520504E1,-2.821023690E0,1.249024545E1
1.024006542E1,1.544024097E0,1.142753164E1,-2.169871031E0,1.173374749E1
1.025003242E1,2.786237435E0,9.917778218E0,-2.431359099E0,1.058475087E1
1.025999942E1,3.148102900E0,7.383183310E0,-1.941608303E0,8.257832068E0
1.026996542E1,2.548560398E0,2.974137710E0,1.034530324E-1,3.918080875E0
1.027993242E1,1.152028368E0,-6.040936831E0,4.636481824E0,7.701756349E0
1.028989842E1,-2.493624052E0,-2.406997202E1,6.727850769E0,2.511664169E1
1.029986542E1,-8.181218904E0,-3.857466404E1,9.739953865E0,4.061777628E1
1.030983142E1,-8.641906992E0,-2.420524384E1,5.036306244E0,2.619047091E1
1.031979842E1,-7.103125654E0,-6.905590922E0,1.826376347E-1,9.908326626E0
1.032976542E1,-3.039180967E0,-5.148592665E0,1.377889059E0,6.135405907E0
1.033973142E1,9.479628807E-1,-7.343795296E0,4.218020573E-1,7.416729734E0
1.034969842E1,4.701803409E0,-9.886717808E0,6.082039833E-2,1.094796070E1
1.035966442E1,7.797436904E0,-1.210104668E1,-5.173588635E-1,1.440496488E1
1.036963142E1,6.651418304E0,-1.104328420E1,-2.868700132E0,1.320700314E1
1.037959742E1,1.242360541E0,-7.786863384E0,-2.970990738E0,8.426475363E0
1.038956442E1,-3.251541899E0,-6.223161798E0,-1.605898749E0,7.202720200E0
1.039953108E1,-5.476665317E0,-6.863517866E0,-4.586639281E-1,8.792730696E0
1.040949708E1,-6.830040802E0,-8.012905632E0,3.867282651E-1,1.053592297E1
1.041946408E1,-7.815144027E0,-8.683045662E0,1.123563976E0,1.173601952E1
1.042943008E1,-6.940693511E0,-9.040500573E0,9.933366895E-1,1.144074276E1
1.043939708E1,-4.856917761E0,-8.779170964E0,7.864791566E-1,1.006389797E1
1.044936308E1,-3.307238090E0,-7.537022384E0,5.709273988E-1,8.250484125E0
1.045933008E1,-2.495945105E0,-6.193515830E0,-1.231594647E-1,6.678663680E0
1.046929608E1,-1.653010496E0,-4.538238661E0,-9.858143927E-1,4.929491237E0
1.047926308E1,-7.896520751E-1,-2.779844089E0,-1.348028937E0,3.188771797E0
1.048923008E1,-3.281188452E-1,-1.377481216E0,-1.220750840E0,1.869585272E0
1.049919608E1,-4.282206190E-1,-3.476327580E-1,-1.060429542E0,1.195295883E0
1.050916308E1,-6.893028910E-1,2.419829267E-1,-8.084572323E-1,1.089631731E0
1.051912908E1,-6.864744466E-1,4.545262921E-1,-3.340568389E-1,8.885017094E-1
1.052909608E1,-4.140771545E-1,3.626735508E-1,6.852118134E-2,5.546955441E-1
1.053906208E1,-9.887393162E-2,6.574433863E-2,2.966666722E-1,3.195457508E-1
1.054902908E1,2.173798898E-1,-3.739674479E-1,4.166553381E-1,6.005891602E-1
1.055899608E1,5.066723460E-1,-8.483830440E-1,7.677031624E-1,1.251334808E0
1.056896208E1,7.091735570E-1,-1.224974722E0,1.202326702E0,1.857169810E0
1.057892908E1,9.394249957E-1,-1.242912810E0,1.574270282E0,2.214876633E0
1.058889508E1,1.201314256E0,-1.016554813E0,1.757559882E0,2.359143143E0
1.059886208E1,1.250352223E0,-5.279141110E-1,1.507888451E0,2.028743841E0
1.060882808E1,1.233015813E0,1.994479412E-1,9.123758492E-1,1.546782844E0
1.061879508E1,1.141660670E0,8.745867562E-1,3.601297197E-1,1.482560115E0
1.062876208E1,8.285172750E-1,1.337163495E0,4.132928967E-2,1.573580375E0
1.063872808E1,4.318696471E-1,1.378282869E0,-9.950528473E-2,1.447783258E0
1.064869508E1,3.629103631E-2,1.143755143E0,-6.081191987E-2,1.145945442E0
1.065866108E1,-3.729283977E-1,9.848061866E-1,-6.500934362E-3,1.053072209E0
1.066862808E1,-4.934639244E-1,1.189970950E0,-4.898504913E-2,1.289161372E0
1.067859408E1,-5.877656257E-1,1.561828138E0,-7.718470842E-2,1.670548725E0
1.068856108E1,-5.975696522E-1,1.936702489E0,-2.221038553E-1,2.038930147E0
1.069852708E1,-7.634934595E-1,2.393204556E0,-8.270614645E-1,2.644689202E0
1.070849408E1,-1.040981411E0,2.984153405E0,-1.189040366E0,3.376778174E0
1.071846108E1,-1.062502015E0,3.447989050E0,-1.541104144E0,3.923332894E0
1.072842708E1,-1.045246516E0,3.775716131E0,-1.892874684E0,4.351039778E0
1.073839408E1,-1.194316090E0,4.042296540E0,-1.902638073E0,4.624563101E0
1.074836008E1,-1.428328019E0,4.063295061E0,-1.764847851E0,4.654586514E0
1.075832708E1,-1.423389022E0,3.758705412E0,-1.233007042E0,4.204070533E0
1.076829308E1,-1.279639610E0,3.148919172E0,-7.910765299E-1,3.489838328E0
1.077826008E1,-1.174964291E0,2.258190592E0,-6.433513042E-1,2.625617401E0
1.078822608E1,-1.095479068E0,1.723407757E0,-8.970687157E-1,2.230457569E0
1.079819308E1,-9.023563528E-1,1.850144402E0,-1.348938033E0,2.461080070E0
1.080816008E1,-1.026786564E0,2.404786136E0,-1.782023170E0,3.164315658E0
1.081812608E1,-1.238375225E0,2.637395976E0,-2.218348542E0,3.662035087E0
1.082809308E1,-1.154425580E0,2.834647118E0,-2.810797495E0,4.155539106E0
1.083805908E1,-7.652571259E-1,3.101340378E0,-3.253982820E0,4.559861270E0
1.084802608E1,-4.127744680E-1,3.116970570E0,-3.656328559E0,4.822305136E0
1.085799208E1,-3.313867810E-1,2.726188869E0,-4.009152475E0,4.859550032E0
1.086795908E1,-3.711898743E-1,2.047071024E0,-4.101458376E0,4.598939281E0
1.087792608E1,-5.696284398E-1,8.558054996E-1,-4.125831617E0,4.251983789E0
1.088789208E1,-7.616105099E-1,-7.972848111E-1,-4.147712775E0,4.291763612E0
1.089785908E1,-9.284998387E-1,-2.805477698E0,-3.719954744E0,4.750882061E0
1.090782508E1,-1.250608331E0,-4.937315222E0,-2.806392202E0,5.815233443E0
1.091779208E1,-1.593166729E0,-7.138364484E0,-1.196846838E0,7.411266429E0
1.092775808E1,-2.546124740E0,-9.031518665E0,8.845770165E-2,9.383970660E0
1.093772508E1,-3.263045712E0,-1.112649827E1,9.089256996E-1,1.163067397E1
1.094769208E1,-3.882388641E0,-1.285076966E1,1.019623286E0,1.346309229E1
1.095765808E1,-3.762423656E0,-1.392587381E1,1.067990869E0,1.446466030E1
1.096762508E1,-2.816229266E0,-1.490008776E1,1.854052096E0,1.527682139E1
1.097759108E1,-1.987438195E0,-1.603664615E1,1.954049424E0,1.627704640E1
1.098755808E1,-1.632222475E0,-1.625116880E1,1.544719916E0,1.640581596E1
1.099752408E1,-1.335062298E0,-1.559644086E1,1.488295601E0,1.572407017E1
1.100749108E1,-9.157520315E-1,-1.480209779E1,1.786029682E0,1.493755678E1
1.101745808E1,-5.533750076E-1,-1.418240987E1,2.393730074E0,1.439364156E1
1.102742408E1,-2.455700473E-1,-1.332779837E1,2.853150047E0,1.363198369E1
1.103739108E1,2.081791498E-1,-1.181128908E1,2.940806242E0,1.217366952E1
1.104735708E1,8.522708577E-1,-9.524734229E0,2.823992321E0,9.971051117E0
1.105732408E1,1.498551178E0,-6.783301084E0,2.813909383E0,7.495126099E0
1.106729008E1,1.973084742E0,-4.049120826E0,2.849682941E0,5.330022113E0
1.107725708E1,2.213044240E0,-1.870116152E0,2.902710462E0,4.101295802E0
1.108722308E1,2.450245021E0,-1.675373465E-1,2.476416574E0,3.487751206E0
1.109719008E1,3.108172849E0,1.701974203E0,1.490169049E0,3.844224037E0
1.110715708E1,3.811741996E0,3.826517326E0,1.306463566E0,5.556838934E0
1.111712308E1,4.240803080E0,6.368676192E0,1.899146115E0,7.883603438E0
1.112709008E1,3.906243819E0,9.080638785E0,2.427966253E0,1.017898628E1
1.113705608E1,3.321861100E0,1.198845854E1,2.623815525E0,1.271386280E1
1.114702308E1,3.104066058E0,1.499396364E1,2.073785490E0,1.545169111E1
1.115698908E1,3.547790496E0,1.707490466E1,1.051053386E0,1.747123063E1
1.116695608E1,4.487818412E0,1.729974648E1,4.917832884E-1,1.787913849E1
1.117692208E1,4.992100124E0,1.539175908E1,4.591146022E-2,1.618114393E1
1.118688908E1,3.914775491E0,1.250131666E1,-5.455197850E-1,1.311129197E1
1.119685608E1,2.935546086E0,1.081831726E1,-1.117139202E0,1.126505300E1
1.120682208E1,2.256008703E0,1.045610680E1,-1.706765704E0,1.083202631E1
1.121678908E1,1.380796295E0,1.010042652E1,-2.733030111E0,1.055436725E1
1.122675508E1,4.955255795E-1,9.455175167E0,-3.913904841E0,1.024522006E1
1.123672208E1,-2.448203612E-1,8.641246256E0,-4.546298170E0,9.767287286E0
1.124668808E1,-9.651238009E-1,7.640777133E0,-4.793764031E0,9.071555144E0
1.125665508E1,-1.312544086E0,6.339911399E0,-4.430788179E0,7.845325513E0
1.126662208E1,-1.322556565E0,5.045069466E0,-3.739161093E0,6.417414391E0
1.127658808E1,-8.753381965E-1,4.335378284E0,-3.092069325E0,5.396537273E0
1.128655508E1,-2.130811630E-1,4.855390468E0,-2.734198385E0,5.576384222E0
1.129652108E1,2.938350850E-1,5.764534854E0,-2.573195594E0,6.319615234E0
1.130648808E1,5.671249545E-1,6.923080528E0,-2.303256837E0,7.318173732E0
1.131645408E1,8.232821167E-1,8.209122401E0,-2.023437163E0,8.494809121E0
1.132642108E1,1.262645848E0,9.443091311E0,-1.906707442E0,9.716057910E0
1.133638808E1,1.742119285E0,1.051405505E1,-1.772720250E0,1.080383591E1
1.134635408E1,2.103781706E0,1.119294836E1,-1.522921058E0,1.149031240E1
1.135632108E1,2.252723153E0,1.156049849E1,-1.353606450E0,1.185546867E1
1.136628708E1,2.262564602E0,1.159279032E1,-1.388794994E0,1.189288601E1
1.137625408E1,2.324412063E0,1.147546010E1,-1.853856214E0,1.185436032E1
1.138622008E1,2.335855649E0,1.144747181E1,-2.743367111E0,1.200112060E1
1.139618708E1,2.011626372E0,1.136320525E1,-3.482820036E0,1.205400803E1
1.140615267E1,1.332003473E0,1.095190041E1,-4.165990002E0,1.179295673E1
1.141611967E1,8.989772469E-1,1.009391623E1,-3.428653477E0,1.069817600E1
1.142608667E1,1.327735883E0,9.007103031E0,-2.261258041E0,9.381048743E0
1.143605267E1,2.617754886E0,7.123316674E0,-1.033485719E0,7.659136623E0
1.144601967E1,2.716124057E0,2.990654925E0,7.465988070E-1,4.108376388E0
1.145598567E1,9.568494791E-1,-4.227934527E0,5.326273177E0,6.867326790E0
1.146595267E1,1.267539090E0,-2.249063907E1,5.955028954E0,2.330016890E1
1.147591867E1,1.371279221E0,-3.805767428E1,6.558842847E0,3.864305110E1
1.148588567E1,-2.372633466E0,-1.547797978E1,5.071452688E0,1.645955285E1
1.149585267E1,-4.662972634E0,-1.192574716E-1,-2.708734345E-1,4.672355782E0
1.150581867E1,-6.683265749E0,-3.216445157E0,1.467766611E-1,7.418430017E0
1.151578567E1,-5.666873488E0,-5.832580072E0,3.222084796E0,8.747243901E0
1.152575167E1,-3.708943852E0,-9.899828435E0,3.617157769E0,1.117348190E1
1.153571867E1,-2.882712985E0,-1.428875435E1,3.555591266E0,1.500402494E1
1.154568467E1,-1.088318568E0,-1.427386032E1,1.819547823E0,1.443046361E1
1.155565167E1,9.726033399E-1,-1.074169300E1,-3.645440751E-1,1.079179402E1
1.156561767E1,1.426579117E0,-6.580395684E0,-1.042170296E0,6.813431900E0
1.157558467E1,-6.047592424E-1,-5.486144239E0,-6.908140308E-1,5.562439786E0
1.158555167E1,-2.882270350E0,-6.941568840E0,-1.855039398E-1,7.518462079E0
1.159551767E1,-3.868772230E0,-7.879744651E0,4.335523295E-1,8.788955680E0
1.160548467E1,-3.933305610E0,-8.030749580E0,8.733237576E-1,8.984794167E0
1.161545067E1,-3.065873214E0,-7.108844231E0,8.370354988E-1,7.786903960E0
1.162541767E1,-1.912090535E0,-5.464127133E0,9.607063025E-1,5.868196668E0
1.163538367E1,-1.412314395E0,-4.117259599E0,1.174450686E0,4.508413576E0
1.164535067E1,-1.236545777E0,-2.976557288E0,1.110213613E0,3.409034029E0
1.165531767E1,-1.095620571E0,-1.932008929E0,1.040753662E0,2.452796592E0
1.166528367E1,-9.988096833E-1,-9.808704257E-1,9.266791619E-1,1.678827521E0
1.167525067E1,-8.222652858E-1,-1.452050757E-1,6.813266310E-1,1.077687660E0
1.168521667E1,-5.566987842E-1,4.745009655E-1,3.778695872E-1,8.233165415E-1
1.169518367E1,-3.060368353E-1,8.996713114E-1,-1.634296775E-4,9.502983951E-1
1.170514967E1,-8.228231102E-2,1.165126131E0,-4.008421281E-1,1.234894203E0
1.171511667E1,1.050827976E-1,1.263953431E0,-7.975094904E-1,1.498212955E0
1.172508267E1,2.306919533E-1,1.406850611E0,-1.103563867E0,1.802859015E0
1.173504967E1,3.489117634E-1,1.701782999E0,-1.328519117E0,2.186954010E0
1.174501667E1,3.451093190E-1,1.934624974E0,-1.489353216E0,2.465775179E0
1.175498267E1,1.581841403E-1,2.093462833E0,-1.523476835E0,2.593952683E0
1.176494967E1,-1.474536956E-1,2.140227109E0,-1.479840965E0,2.606193384E0
1.177491567E1,-4.531045416E-1,2.005197358E0,-1.365825669E0,2.468116676E0
1.178488267E1,-6.709253845E-1,1.743677714E0,-1.265935199E0,2.256799675E0
1.179484867E1,-7.924447053E-1,1.321986462E0,-1.213690912E0,1.961800817E0
1.180481567E1,-8.603907399E-1,7.001859480E-1,-1.059841751E0,1.534208957E0
1.181478267E1,-6.713274537E-1,1.756117666E-1,-9.289980215E-1,1.159550502E0
1.182474867E1,-4.351932044E-1,-2.096396381E-1,-8.109199333E-1,9.438924946E-1
1.183471567E1,-2.158533280E-1,-3.392449272E-1,-7.134105957E-1,8.189227423E-1
1.184468167E1,-1.207012953E-1,-3.239275610E-1,-6.256204998E-1,7.147719058E-1
1.185464867E1,-2.171720213E-1,-2.909972119E-1,-6.069912708E-1,7.073057804E-1
1.186461467E1,-3.836176195E-1,-2.935483521E-1,-6.545088150E-1,8.134586049E-1
1.187458167E1,-6.000341805E-1,-4.038847268E-1,-6.831385370E-1,9.949081118E-1
1.188454867E1,-7.097286040E-1,-5.580202550E-1,-7.334501731E-1,1.163206969E0
1.189451467E1,-7.943055817E-1,-8.381662041E-1,-8.099348237E-1,1.410474516E0
1.190448167E1,-8.757986648E-1,-9.627937585E-1,-7.400139651E-1,1.497202655E0
1.191444767E1,-9.772166468E-1,-8.671707326E-1,-6.373377353E-1,1.453663250E0
1.192441467E1,-1.031723222E0,-6.834313363E-1,-6.488316071E-1,1.397323746E0
1.193438067E1,-1.001663490E0,-4.578609592E-1,-7.512580146E-1,1.333174786E0
1.194434767E1,-9.248708374E-1,-2.525652176E-1,-8.288429649E-1,1.267342067E0
1.195431367E1,-8.131246991E-1,-9.415946782E-2,-9.128366098E-1,1.226094800E0
1.196428067E1,-7.312688693E-1,1.190680218E-1,-9.034603071E-1,1.168405700E0
1.197424767E1,-6.718478559E-1,3.960962355E-1,-8.689278209E-1,1.167607523E0
1.198421367E1,-6.458299389E-1,7.407346344E-1,-1.035931901E0,1.427914218E0
1.199418067E1,-6.509529039E-1,1.040109152E0,-1.291505804E0,1.781447157E0
1.200414667E1,-6.609597556E-1,1.297286069E0,-1.428049107E0,2.039397753E0
1.201411367E1,-6.520534960E-1,1.609088843E0,-1.484596652E0,2.284374726E0
1.202407967E1,-6.572887275E-1,1.931655173E0,-1.539820973E0,2.556241148E0
1.203404667E1,-7.371260983E-1,2.273254189E0,-1.671266088E0,2.916190980E0
1.204401367E1,-8.397483876E-1,2.717918567E0,-1.798288077E0,3.365426972E0
1.205397967E1,-8.765085167E-1,3.276808303E0,-1.896397924E0,3.886137532E0
1.206394667E1,-8.518235457E-1,3.910069360E0,-2.095256758E0,4.517117071E0
1.207391267E1,-8.754080708E-1,4.579060997E0,-2.443986162E0,5.263763602E0
1.208387967E1,-1.153685542E0,5.144687895E0,-2.623140171E0,5.888944576E0
1.209384567E1,-1.565393624E0,5.455169199E0,-2.549539222E0,6.221694176E0
1.210381267E1,-1.843101869E0,5.475175447E0,-2.518388180E0,6.302130568E0
1.211377867E1,-1.965155041E0,5.165363649E0,-2.690451564E0,6.146653201E0
1.212374567E1,-1.967216477E0,4.654712273E0,-2.689945487E0,5.724691584E0
1.213371267E1,-1.852420723E0,3.761798004E0,-2.205147575E0,4.737643147E0
1.214367867E1,-1.542332644E0,2.470150405E0,-1.456168513E0,3.255896151E0
1.215364567E1,-1.165382093E0,8.094113517E-1,-6.958940917E-1,1.580357790E0
1.216361167E1,-8.912558524E-1,-1.421819483E0,2.826222450E-2,1.678304618E0
1.217357867E1,-6.813549900E-1,-4.264183171E0,8.431106097E-1,4.399811160E0
1.218354467E1,-8.252532130E-1,-7.087812381E0,1.137901495E0,7.225852685E0
1.219351167E1,-7.995576239E-1,-9.683293760E0,1.594987698E0,9.846291495E0
1.220347767E1,-8.729545060E-1,-1.078661599E1,1.458465738E0,1.091971870E1
1.221344467E1,-8.800895709E-1,-1.176882543E1,2.275867894E0,1.201912577E1
1.222341167E1,-8.088234141E-1,-1.298014749E1,3.081255777E0,1.336534928E1
1.223337767E1,-4.997509968E-1,-1.408806505E1,3.662693546E0,1.456498032E1
1.224334467E1,1.412387632E-1,-1.509974679E1,3.530553489E0,1.550764681E1
1.225331067E1,9.894591084E-1,-1.552662394E1,3.443132937E0,1.593456133E1
1.226327767E1,1.891820139E0,-1.566446503E1,2.946090370E0,1.605097806E1
1.227324367E1,2.431505426E0,-1.551351448E1,1.795044335E0,1.580517429E1
1.228321067E1,2.414410799E0,-1.498327493E1,8.293670216E-1,1.519920251E1
1.229317767E1,1.693870108E0,-1.470824062E1,1.359623820E-1,1.480608064E1
1.230314367E1,1.794675668E-1,-1.456011895E1,-6.413810849E-2,1.456136622E1
1.231311067E1,-1.437209647E0,-1.344360482E1,2.233933125E-1,1.352205556E1
1.232307667E1,-2.850003076E0,-1.119125969E1,8.385205454E-1,1.157885692E1
1.233304367E1,-4.080773558E0,-8.397761180E0,1.833468143E0,9.515078092E0
1.234300967E1,-4.569825904E0,-5.288823515E0,2.423031787E0,7.397705456E0
1.235297667E1,-4.137320226E0,-1.984424540E0,2.780487283E0,5.365302316E0
1.236294367E1,-2.919878472E0,9.582241595E-1,3.056983108E0,4.334631421E0
1.237290967E1,-8.123752322E-1,3.699697650E0,2.630081401E0,4.611403734E0
1.238287667E1,1.614499857E0,6.182745259E0,1.794296768E0,6.637201942E0
1.239284267E1,3.636389554E0,8.356893820E0,1.212086874E0,9.194028383E0
1.240280983E1,4.229494565E0,1.064295224E1,9.605221152E-1,1.149276553E1
1.241277583E1,3.556494076E0,1.300576531E1,5.314373508E-1,1.349373955E1
1.242274283E1,2.910511525E0,1.532378052E1,-6.817040688E-1,1.561262461E1
1.243270883E1,2.647617201E0,1.750512408E1,-2.303073819E0,1.785338609E1
1.244267583E1,2.430332475E0,1.797296097E1,-3.455005124E0,1.846268947E1
1.245264283E1,1.600552493E0,1.605894042E1,-3.973153800E0,1.662038768E1
1.246260883E1,9.797262718E-1,1.294243996E1,-3.854794753E0,1.353979536E1
1.247257583E1,1.940367232E0,1.067175563E1,-2.717944002E0,1.118206657E1
1.248254183E1,2.651230195E0,9.594425438E0,-1.260617302E0,1.003350273E1
1.249250883E1,2.669737510E0,8.483490132E0,-4.656935969E-1,8.905839305E0
1.250247483E1,2.462874130E0,7.027490750E0,-3.020940578E-1,7.452693207E0
1.251244183E1,1.965074934E0,5.783128415E0,-5.563570145E-1,6.133157986E0
1.252240783E1,1.146193066E0,5.372542194E0,-9.592605785E-1,5.576571440E0
1.253237483E1,1.615442793E-1,6.170979491E0,-1.367491541E0,6.322746045E0
1.254234183E1,-1.065283608E0,7.096945732E0,-2.020379654E0,7.455427676E0
1.255230783E1,-1.780455824E0,7.371269608E0,-2.748761168E0,8.066060162E0
1.256227483E1,-1.804114828E0,7.834325818E0,-3.337593618E0,8.704655220E0
1.257224083E1,-1.222114118E0,8.847756464E0,-3.639780647E0,9.644913713E0
1.258220783E1,-3.984960059E-1,9.893643250E0,-3.711562528E0,1.057443484E1
1.259217383E1,1.951420881E-1,1.038473335E1,-3.719277929E0,1.103239754E1
1.260214083E1,1.005401103E0,1.031686238E1,-3.585094270E0,1.096819865E1
1.261210783E1,2.173126907E0,1.017941773E1,-3.297049025E0,1.091849615E1
1.262207383E1,3.169336187E0,1.018948897E1,-2.642778338E0,1.099339141E1
1.263204083E1,3.671666098E0,1.048089783E1,-1.661306818E0,1.122899335E1
1.264200683E1,3.730375067E0,1.070045844E1,-6.976725224E-1,1.135351293E1
1.265197383E1,3.717278181E0,1.060658022E1,-1.027501971E-2,1.123911948E1
1.266193983E1,3.740218562E0,1.022932021E1,3.249546245E-1,1.089650505E1
1.267190683E1,3.559742789E0,9.815432063E0,7.157740402E-1,1.046550562E1
1.268187283E1,3.043818979E0,9.590430620E0,1.655306113E0,1.019711880E1
1.269183983E1,2.537526702E0,9.151004178E0,2.609838048E0,9.848409712E0
1.270180683E1,3.547989009E0,8.150428051E0,1.535208981E0,9.020785444E0
1.271177283E1,4.146709393E0,6.671045653E0,-5.422275102E-1,7.873503640E0
1.272173983E1,3.811581783E0,1.621303677E0,-4.562719783E-1,4.167129158E0
1.273170583E1,3.357737568E0,-9.924163377E0,6.323415819E-1,1.049586948E1
1.274167283E1,-1.599786800E0,-2.267881182E1,3.281112731E0,2.297071014E1
1.275163883E1,-8.713090410E0,-2.499478636E1,4.668067021E0,2.687839540E1
1.276160583E1,-8.241918265E0,-1.435373797E1,2.776458259E0,1.678295954E1
1.277157283E1,-4.309884424E0,-5.306425973E0,3.850932375E0,7.846205485E0
1.278153883E1,-1.350621008E0,-3.647574985E0,4.384740479E0,5.861307827E0
1.279150583E1,1.257896154E0,-6.001367553E0,3.534852362E0,7.077704180E0
1.280147183E1,3.675776106E0,-7.207140019E0,1.948834877E0,8.321787946E0
1.281143883E1,4.159956845E0,-7.694777924E0,-4.996901858E-1,8.761537452E0
1.282140483E1,1.199832280E0,-7.758904923E0,-8.316155684E-1,7.895048293E0
1.283137183E1,-2.019000149E0,-6.516924743E0,-1.256160847E0,6.937190338E0
1.284133783E1,-4.093598548E0,-5.503187703E0,-1.652259421E0,7.054968828E0
1.285130483E1,-4.829093785E0,-6.454370645E0,-1.983955593E0,8.301513537E0
1.286127183E1,-5.157148311E0,-7.342114221E0,-1.563730676E0,9.107583300E0
1.287123783E1,-4.566283953E0,-6.925304224E0,-5.596301396E-1,8.314082850E0
1.288120483E1,-3.534589237E0,-6.643205305E0,4.363373584E-1,7.537631464E0
1.289117083E1,-2.599092035E0,-6.735732231E0,9.197149819E-1,7.278134633E0
1.290113783E1,-1.869100783E0,-6.738094506E0,7.266612634E-1,7.030184343E0
1.291110383E1,-1.216490705E0,-6.463376527E0,3.760367775E-1,6.587601189E0
1.292107083E1,-5.082715595E-1,-6.319998121E0,6.031958431E-1,6.369031438E0
1.293103783E1,-6.518446773E-2,-6.129273056E0,1.029718065E0,6.215509352E0
1.294100383E1,-1.614065409E-2,-5.759381118E0,1.185520050E0,5.880152138E0
1.295097083E1,-2.293079174E-1,-5.300900354E0,5.916323894E-1,5.338741009E0
1.296093683E1,-3.266731942E-1,-5.469762679E0,1.733271132E-1,5.482249669E0
1.297090383E1,-4.972944354E-1,-6.055863018E0,1.337228984E-1,6.077718360E0
1.298086983E1,-1.123904723E0,-4.993751378E0,-5.142091146E-1,5.144426660E0
1.299083683E1,-1.587728965E0,-3.581428358E0,-1.234092578E0,4.107371037E0
1.300080283E1,-1.899616232E0,-2.390268669E0,-1.334162704E0,3.331953820E0
1.301076983E1,-2.122194881E0,-1.526767648E0,-1.059195049E0,2.820748964E0
1.302073683E1,-2.110232355E0,-9.610109425E-1,-8.284294206E-1,2.462299317E0
1.303070283E1,-1.836591141E0,-5.601808012E-1,-7.248085731E-1,2.052368635E0
1.304066983E1,-1.481170038E0,-2.083988589E-1,-7.351388490E-1,1.666650501E0
1.305063583E1,-1.178627352E0,1.104463023E-1,-8.295591027E-1,1.445520365E0
1.306060283E1,-8.770488726E-1,3.329474759E-1,-9.528254253E-1,1.337140620E0
1.307056883E1,-5.551984618E-1,5.571735781E-1,-9.827371493E-1,1.258753365E0
1.308053583E1,-2.533929641E-1,8.739301139E-1,-8.136514601E-1,1.220651685E0
1.309050283E1,-1.687864579E-2,1.227280279E0,-6.357101628E-1,1.382255108E0
1.310046883E1,1.094687940E-1,1.626396017E0,-6.187254632E-1,1.743550579E0
1.311043583E1,1.160311241E-1,2.029062184E0,-7.284221524E-1,2.158970912E0
1.312040183E1,4.313344806E-2,2.400479661E0,-9.006600755E-1,2.564244854E0
1.313036883E1,6.258143350E-2,2.738110172E0,-1.110807252E0,2.955512900E0
1.314033483E1,9.077531867E-2,3.017988904E0,-1.249937363E0,3.267849536E0
1.315030183E1,4.825655915E-2,3.181895129E0,-1.267588353E0,3.425429249E0
1.316026783E1,6.899495199E-3,3.214786302E0,-1.247228933E0,3.448257325E0
1.317023483E1,-1.196866572E-2,3.087894121E0,-1.077376966E0,3.270470070E0
1.318020183E1,4.613087699E-3,2.876209711E0,-8.666868755E-1,3.003955680E0
1.319016783E1,6.613259375E-2,2.545925058E0,-7.151483881E-1,2.645287345E0
1.320013483E1,1.466507267E-1,2.134256517E0,-5.461746731E-1,2.207909439E0
1.321010083E1,2.512453549E-1,1.762967679E0,-3.996928579E-1,1.825084559E0
1.322006783E1,3.473754074E-1,1.565766238E0,-2.797129628E-1,1.628045739E0
1.323003383E1,3.566296495E-1,1.533291972E0,-2.071156874E-1,1.587786473E0
1.324000083E1,4.514657132E-1,1.587721948E0,-2.523710901E-1,1.669842340E0
1.324996783E1,5.975456786E-1,1.835290135E0,-3.724115038E-1,1.965716421E0
1.325993383E1,6.699632983E-1,2.192833924E0,-4.406958729E-1,2.334862799E0
1.326990083E1,6.347008603E-1,2.621896176E0,-5.748190132E-1,2.758188108E0
1.327986683E1,5.863795432E-1,3.182293324E0,-7.523203075E-1,3.322170618E0
1.328983383E1,5.178973921E-1,3.728496357E0,-8.762415183E-1,3.864932339E0
1.329979983E1,4.387251420E-1,4.240068085E0,-1.002852156E0,4.379083187E0
1.330976683E1,3.783041815E-1,4.703563421E0,-1.157883185E0,4.858736088E0
1.331973283E1,2.344454272E-1,5.127436854E0,-1.364513261E0,5.311070494E0
1.332969983E1,-4.427862525E-2,5.506029450E0,-1.668833354E0,5.753548962E0
1.333966683E1,-3.755377907E-1,5.728112547E0,-1.802607416E0,6.016784480E0
1.334963283E1,-6.979455142E-1,5.821049947E0,-1.843369525E0,6.145710832E0
1.335959983E1,-9.363507490E-1,5.750212684E0,-2.162637148E0,6.214394425E0
1.336956583E1,-1.048612685E0,5.401526257E0,-2.730445350E0,6.142589542E0
1.337953283E1,-1.301880226E0,4.692119835E0,-3.355760625E0,5.913713727E0
1.338949883E1,-1.886797381E0,3.549401404E0,-3.715273755E0,5.473711150E0
1.339946583E1,-2.490093504E0,2.089748096E0,-3.949831595E0,5.115543216E0
1.340943267E1,-3.150336244E0,2.434453154E-1,-3.972272332E0,5.075709956E0
1.341939867E1,-4.036442893E0,-1.479826786E0,-3.864925346E0,5.781038529E0
1.342936567E1,-5.052800070E0,-3.039743469E0,-3.393998784E0,6.803679641E0
1.343933167E1,-5.937016606E0,-4.713690798E0,-2.271867229E0,7.913812471E0
1.344929867E1,-6.423928871E0,-6.567041228E0,-1.002482319E0,9.241096441E0
1.345926467E1,-6.426857741E0,-8.440442346E0,1.333280651E-1,1.060958735E1
1.346923167E1,-5.913221946E0,-1.043041648E1,9.749933892E-1,1.202956333E1
1.347919767E1,-4.958313158E0,-1.278776708E1,1.284291071E0,1.377538601E1
1.348916467E1,-3.846721210E0,-1.540003172E1,1.331889599E0,1.592897269E1
1.349913167E1,-2.657344337E0,-1.712374412E1,1.178172731E0,1.736871275E1
1.350909767E1,-1.618222194E0,-1.722717668E1,8.222896980E-1,1.732254080E1
1.351906467E1,-1.007851598E0,-1.652889751E1,9.016580491E-1,1.658412509E1
1.352903067E1,-8.485567063E-1,-1.567824926E1,1.012326692E0,1.573379654E1
1.353899767E1,-8.140005389E-1,-1.489164672E1,9.986599946E-1,1.494727603E1
1.354896367E1,-6.618649777E-1,-1.455437348E1,1.093007012E0,1.461035649E1
1.355893067E1,-4.566855226E-1,-1.443403661E1,1.193940333E0,1.449053029E1
1.356889767E1,-4.143389636E-1,-1.427278093E1,1.331441117E0,1.434073525E1
1.357886367E1,-6.462909919E-1,-1.386388397E1,1.622723966E0,1.397348216E1
1.358883067E1,-8.853950420E-1,-1.296556453E1,1.877885639E0,1.313073656E1
1.359879667E1,-9.201947460E-1,-1.129951738E1,2.693677473E0,1.165254263E1
1.360876367E1,-7.674045159E-1,-8.696093139E0,3.739695236E0,9.497171476E0
1.361872967E1,-1.479941976E-1,-5.679274848E0,4.625281190E0,7.325932785E0
1.362869667E1,1.127550535E0,-2.450045924E0,4.782980304E0,5.490992244E0
1.363866267E1,2.624788794E0,6.531304801E-1,4.193093893E0,4.989802805E0
1.364862967E1,4.099764437E0,3.234130061E0,2.967082459E0,6.005934067E0
1.365859667E1,5.368759046E0,5.487586747E0,1.514641108E0,7.825044388E0
1.366856267E1,5.716062021E0,7.406093870E0,7.290217844E-1,9.383765993E0
1.367852967E1,4.953874537E0,9.119487101E0,6.029335955E-1,1.039564557E1
1.368849567E1,4.258941435E0,1.098126746E1,2.609010082E-1,1.178112416E1
1.369846267E1,3.815588880E0,1.353759998E1,-7.583291987E-1,1.408546751E1
1.370842867E1,3.210181327E0,1.630692434E1,-1.882516927E0,1.672617457E1
1.371839567E1,3.380788754E0,1.787707131E1,-2.465345163E0,1.836021073E1
1.372836167E1,3.788000547E0,1.650013389E1,-2.318799321E0,1.708742803E1
1.373832867E1,4.948170578E0,1.305437789E1,-1.641403773E0,1.405686240E1
1.374829567E1,6.383277274E0,1.068796411E1,-8.888165402E-1,1.248073717E1
1.375826167E1,6.439147419E0,9.638615770E0,-3.337269098E-1,1.159641786E1
1.376822867E1,6.135131382E0,8.832436175E0,-3.516866326E-2,1.075420860E1
1.377819467E1,4.939535410E0,8.031364122E0,-3.972946224E-1,9.437142721E0
1.378816167E1,3.245698484E0,7.392583294E0,-1.395130160E0,8.193365278E0
1.379812767E1,1.834867528E0,7.280385166E0,-2.781716952E0,8.006790631E0
1.380809467E1,8.031000133E-1,7.549629566E0,-4.156554642E0,8.655565996E0
1.381806067E1,-4.683239669E-2,7.845846587E0,-5.321899459E0,9.480617902E0
1.382802767E1,-1.083278853E0,7.921004359E0,-5.907797484E0,9.940717994E0
1.383799467E1,-2.289649635E0,7.522660453E0,-5.433770728E0,9.558178701E0
1.384796067E1,-3.101362013E0,7.195861325E0,-4.142394440E0,8.863311922E0
1.385792767E1,-2.559305241E0,7.368494520E0,-3.287304640E0,8.464698849E0
1.386789367E1,-1.380814129E0,7.607091908E0,-3.148398769E0,8.347868577E0
1.387786067E1,-6.134781718E-1,7.881053842E0,-3.125934352E0,8.500519437E0
1.388782667E1,1.064032450E-1,8.369137890E0,-2.971715793E0,8.881716356E0
1.389779367E1,8.971236795E-1,9.195893837E0,-2.709668438E0,9.628686172E0
1.390776067E1,1.255704179E0,1.016385946E1,-2.178738333E0,1.047032630E1
1.391772667E1,1.375825577E0,1.085945125E1,-1.778684117E0,1.108982843E1
1.392769367E1,1.787568523E0,1.120380781E1,-1.758046955E0,1.148091633E1
1.393765967E1,2.058300601E0,1.152682905E1,-2.256970863E0,1.192469316E1
1.394762667E1,1.713479331E0,1.206864843E1,-2.986287054E0,1.255014728E1
1.395759267E1,8.932930224E-1,1.249687511E1,-3.007957420E0,1.288478436E1
1.396755967E1,-2.046022252E-1,1.239848519E1,-2.411272160E0,1.263243961E1
1.397752567E1,-7.851269149E-1,1.171515501E1,-1.737636079E0,1.186931591E1
1.398749267E1,-6.773549098E-1,9.896124809E0,1.155702174E-2,9.919285734E0
1.399745967E1,2.932358184E-1,7.338421120E0,2.420737340E0,7.732941294E0
1.400742567E1,1.486156689E0,5.673420616E0,3.468940208E0,6.813949615E0
1.401739267E1,1.955510643E0,2.706972579E0,4.258136566E0,5.411418431E0
1.402735867E1,2.905314812E-1,-4.585846106E0,6.057838792E0,7.603407386E0
1.403732567E1,-1.013592906E0,-2.807500133E1,2.304487091E0,2.818765210E1
1.404729167E1,-2.189474698E0,-2.717565512E1,6.842294812E0,2.810919830E1
1.405725867E1,-1.449423896E0,-1.185429652E1,6.580022632E0,1.363531714E1
1.406722567E1,-1.349336813E0,-1.037503750E1,1.201204329E0,1.053114451E1
1.407719167E1,-9.181825729E-1,-8.477464576E0,-9.267982990E-2,8.527546800E0
1.408715867E1,2.005648617E0,-7.115594841E0,1.172963154E0,7.485329577E0
1.409712467E1,4.955059767E0,-7.645202306E0,6.024772203E-1,9.130427942E0
1.410709167E1,4.952671180E0,-8.158276768E0,-1.312080840E0,9.633690247E0
1.411705767E1,3.283033249E0,-8.006844993E0,-2.430389193E0,8.988585299E0
1.412702467E1,5.727925144E-1,-8.727465205E0,-8.851988679E-1,8.790922432E0
1.413699067E1,-3.057282193E0,-9.519084064E0,8.875441861E-1,1.003731391E1
1.414695767E1,-5.545794024E0,-9.504321599E0,7.827954108E-1,1.103180534E1
1.415692467E1,-7.705395298E0,-1.014756561E1,5.702953148E-1,1.275427149E1
1.416689067E1,-8.999172453E0,-1.005620052E1,9.507379693E-1,1.352834715E1
1.417685767E1,-7.646179376E0,-9.157786948E0,1.774532448E0,1.206142969E1
1.418682367E1,-5.451251564E0,-8.738789508E0,1.536635556E0,1.041363695E1
1.419679067E1,-3.138298289E0,-7.810428833E0,6.846608596E-1,8.445145067E0
1.420675667E1,-1.605343702E0,-7.112548442E0,2.627784030E-1,7.296199437E0
1.421672367E1,-4.573541518E-1,-6.296674747E0,7.760570794E-2,6.313739648E0
1.422669067E1,9.524343927E-1,-4.999898556E0,-2.454848242E-1,5.095721700E0
1.423665667E1,1.712668760E0,-3.499109502E0,-7.761691998E-1,3.972334353E0
1.424662367E1,1.403189669E0,-2.459003273E0,-6.681413059E-1,2.908960493E0
1.425658967E1,8.474748252E-1,-1.933502893E0,-3.297151351E-1,2.136670093E0
1.426655667E1,2.173493381E-1,-1.811773803E0,-1.820130059E-1,1.833819452E0
1.427652267E1,-5.611317046E-1,-1.661914344E0,-1.998139769E-1,1.765433007E0
1.428648967E1,-1.144937011E0,-1.234264778E0,-4.519997102E-1,1.743156344E0
1.429645567E1,-1.773190512E0,-8.813350278E-1,-7.841854401E-1,2.129765909E0
1.430642267E1,-2.091889347E0,-5.417193872E-1,-1.046400756E0,2.400919715E0
1.431638967E1,-2.112411320E0,-1.242691201E-1,-1.229213954E0,2.447180284E0
1.432635567E1,-1.858498173E0,2.957708788E-1,-1.391460155E0,2.340439538E0
1.433632267E1,-1.461414196E0,7.825895888E-1,-1.490596919E0,2.229362485E0
1.434628867E1,-1.102620200E0,1.295472847E0,-1.664154558E0,2.379796545E0
1.435625567E1,-7.701412321E-1,1.659885360E0,-1.726115164E0,2.515513960E0
1.436622167E1,-3.965602852E-1,1.921616088E0,-1.653494499E0,2.565913582E0
1.437618867E1,-1.783923369E-1,2.063851363E0,-1.407425246E0,2.504426501E0
1.438615467E1,-1.493286784E-1,2.101465917E0,-1.089614311E0,2.371859482E0
1.439612167E1,-1.498392865E-1,2.069817277E0,-8.678203583E-1,2.249379369E0
1.440608871E1,-1.376902342E-1,1.966881723E0,-6.650856972E-1,2.080846294E0
1.441605471E1,-9.943087891E-2,1.886729261E0,-6.072798309E-1,1.984545942E0
1.442602171E1,-4.639677912E-2,1.727800770E0,-6.513096571E-1,1.847065898E0
1.443598771E1,-3.131067038E-2,1.584018906E0,-7.583131188E-1,1.756455248E0
1.444595471E1,-7.753100976E-2,1.488923299E0,-8.615290466E-1,1.721957011E0
1.445592071E1,-8.164803430E-2,1.423709888E0,-9.996382338E-1,1.741520268E0
1.446588771E1,-1.218854295E-1,1.308857124E0,-9.817437074E-1,1.640665638E0
1.447585471E1,-1.901173930E-1,1.165923107E0,-9.466475496E-1,1.513823932E0
1.448582071E1,-2.124991458E-1,9.566278696E-1,-1.041248482E0,1.429857045E0
1.449578771E1,-2.685477776E-1,7.292103571E-1,-1.042528438E0,1.300281199E0
1.450575371E1,-3.377512559E-1,5.472075838E-1,-9.671575356E-1,1.161424018E0
1.451572071E1,-4.400532639E-1,6.034449345E-1,-8.059848833E-1,1.098819501E0
1.452568671E1,-4.849975947E-1,8.522170633E-1,-7.733357853E-1,1.248817371E0
1.453565371E1,-4.842521477E-1,1.279294186E0,-9.079886833E-1,1.641809126E0
1.454561971E1,-5.116494960E-1,1.870100949E0,-1.094474224E0,2.226417884E0
1.455558671E1,-4.603744579E-1,2.515892588E0,-1.259201107E0,2.850832788E0
1.456555371E1,-3.885476263E-1,3.138785947E0,-1.448603239E0,3.478706343E0
1.457551971E1,-2.969077237E-1,3.633736964E0,-1.627595866E0,3.992651603E0
1.458548671E1,-2.009462171E-1,3.954561993E0,-1.865940947E0,4.377290892E0
1.459545271E1,-1.125241104E-1,4.242022809E0,-2.087253090E0,4.729063823E0
1.460541971E1,5.410114355E-2,4.693828976E0,-2.344565954E0,5.247089374E0
1.461538571E1,3.124646064E-1,5.188353732E0,-2.450977093E0,5.746645742E0
1.462535271E1,5.751513543E-1,5.722576988E0,-2.327930041E0,6.204671203E0
1.463531871E1,4.890986855E-1,6.136563950E0,-2.216163145E0,6.542783331E0
1.464528571E1,2.837751697E-1,6.286944981E0,-2.540751441E0,6.786871402E0
1.465525271E1,-7.362645842E-2,6.082947321E0,-3.089759090E0,6.823069705E0
1.466521871E1,-5.493119967E-1,5.667129012E0,-3.264742573E0,6.563279590E0
1.467518571E1,-1.137207942E0,5.014580914E0,-3.207644805E0,6.060383556E0
1.468515171E1,-1.789637999E0,4.108123325E0,-2.913009163E0,5.344633177E0
1.469511871E1,-2.545069610E0,2.820775768E0,-2.460081500E0,4.526163523E0
1.470508471E1,-3.323984224E0,9.533008039E-1,-2.028250006E0,4.008921504E0
1.471505171E1,-3.961310849E0,-1.375187353E0,-1.556116578E0,4.472652759E0
1.472501771E1,-4.480467001E0,-3.798505654E0,-1.036217830E0,5.964643924E0
1.473498471E1,-4.527098838E0,-6.192809486E0,-5.287784757E-1,7.689286046E0
1.474495171E1,-4.098224573E0,-9.044124677E0,5.471701616E-1,9.944396966E0
1.475491771E1,-3.685871324E0,-1.224358075E1,9.274245358E-1,1.281994669E1
1.476488471E1,-2.893922682E0,-1.505212707E1,1.449211203E0,1.539615312E1
1.477485071E1,-1.985755658E0,-1.693733956E1,2.369958219E0,1.721724132E1
1.478481771E1,-9.150000796E-1,-1.755329110E1,3.039844041E0,1.783804657E1
1.479478371E1,3.588393854E-1,-1.731843184E1,3.421934441E0,1.765691033E1
1.480475071E1,1.844786013E0,-1.704072652E1,3.232700416E0,1.744247539E1
1.481471771E1,2.970169204E0,-1.698867928E1,2.817090853E0,1.747492860E1
1.482468371E1,3.457115091E0,-1.664708143E1,1.881495272E0,1.710605125E1
1.483465071E1,3.163791857E0,-1.555609741E1,9.681249574E-1,1.590405645E1
1.484461671E1,2.232380105E0,-1.429488340E1,3.033415613E-1,1.447132435E1
1.485458371E1,1.017894849E0,-1.299979530E1,2.968397498E-2,1.303961920E1
1.486454971E1,2.000783441E-1,-1.191848141E1,1.448283689E-1,1.192104046E1
1.487451671E1,-2.999604819E-1,-1.067993939E1,-2.289477289E-3,1.068415120E1
1.488448371E1,-8.573491645E-1,-8.724046923E0,6.337253255E-1,8.788950454E0
1.489444971E1,-1.166536187E0,-6.440003452E0,1.090453094E0,6.635023669E0
1.490441671E1,-1.366971431E0,-4.060067983E0,1.293944385E0,4.475159772E0
1.491438271E1,-1.459642490E0,-1.911959996E0,1.458618935E0,2.813132848E0
1.492434971E1,-1.104642606E0,-1.402454674E-2,1.452104844E0,1.824565826E0
1.493431571E1,-7.122415180E-1,1.817292990E0,1.183532289E0,2.282671783E0
1.494428271E1,-5.147200151E-1,3.895396357E0,3.374673736E-1,3.943720793E0
1.495424871E1,-3.719044771E-1,6.099681467E0,5.060268134E-2,6.111218174E0
1.496421571E1,-4.176889797E-1,7.986822372E0,3.742975232E-1,8.006490762E0
1.497418271E1,-2.138242710E-1,9.911304181E0,1.210296164E0,9.987216238E0
1.498414871E1,5.721086825E-1,1.249130857E1,1.787454064E0,1.263151179E1
1.499411571E1,1.279753485E0,1.529041514E1,1.801793191E0,1.544930493E1
1.500408171E1,2.052291272E0,1.714545600E1,1.417372091E0,1.732592002E1
1.501404871E1,3.408283239E0,1.715580791E1,9.916003588E-1,1.751917267E1
1.502401471E1,3.824283689E0,1.554388609E1,-2.537969336E-1,1.600943326E1
1.503398171E1,3.410783216E0,1.320057582E1,-1.646754268E0,1.373318768E1
1.504394771E1,2.961789852E0,1.141169972E1,-2.180574359E0,1.198974537E1
1.505391471E1,2.606809191E0,1.045618282E1,-1.931646694E0,1.094798942E1
1.506388171E1,1.942253690E0,1.020465080E1,-2.030624560E0,1.058445481E1
1.507384771E1,1.202847762E0,9.974388621E0,-2.686998198E0,1.039977069E1
1.508381471E1,5.433979035E-1,9.620892275E0,-3.532805544E0,1.026340901E1
1.509378071E1,-1.209479747E-1,9.100934470E0,-4.141718210E0,9.999773316E0
1.510374771E1,-9.219679872E-1,8.411265324E0,-4.291589948E0,9.487737012E0
1.511371371E1,-1.350397352E0,7.588612368E0,-3.996975941E0,8.682535768E0
1.512368071E1,-8.554951586E-1,6.372291525E0,-3.401590809E0,7.273842951E0
1.513364671E1,-1.216520526E-1,5.215105913E0,-2.679636261E0,5.864518684E0
1.514361371E1,6.746703069E-1,5.014979694E0,-2.044441531E0,5.457558294E0
1.515358071E1,1.557331483E0,5.827740331E0,-1.911695702E0,6.327907962E0
1.516354671E1,2.191454273E0,6.955354820E0,-2.162176972E0,7.606210736E0
1.517351371E1,2.464320146E0,7.699253967E0,-2.289656798E0,8.402018430E0
1.518347971E1,2.721176928E0,8.310714265E0,-2.533692975E0,9.104525005E0
1.519344671E1,2.906311178E0,9.105310526E0,-2.610092694E0,9.907871029E0
1.520341271E1,2.863863316E0,1.016307593E1,-2.256866490E0,1.079737338E1
1.521337971E1,2.823219904E0,1.127379197E1,-2.172812473E0,1.182328508E1
1.522334571E1,2.651243644E0,1.201839278E1,-2.830024309E0,1.262853497E1
1.523331271E1,2.136067108E0,1.279888380E1,-3.708733060E0,1.349551445E1
1.524327971E1,1.299125310E0,1.372956290E1,-3.985000259E0,1.435509843E1
1.525324571E1,3.858275016E-1,1.424162579E1,-4.257014485E0,1.486926160E1
1.526321271E1,7.671064541E-2,1.398527216E1,-3.458052692E0,1.440665993E1
1.527317871E1,1.572739481E-1,1.226390918E1,-2.551659714E0,1.252753650E1
1.528314571E1,7.480402187E-1,9.177047676E0,-2.027603011E0,9.428093243E0
1.529311171E1,9.672812042E-1,4.627259595E0,-7.257131374E-1,4.782658659E0
1.530307871E1,5.393367930E-1,-2.049858391E-1,3.249705289E0,3.300528418E0
1.531304571E1,-2.527729400E-1,-1.378616512E1,9.306558825E0,1.663533228E1
1.532301171E1,-2.364019640E0,-4.297409740E1,1.066859813E1,4.434163532E1
1.533297871E1,-8.358850591E-1,-4.233610537E1,1.086555925E1,4.371618578E1
1.534294471E1,1.629760213E0,-1.599461286E1,3.661120645E0,1.648901341E1
1.535291171E1,1.788944081E0,-3.045826913E0,-3.675219159E-1,3.551401817E0
1.536287771E1,4.028061494E0,-6.669497895E-1,-2.738183262E0,4.916070483E0
1.537284471E1,3.889138666E0,-2.708788725E0,-3.589972894E0,5.945657348E0
1.538281071E1,3.044386159E0,-6.114343945E0,-3.105262105E0,7.503075483E0
1.539277771E1,1.693662971E0,-9.183425819E0,-3.688057598E0,1.004019785E1
1.540274471E1,-2.300185149E0,-1.008386487E1,-2.632840995E0,1.067272384E1
1.541271042E1,-9.240130947E0,-9.006262786E0,4.549290191E-1,1.291122572E1
1.542267742E1,-1.153150683E1,-7.023100076E0,2.662206881E0,1.376179239E1
1.543264342E1,-8.947856119E0,-5.745404518E0,3.230536362E0,1.111351283E1
1.544261042E1,-6.690323339E0,-6.706040069E0,2.970108393E0,9.927383525E0
1.545257642E1,-3.960860321E0,-7.675328330E0,1.944740657E0,8.853309872E0
1.546254342E1,-1.295678523E0,-8.464506562E0,4.548951052E-1,8.575172519E0
1.547251042E1,2.043574096E-1,-8.872480246E0,-4.594632424E-1,8.886718975E0
1.548247642E1,8.817666985E-1,-8.087034878E0,-6.193405902E-1,8.158506505E0
1.549244342E1,8.023920617E-1,-6.560068424E0,-9.051407969E-1,6.670652937E0
1.550240942E1,9.033036017E-1,-4.799271231E0,-1.264604665E0,5.044619580E0
1.551237642E1,1.446487132E-1,-3.398127503E0,-1.110473961E0,3.577896895E0
1.552234242E1,-1.169564022E0,-2.574070045E0,-7.442067111E-1,2.923621081E0
1.553230942E1,-2.421714263E0,-2.421783991E0,-4.275033849E-1,3.451448510E0
1.554227542E1,-2.756868040E0,-2.623371429E0,-2.140116012E-1,3.811587597E0
1.555224242E1,-2.602129956E0,-3.041101778E0,-1.021672297E-1,4.003725574E0
1.556220942E1,-2.615947219E0,-3.140628989E0,-2.241588593E-1,4.093528734E0
1.557217542E1,-2.666993997E0,-2.975110686E0,-4.829917073E-1,4.024602038E0
1.558214242E1,-2.563825724E0,-2.626656979E0,-7.296763802E-1,3.742319715E0
1.559210842E1,-2.144641172E0,-2.016428690E0,-8.590740931E-1,3.066509207E0
1.560207542E1,-1.504983993E0,-1.327165926E0,-8.653920096E-1,2.185234437E0
1.561204142E1,-9.461840115E-1,-6.694331020E-1,-8.003010973E-1,1.408505132E0
1.562200842E1,-5.748683491E-1,3.373258710E-2,-8.021200199E-1,9.874249504E-1
1.563197442E1,-3.570808353E-1,7.945787197E-1,-8.492545715E-1,1.216591711E0
1.564194142E1,-2.940389335E-1,1.550724860E0,-9.184896979E-1,1.826151640E0
1.565190842E1,-3.193057025E-1,2.174414610E0,-9.802998836E-1,2.406454423E0
1.566187442E1,-4.137049062E-1,2.716447992E0,-1.010793698E0,2.927788473E0
1.567184142E1,-4.761867177E-1,3.217134544E0,-1.008389761E0,3.404931478E0
1.568180742E1,-4.429447851E-1,3.612047887E0,-1.052821291E0,3.788340362E0
1.569177442E1,-3.363702167E-1,3.873720728E0,-1.114217056E0,4.044791323E0
1.570174042E1,-1.567167085E-1,3.963927478E0,-1.161375435E0,4.133530462E0
1.571170742E1,1.292937056E-1,3.890546676E0,-1.144220289E0,4.057377277E0
1.572167442E1,3.971696381E-1,3.645627277E0,-1.066506992E0,3.819133296E0
1.573164042E1,5.727041484E-1,3.305021119E0,-9.398601016E-1,3.483459724E0
1.574160742E1,6.742497459E-1,2.986275945E0,-8.488239241E-1,3.176941736E0
1.575157342E1,7.510781396E-1,2.666844308E0,-7.650423869E-1,2.874276742E0
1.576154042E1,7.109786656E-1,2.327577161E0,-7.259151587E-1,2.539696620E0
1.577150642E1,5.431974171E-1,2.007806386E0,-7.034826082E-1,2.195731700E0
1.578147342E1,2.660952361E-1,1.869661238E0,-6.995643890E-1,2.013909172E0
1.579143942E1,-1.922557198E-2,1.895467340E0,-8.012553629E-1,2.057954376E0
1.580140642E1,-2.793881134E-1,1.926361688E0,-8.811400232E-1,2.136664413E0
1.581137342E1,-4.863077730E-1,1.980066610E0,-8.592638353E-1,2.212576184E0
1.582133942E1,-5.636693231E-1,1.993419312E0,-9.425129834E-1,2.275911769E0
1.583130642E1,-5.537267907E-1,1.985084106E0,-1.097755682E0,2.335003170E0
1.584127242E1,-5.371690840E-1,2.095198286E0,-1.183183503E0,2.465426877E0
1.585123942E1,-6.041087396E-1,2.225785323E0,-1.170560533E0,2.586364173E0
1.586120542E1,-6.816724938E-1,2.340562073E0,-1.124877992E0,2.684820050E0
1.587117242E1,-6.825327654E-1,2.476123921E0,-1.160543961E0,2.818493025E0
1.588113842E1,-5.962128058E-1,2.576912962E0,-1.252622112E0,2.926604223E0
1.589110542E1,-4.321213697E-1,2.731418034E0,-1.255979583E0,3.037245144E0
1.590107242E1,-3.119189150E-1,3.077986599E0,-1.264334377E0,3.342130507E0
1.591103842E1,-2.093016690E-1,3.572131870E0,-1.526563581E0,3.890286577E0
1.592100542E1,-1.795237000E-1,4.122494611E0,-1.900588331E0,4.543063568E0
1.593097142E1,-2.291485807E-1,4.580088937E0,-2.290839690E0,5.126175010E0
1.594093842E1,-4.665554034E-1,4.814176369E0,-2.516574666E0,5.452257890E0
1.595090442E1,-7.686659065E-1,4.765136940E0,-2.663942335E0,5.513072292E0
1.596087142E1,-1.163983074E0,4.295112019E0,-2.796348732E0,5.255702625E0
1.597083742E1,-1.511179118E0,3.405513121E0,-2.766634644E0,4.640630259E0
1.598080442E1,-1.809327328E0,1.927166850E0,-2.536313697E0,3.663403420E0
1.599077142E1,-1.909576671E0,-3.092031026E-1,-2.217749787E0,2.942873381E0
1.600073742E1,-1.949994965E0,-2.844382147E0,-1.698864946E0,3.844363701E0
1.601070442E1,-1.820289396E0,-5.021926187E0,-1.177783307E0,5.469951520E0
1.602067042E1,-1.764425682E0,-6.810778905E0,-5.562304223E-1,7.057570372E0
1.603063742E1,-1.813439529E0,-8.147129052E0,3.258302450E-1,8.352870169E0
1.604060342E1,-1.963045511E0,-9.072646226E0,1.362680744E0,9.382076317E0
1.605057042E1,-2.508696713E0,-9.897317641E0,2.423514036E0,1.049399237E1
1.606053742E1,-3.726690736E0,-1.110978225E1,3.272453297E0,1.216652933E1
1.607050342E1,-4.633172885E0,-1.270307133E1,3.160767969E0,1.388613576E1
1.608047042E1,-3.545376180E0,-1.428325095E1,2.649589759E0,1.495330318E1
1.609043642E1,-1.822603285E0,-1.493365546E1,2.226072421E0,1.520826573E1
1.610040342E1,-4.143920271E-1,-1.459853750E1,2.252189595E0,1.477705572E1
1.611036942E1,5.593823639E-1,-1.419404232E1,1.507190440E0,1.428479503E1
1.612033642E1,1.102820906E0,-1.367110244E1,4.826190935E-1,1.372400004E1
1.613030242E1,1.395378959E0,-1.318915153E1,1.623695773E-1,1.326375379E1
1.614026942E1,1.232357417E0,-1.303138781E1,-1.364121790E-1,1.309023993E1
1.615023642E1,3.400082812E-1,-1.271688479E1,-3.527408856E-1,1.272631881E1
1.616020242E1,-9.664248063E-1,-1.185421700E1,-5.295994247E-1,1.190533129E1
1.617016942E1,-2.711117086E0,-1.055111120E1,-3.851034701E-1,1.090066090E1
1.618013542E1,-4.230769842E0,-9.107123163E0,2.946178079E-1,1.004618860E1
1.619010242E1,-4.896688183E0,-7.221938152E0,8.022029042E-1,8.762275694E0
1.620006842E1,-4.666650533E0,-4.967843535E0,1.724100944E0,7.030620218E0
1.621003542E1,-3.517645175E0,-2.311349384E0,2.348933532E0,4.820129904E0
1.622000242E1,-1.552955281E0,4.967320794E-1,2.443749934E0,2.937741752E0
1.622996842E1,1.013972171E0,3.106781797E0,1.905693828E0,3.783107408E0
1.623993542E1,3.675917024E0,5.450772092E0,9.451702505E-1,6.642035017E0
1.624990142E1,5.630479249E0,7.687532639E0,3.148187685E-1,9.534126363E0
1.625986842E1,6.281787736E0,9.764577075E0,6.871940196E-3,1.161067913E1
1.626983442E1,6.311134912E0,1.179167284E1,-4.491459766E-1,1.338191707E1
1.627980142E1,5.948868327E0,1.475623223E1,-1.072926358E0,1.594636620E1
1.628976742E1,5.383403397E0,1.805051844E1,-1.404147736E0,1.888845888E1
1.629973442E1,5.041326079E0,1.990102186E1,-1.349982053E0,2.057396635E1
1.630970142E1,4.809015324E0,1.868797137E1,-8.740701547E-1,1.931659651E1
1.631966742E1,5.326705286E0,1.467029570E1,1.518609613E-2,1.560742117E1
1.632963442E1,5.277058917E0,1.189101703E1,1.003954941E0,1.304804822E1
1.633960042E1,3.563446708E0,1.027393563E1,1.720994318E0,1.100971059E1
1.634956742E1,1.239380507E0,8.342603225E0,1.331172291E0,8.538566173E0
1.635953342E1,-1.410437585E-1,6.710559382E0,3.847578996E-1,6.723060256E0
1.636950042E1,-5.245283539E-1,5.670318083E0,-2.128013737E-1,5.698501696E0
1.637946642E1,-7.625242835E-1,5.079063424E0,-5.095941997E-1,5.161202844E0
1.638943342E1,-9.186411408E-1,4.541028952E0,-7.737515223E-1,4.697183934E0
1.639940042E1,-8.231683883E-1,4.335757184E0,-1.353263511E0,4.616028454E0
1.640936708E1,-5.309939857E-1,4.691070260E0,-2.014695575E0,5.132941949E0
1.641933408E1,-7.717886120E-2,5.682511282E0,-2.374284135E0,6.159067803E0
1.642930008E1,2.776753543E-1,6.803877436E0,-2.319697453E0,7.193806228E0
1.643926708E1,7.978394195E-1,7.886070753E0,-2.257524302E0,8.241545707E0
