"Time (s)","Linear Acceleration x (m/s^2)","Linear Acceleration y (m/s^2)","Linear Acceleration z (m/s^2)","Absolute acceleration (m/s^2)"
6.669333321E-3,7.656984445E-1,5.299164900E0,3.669364927E0,6.490892212E0
1.663633331E-2,2.329770452E0,3.773137509E0,2.811414668E0,5.250566585E0
2.660233330E-2,4.729858057E0,1.025068944E0,4.168605754E-1,4.857581324E0
3.656933329E-2,7.022127684E0,-3.207595981E0,-2.004510603E0,7.976027328E0
4.653533327E-2,7.176671348E0,-7.241849676E0,-2.509023280E0,1.049972362E1
5.650233326E-2,6.241060710E0,-1.026031747E1,-1.285455690E0,1.207796960E1
6.646833324E-2,6.370048533E0,-1.244614701E1,5.775905934E-1,1.399348794E1
7.643533335E-2,7.779396490E0,-1.388675126E1,2.804300653E0,1.616245564E1
8.640133333E-2,1.011590060E1,-1.509962985E1,3.964284158E0,1.860230672E1
9.636833332E-2,1.200571836E1,-1.666203510E1,2.510448246E0,2.068968432E1
1.063343333E-1,1.216366334E1,-1.778358135E1,-2.223786744E-1,2.154669172E1
1.163013333E-1,1.179010345E1,-1.888190948E1,-3.044023046E0,2.246773511E1
1.262683333E-1,1.095937899E1,-1.974236117E1,-5.485066012E0,2.323692669E1
1.362343333E-1,9.872344183E0,-2.010689063E1,-6.714197520E0,2.338441102E1
1.462013333E-1,8.578649474E0,-1.971996868E1,-6.285242271E0,2.240479105E1
1.561673332E-1,6.896129542E0,-1.863520726E1,-4.899681373E0,2.046544478E1
1.661343334E-1,5.338846444E0,-1.695045837E1,-3.297871436E0,1.807476905E1
1.761003333E-1,3.761020909E0,-1.498423855E1,-2.190618706E0,1.560357310E1
1.860673333E-1,2.319208041E0,-1.334530611E1,-1.682331944E0,1.364940152E1
1.960333333E-1,1.013503152E0,-1.187290470E1,-1.394864988E0,1.199744568E1
2.060003333E-1,-5.422240019E-2,-1.033711480E1,-1.132457737E0,1.039910299E1
2.159663333E-1,-7.622406936E-1,-8.925851292E0,-1.141594597E0,9.030784594E0
2.259333333E-1,-1.095527893E0,-7.793336252E0,-1.263134236E0,7.970682493E0
2.359003333E-1,-1.550300937E0,-6.540380264E0,-1.376127878E0,6.861030165E0
2.458663333E-1,-2.262283058E0,-5.471644898E0,-1.574211956E0,6.126578638E0
2.558333332E-1,-2.902536215E0,-4.383533614E0,-1.529821064E0,5.475439335E0
2.657993333E-1,-3.167610966E0,-3.494410095E0,-1.310011218E0,4.894976050E0
2.757663333E-1,-3.420769091E0,-2.820162980E0,-8.869980562E-1,4.521254910E0
2.857323333E-1,-4.096742304E0,-2.243326970E0,-3.287775341E-1,4.682297306E0
2.956993333E-1,-4.964079682E0,-1.356808385E0,3.449000618E-1,5.157709970E0
3.056653333E-1,-5.714876790E0,-4.258147091E-1,8.014778495E-1,5.786493034E0
3.156323333E-1,-6.545125864E0,4.919350237E-1,1.065569976E0,6.649519683E0
3.255983333E-1,-7.456093411E0,1.127442580E0,1.122144711E0,7.623887754E0
3.355653333E-1,-8.446916383E0,1.446490640E0,1.049290012E0,8.633871732E0
3.455313334E-1,-9.181610844E0,1.866775637E0,9.185087013E-1,9.414376623E0
3.554983333E-1,-9.559601176E0,1.972337760E0,4.539497566E-1,9.771497391E0
3.654653333E-1,-9.673790866E0,2.148775154E0,1.407790259E-2,9.909574287E0
3.754313333E-1,-9.449491673E0,2.524634176E0,-2.750386986E-1,9.784800299E0
3.853983333E-1,-8.969066893E0,2.977277080E0,-4.088301556E-1,9.459148051E0
3.953643333E-1,-8.477280389E0,3.333503491E0,-5.306184483E-1,9.124586799E0
4.053313333E-1,-8.057698227E0,3.686520365E0,-6.396222425E-1,8.884033416E0
4.152973333E-1,-7.792596579E0,4.245449862E0,-5.963717039E-1,8.894046615E0
4.252643333E-1,-7.679124343E0,4.639540502E0,-6.795937356E-1,8.997562692E0
4.352303332E-1,-7.823776272E0,4.741228260E0,-8.009001446E-1,9.183254413E0
4.451973333E-1,-8.128757100E0,4.758925443E0,-8.731017096E-1,9.459723567E0
4.551633333E-1,-8.290539032E0,4.679269409E0,-1.109820242E0,9.584377946E0
4.651303333E-1,-8.380129486E0,4.499668672E0,-1.398677373E0,9.614046326E0
4.750963333E-1,-8.481321400E0,4.310428800E0,-1.517429353E0,9.634064613E0
4.850633333E-1,-8.593420710E0,3.988920817E0,-1.597052058E0,9.607754371E0
4.950303333E-1,-8.843736504E0,3.869715970E0,-1.467400868E0,9.764202084E0
5.049963333E-1,-9.152640814E0,4.231548107E0,-9.765668750E-1,1.013067205E1
5.149633333E-1,-9.620979398E0,4.563364146E0,-5.182071483E-1,1.066096035E1
5.249293332E-1,-1.003806948E1,5.090801125E0,2.918076360E-1,1.125896295E1
5.348963334E-1,-1.019912285E1,6.017702335E0,1.423201765E0,1.192729439E1
5.448623333E-1,-9.518761298E0,6.337242145E0,2.109815741E0,1.162836090E1
5.548293333E-1,-7.819993123E0,5.285628011E0,1.711758203E0,9.592719743E0
5.647953333E-1,-5.010135276E0,2.718758227E0,1.497830071E-2,5.700291759E0
5.747623333E-1,-2.039975427E0,-8.358664942E-1,-1.970285972E0,2.956721048E0
5.847293333E-1,8.382679456E-1,-5.929974219E0,-3.888218315E0,7.140415188E0
5.946953333E-1,3.783404050E0,-1.269895021E1,-5.713247756E0,1.442978456E1
6.046623333E-1,4.554587476E0,-1.898380656E1,-6.604462824E0,2.060941794E1
6.146283332E-1,4.773948694E0,-2.379010323E1,-6.426824412E0,2.510106909E1
6.245953334E-1,6.501884535E0,-2.839226891E1,-7.544444840E0,3.008843772E1
6.345613333E-1,8.694000421E0,-3.075803365E1,-8.158294895E0,3.298787737E1
6.445283333E-1,1.103511564E1,-2.768141121E1,-6.927196383E0,3.059444972E1
6.544943333E-1,1.258949501E1,-2.298212093E1,-3.743607316E0,2.647050931E1
6.644613333E-1,1.190021120E1,-2.185147525E1,-1.849397128E0,2.495039612E1
6.744273333E-1,1.014290187E1,-2.359536756E1,-3.448797719E0,2.591358783E1
6.843943333E-1,8.107360969E0,-2.443513297E1,-6.138051481E0,2.646659595E1
6.943613333E-1,7.802473696E0,-2.309122530E1,-5.644707863E0,2.501891302E1
7.043273333E-1,1.090212774E1,-1.962045141E1,-1.953076447E0,2.253071260E1
7.142943332E-1,1.499846717E1,-1.480103125E1,2.678333502E0,2.124142212E1
7.242603333E-1,1.515114849E1,-9.394281093E0,7.441177164E0,1.931789159E1
7.342273333E-1,1.144918271E1,-4.673129833E0,1.039299547E1,1.615352228E1
7.441933333E-1,7.549212660E0,-9.971215922E-1,1.121533033E1,1.355612400E1
7.541603333E-1,4.696189205E0,1.581744339E0,1.126411833E1,1.230595263E1
7.641263333E-1,2.864900027E0,3.511513200E0,1.162940793E1,1.248124617E1
7.740933333E-1,2.084149972E0,4.886650268E0,1.185491866E1,1.299084787E1
7.840593333E-1,1.748410451E0,5.883314023E0,1.167571437E1,1.319062656E1
7.940263333E-1,2.039944145E0,6.935507031E0,1.130648726E1,1.342010745E1
8.039933332E-1,2.652114294E0,7.994274648E0,1.077630735E1,1.367738782E1
8.139593333E-1,3.304476450E0,8.711447343E0,9.655260454E0,1.341763518E1
8.239263333E-1,3.818942842E0,9.686761159E0,8.374082880E0,1.336199574E1
8.338923333E-1,4.358042969E0,1.048033299E1,6.817568107E0,1.324043628E1
8.438593333E-1,4.868941975E0,1.094004108E1,5.073706205E0,1.300513704E1
8.538253333E-1,4.678626215E0,1.120314123E1,3.568899821E0,1.265452340E1
8.637923333E-1,3.902502770E0,1.119662041E1,2.291565914E0,1.207663492E1
8.737583333E-1,2.814899316E0,1.095563561E1,9.457576033E-1,1.135095006E1
8.837253333E-1,1.654422745E0,1.083700262E1,-1.790357499E-1,1.096402272E1
8.936913332E-1,9.949810727E-1,1.081011712E1,-6.867531395E-1,1.087751118E1
9.036586250E-1,8.055719237E-1,1.088978193E1,-2.866995084E-1,1.092330047E1
9.136256250E-1,9.218778670E-1,1.114398261E1,7.922038731E-1,1.121007557E1
9.235916249E-1,1.214500897E0,1.144517970E1,2.030785943E0,1.168722561E1
9.335586249E-1,1.539537383E0,1.175473364E1,3.215842309E0,1.228354916E1
9.435246249E-1,1.813504141E0,1.208147371E1,4.084716043E0,1.288160353E1
9.534916249E-1,1.960033903E0,1.245400801E1,4.685813321E0,1.344994033E1
9.634576250E-1,2.084600793E0,1.272944344E1,5.003800403E0,1.383554514E1
9.734246250E-1,2.678430566E0,1.286028191E1,4.753776970E0,1.396994046E1
9.833906250E-1,3.430954941E0,1.312864572E1,3.729583062E0,1.407276021E1
9.933576250E-1,2.832853192E0,1.331586421E1,2.781015286E0,1.389501143E1
1.003323625E0,1.947127198E0,1.305278043E1,2.033494520E0,1.335295777E1
1.013290625E0,1.312305081E0,1.254908841E1,1.816698182E0,1.274763338E1
1.023256625E0,5.012951003E-1,1.137315253E1,2.421887926E0,1.163896200E1
1.033223625E0,-2.505917823E-1,1.001054079E1,2.950437483E0,1.043929137E1
1.043190625E0,-8.647951551E-1,9.697180313E0,3.524829065E0,1.035411013E1
1.053156625E0,-8.799514304E-1,1.039487944E1,3.884556788E0,1.113182889E1
1.063123625E0,5.449942665E-1,1.129412741E1,3.422353102E0,1.181384076E1
1.073089625E0,2.859027961E0,1.216279562E1,2.282281705E0,1.270104121E1
1.083056625E0,5.077591095E0,1.267363527E1,1.580222748E0,1.374409205E1
1.093022625E0,7.850235507E0,1.276267901E1,1.953056567E0,1.511047991E1
1.102989625E0,1.119256479E1,1.216243426E1,2.441997377E0,1.670813170E1
1.112955625E0,1.364588106E1,1.023269522E1,2.834503276E0,1.729024378E1
1.122922625E0,1.452982336E1,7.917038192E0,4.551854195E0,1.716142876E1
1.132889625E0,1.421394390E1,5.546907919E0,5.681065850E0,1.628124375E1
1.142855625E0,1.379901496E1,2.660752679E0,5.001723472E0,1.491675757E1
1.152822625E0,1.294976536E1,-3.739428896E-1,3.629668472E0,1.345402353E1
1.162788625E0,1.142465598E1,-2.877011365E0,2.058935901E0,1.195989865E1
1.172755625E0,1.002517286E1,-4.687401132E0,4.257698317E-1,1.107506660E1
1.182721625E0,9.287925503E0,-6.318314708E0,-1.403942206E0,1.132067642E1
1.192688625E0,9.617997319E0,-8.849981915E0,-3.116846609E0,1.343662104E1
1.202654625E0,1.047095405E1,-1.227024639E1,-4.197762895E0,1.666796444E1
1.212621625E0,1.128168103E1,-1.632944080E1,-4.705967796E0,2.039786990E1
1.222587625E0,1.215836811E1,-2.018883585E1,-4.520407577E0,2.399685589E1
1.232554625E0,1.305906385E1,-2.371745274E1,-4.183112111E0,2.739626142E1
1.242521625E0,1.295988806E1,-2.590086622E1,-3.608875773E0,2.918625624E1
1.252487625E0,1.197469069E1,-2.633704044E1,-2.880799191E0,2.907459235E1
1.262454625E0,1.126765941E1,-2.562902916E1,-2.045477657E0,2.807118207E1
1.272420625E0,9.974836518E0,-2.396929700E1,-7.885518484E-1,2.597395573E1
1.282387625E0,8.215142110E0,-2.149015474E1,6.372598211E-1,2.301567750E1
1.292353625E0,6.747938293E0,-1.947606728E1,1.576358908E0,2.067212556E1
1.302320625E0,5.265427051E0,-1.820785181E1,1.924500958E0,1.905135936E1
1.312286625E0,3.601048105E0,-1.697364141E1,1.920637264E0,1.745740238E1
1.322253625E0,1.897230275E0,-1.581890052E1,1.519321658E0,1.600454419E1
1.332219625E0,1.018637592E-1,-1.476511999E1,1.043475248E0,1.480229662E1
1.342186625E0,-1.683619208E0,-1.371645110E1,4.663854687E-1,1.382726003E1
1.352153625E0,-3.369256876E0,-1.265097731E1,-1.310350795E-1,1.309260437E1
1.362119625E0,-4.868389413E0,-1.159097769E1,-1.364681661E-1,1.257261320E1
1.372086625E0,-6.011854534E0,-1.055991710E1,8.431926169E-2,1.215159882E1
1.382052625E0,-6.657788846E0,-8.941545219E0,3.685149193E-2,1.114803755E1
1.392019625E0,-7.095188643E0,-7.120817574E0,3.517721482E-1,1.005840387E1
1.401985625E0,-7.164582814E0,-5.695343581E0,7.989613540E-1,9.187302360E0
1.411952625E0,-7.240003710E0,-4.446504618E0,1.208689496E0,8.581957081E0
1.421918625E0,-7.373795605E0,-3.387259283E0,1.459830916E0,8.244846474E0
1.431885625E0,-7.754038870E0,-2.422122545E0,1.732396535E0,8.306202151E0
1.441851625E0,-8.872098423E0,-1.475376470E0,1.527658618E0,9.122752162E0
1.451818625E0,-1.018665892E1,-6.476630411E-1,7.003198493E-1,1.023122355E1
1.461785625E0,-1.118530254E1,3.486338013E-1,1.848620617E-1,1.119226128E1
1.471751625E0,-1.202338630E1,1.001197101E0,-2.601473022E-1,1.206780388E1
1.481718625E0,-1.236048764E1,1.105830979E0,-7.442195018E-1,1.243215104E1
1.491684625E0,-1.225445306E1,9.703153244E-1,-1.045894826E0,1.233722123E1
1.501651625E0,-1.190942407E1,8.058480585E-1,-1.224196312E0,1.199926787E1
1.511617625E0,-1.139716822E1,7.209131581E-1,-1.204189479E0,1.148325875E1
1.521584625E0,-1.075304596E1,6.932023260E-1,-9.431944033E-1,1.081656796E1
1.531550625E0,-1.015792804E1,5.657157755E-1,-6.320782379E-1,1.019328501E1
1.541517625E0,-9.982294056E0,2.388102275E-1,-4.977454749E-1,9.997548475E0
1.551483625E0,-9.741963553E0,-7.302061379E-2,-4.226251260E-1,9.751399790E0
1.561450625E0,-9.609444011E0,1.365117279E-1,-1.132699958E-1,9.611081092E0
1.571417625E0,-9.678500213E0,6.132659179E-1,-5.800913014E-2,9.698083652E0
1.581383625E0,-9.717326310E0,9.222924346E-1,-4.280232024E-1,9.770376544E0
1.591350625E0,-9.603573992E0,9.510010940E-1,-1.212815437E0,9.726456589E0
1.601316625E0,-9.203155494E0,1.055599596E0,-2.125717828E0,9.504264193E0
1.611283625E0,-9.802626076E0,1.369481056E0,-2.702277850E0,1.026008099E1
1.621249625E0,-1.097281590E1,1.190253956E0,-2.952315316E0,1.142521592E1
1.631216625E0,-1.159277629E1,5.948992288E-1,-2.802694423E0,1.194158546E1
1.641182625E0,-1.179316973E1,4.664774162E-1,-2.152740151E0,1.199711397E1
1.651149625E0,-1.161919869E1,7.261931938E-1,-1.333301994E0,1.171797034E1
1.661115625E0,-1.213034240E1,1.006221614E0,-4.663997213E-1,1.218093664E1
1.671082625E0,-1.333462675E1,1.606478062E0,8.763279109E-1,1.345960597E1
1.681048625E0,-1.373998848E1,2.739024384E0,2.322695321E0,1.420156511E1
1.691015625E0,-1.261685764E1,3.424895471E0,2.905528235E0,1.339242697E1
1.700982625E0,-1.017154036E1,2.233620592E0,1.793040494E0,1.056713246E1
1.710948625E0,-8.373680007E0,-1.509431823E0,-1.162924508E0,8.587740954E0
1.720915625E0,-7.568624246E0,-7.345235465E0,-5.066494249E0,1.170068036E1
1.730881625E0,-6.790407790E0,-1.445975033E1,-9.158634210E0,1.841397833E1
1.740848625E0,-7.025996202E0,-1.998478206E1,-1.193452032E1,2.431437665E1
1.750814625E0,-5.949939537E0,-2.251821922E1,-1.265498850E1,2.650699363E1
1.760781625E0,-2.251875014E0,-2.591565265E1,-1.172338087E1,2.853295731E1
1.770747625E0,2.713857091E0,-3.427955202E1,-9.085217739E0,3.556675257E1
1.780714625E0,3.667376581E0,-4.152752432E1,-1.185220965E0,4.170599089E1
1.790681625E0,4.845215728E0,-4.192925142E1,8.758275354E0,4.310737324E1
1.800647625E0,1.030765419E1,-3.887039984E1,1.686004054E1,4.360523690E1
1.810614625E0,1.692732445E1,-3.517081504E1,2.064521337E1,4.415592122E1
1.820580625E0,2.170892013E1,-3.130486526E1,1.926634519E1,4.269032513E1
1.830547625E0,2.433478072E1,-2.898245879E1,1.159104201E1,3.957924614E1
1.840513625E0,2.199927883E1,-2.797890117E1,2.703476529E0,3.569448087E1
1.850480625E0,1.726717398E1,-2.503583147E1,-3.060561311E0,3.056656981E1
1.860446625E0,1.435541729E1,-2.075758516E1,-6.725362194E0,2.611868764E1
1.870413625E0,1.442895421E1,-1.523857021E1,-6.765676407E0,2.204956052E1
1.880379625E0,1.531107101E1,-8.062129832E0,-2.584620177E0,1.749591651E1
1.890346625E0,1.640754557E1,-1.568025017E0,2.016861384E0,1.660523965E1
1.900313625E0,1.706757225E1,2.471953102E0,4.355005049E0,1.778703583E1
1.910279375E0,1.644194123E1,4.983720480E0,4.669503974E0,1.780390880E1
1.920246375E0,1.547827916E1,6.763926920E0,3.968053858E0,1.735146347E1
1.930212375E0,1.471002987E1,7.795997320E0,2.668401421E0,1.686069153E1
1.940179375E0,1.421910700E1,8.726962345E0,1.325693597E0,1.673619846E1
1.950145375E0,1.331564201E1,1.015653641E1,3.493552747E-1,1.675062993E1
1.960112375E0,1.253228234E1,1.196299860E1,-7.883818406E-1,1.734338439E1
1.970078375E0,1.243618803E1,1.307831990E1,-2.041784556E0,1.816232662E1
1.980045375E0,1.241137596E1,1.372997571E1,-3.141947536E0,1.877302108E1
1.990011375E0,1.210624836E1,1.417491140E1,-3.846221273E0,1.903372745E1
1.999978375E0,1.172847496E1,1.401251434E1,-4.310517093E0,1.877467019E1
2.009944375E0,1.145609529E1,1.286142094E1,-4.369331312E0,1.776933662E1
2.019911375E0,1.046866896E1,1.115356152E1,-2.997738826E0,1.558786074E1
2.029877375E0,8.511431637E0,9.873480881E0,-6.134103441E-1,1.305014810E1
2.039844375E0,6.822821830E0,8.888909168E0,1.631452689E0,1.132365850E1
2.049811375E0,5.303309991E0,8.488393022E0,3.915372784E0,1.074746747E1
2.059777375E0,4.136668847E0,8.416452389E0,5.793105519E0,1.102310172E1
2.069744375E0,3.419369268E0,8.668801260E0,6.886753532E0,1.158738865E1
2.079710375E0,3.044123911E0,9.230311718E0,7.105757486E0,1.203981454E1
2.089677375E0,3.057180744E0,9.915415943E0,6.559726946E0,1.227566068E1
2.099643375E0,3.261605835E0,1.056571637E1,5.568236808E0,1.238053699E1
2.109610375E0,3.563664224E0,1.111694625E1,4.440881935E0,1.249030140E1
2.119576375E0,4.093597379E0,1.112328464E1,3.292710975E0,1.230150178E1
2.129543375E0,3.949569348E0,1.101389609E1,2.535211204E0,1.197214689E1
2.139509375E0,3.458806983E0,1.129884378E1,2.447810533E0,1.206726949E1
2.149476375E0,3.431218943E0,1.156062479E1,2.508110529E0,1.231713958E1
2.159443375E0,3.749490784E0,1.186864793E1,2.519318472E0,1.269923030E1
2.169409375E0,4.140011700E0,1.236875911E1,2.343912528E0,1.325216302E1
2.179376375E0,4.742576044E0,1.276697204E1,2.184710387E0,1.379349709E1
2.189342375E0,5.659577917E0,1.306710845E1,1.891966027E0,1.436522471E1
2.199309375E0,5.964499104E0,1.345704406E1,1.417084408E0,1.478767773E1
2.209275375E0,6.010393315E0,1.335312266E1,7.862880258E-1,1.466454778E1
2.219242375E0,6.003931557E0,1.200573239E1,-7.628979206E-2,1.342351014E1
2.229208375E0,5.501183277E0,9.816155949E0,-9.427828324E-1,1.129197833E1
2.239175375E0,5.493453843E0,7.788308231E0,-4.592977662E-1,9.541841262E0
2.249141375E0,6.471995323E0,6.500725617E0,1.503853580E0,9.295575969E0
2.259108375E0,8.558839692E0,5.585701271E0,3.885115782E0,1.093379715E1
2.269074375E0,1.164280858E1,4.071482917E0,5.787410331E0,1.362446634E1
2.279041375E0,1.462583113E1,1.041518916E0,6.625469531E0,1.609026241E1
2.289008375E0,1.574471339E1,-1.902072939E0,6.320651840E0,1.707233203E1
2.298974375E0,1.492059395E1,-4.105958101E0,5.682241141E0,1.648547482E1
2.308941375E0,1.277136447E1,-5.759317383E0,4.947221575E0,1.485774170E1
2.318907375E0,1.065031856E1,-6.223156536E0,3.653371038E0,1.286483901E1
2.328874375E0,9.683845738E0,-6.619521743E0,1.821344233E0,1.187064578E1
2.338840375E0,1.004140941E1,-8.875640082E0,-1.137044878E0,1.344989817E1
2.348807375E0,1.070842585E1,-1.291895988E1,-4.398276199E0,1.734689431E1
2.358773375E0,1.086634745E1,-1.738935740E1,-6.717241580E0,2.157750199E1
2.368740375E0,1.020157400E1,-2.181601773E1,-7.736039386E0,2.529539577E1
2.378706375E0,9.313539816E0,-2.410620838E1,-6.861830360E0,2.673828757E1
2.388673375E0,9.446983802E0,-2.445472348E1,-5.434915613E0,2.677344414E1
2.398640375E0,9.518882335E0,-2.316969260E1,-3.569286615E0,2.530184939E1
2.408606375E0,9.032426738E0,-2.054160071E1,-1.800923710E0,2.251189505E1
2.418573375E0,8.614801639E0,-1.839688411E1,-7.219507465E-1,2.032686314E1
2.428539375E0,7.800017865E0,-1.704856529E1,4.075889379E-2,1.874821374E1
2.438506375E0,6.750713966E0,-1.637118875E1,1.270690593E-1,1.770887085E1
2.448472375E0,5.521271387E0,-1.604702379E1,-5.399345246E-1,1.697889689E1
2.458439375E0,4.041520030E0,-1.598082162E1,-1.577515633E0,1.655926023E1
2.468405375E0,2.448140316E0,-1.580735578E1,-1.965176968E0,1.611607298E1
2.478372375E0,1.167673763E0,-1.546538254E1,-1.954896101E0,1.563211879E1
2.488338375E0,1.172056836E-1,-1.496247989E1,-1.510349544E0,1.503897262E1
2.498305375E0,-9.015096760E-1,-1.434424443E1,-5.636128244E-1,1.438359230E1
2.508271375E0,-1.959097910E0,-1.318653666E1,6.454931393E-1,1.334689009E1
2.518238375E0,-2.655390197E0,-1.180172186E1,1.768340685E0,1.222533291E1
2.528205375E0,-3.151313022E0,-1.054464184E1,2.515901944E0,1.128937588E1
2.538171375E0,-3.686025690E0,-9.770290974E0,2.889210995E0,1.083480093E1
2.548138375E0,-4.692339690E0,-8.961202388E0,3.240719580E0,1.062183898E1
2.558104375E0,-5.580915910E0,-7.995508411E0,3.421802002E0,1.033361051E1
2.568071375E0,-6.360133410E0,-7.270386427E0,3.467645342E0,1.026325387E1
2.578037375E0,-7.169626037E0,-6.637316574E0,3.484359608E0,1.037295863E1
2.588004375E0,-8.145442715E0,-6.135992092E0,3.238206155E0,1.069974836E1
2.597970375E0,-9.332770139E0,-5.807200817E0,2.991387288E0,1.139177676E1
2.607937375E0,-1.018809266E1,-5.777956553E0,2.953720987E0,1.207917554E1
2.617903375E0,-1.044279971E1,-5.450289112E0,3.309492777E0,1.223562257E1
2.627870375E0,-1.044539587E1,-4.492652013E0,4.014058874E0,1.205831189E1
2.637837375E0,-1.064918654E1,-3.647402492E0,4.395068416E0,1.208409473E1
2.647803375E0,-1.132553515E1,-2.983167857E0,4.443072887E0,1.252628969E1
2.657770375E0,-1.227388687E1,-2.448181100E0,4.046131729E0,1.315344333E1
2.667736375E0,-1.352634877E1,-2.204790749E0,3.528630924E0,1.415183555E1
2.677703375E0,-1.495611111E1,-2.656734180E0,2.946233042E0,1.547332495E1
2.687669375E0,-1.622688181E1,-3.634758473E0,2.464475390E0,1.681061573E1
2.697636375E0,-1.697641767E1,-4.220716140E0,2.553387859E0,1.767860264E1
2.707602375E0,-1.703740647E1,-4.350999413E0,2.966273789E0,1.783264409E1
2.717569375E0,-1.670656048E1,-4.250100152E0,3.348083815E0,1.756081375E1
2.727535375E0,-1.611013396E1,-3.778440057E0,3.826360328E0,1.698393532E1
2.737502375E0,-1.551970551E1,-3.407789734E0,3.962518007E0,1.637607520E1
2.747468375E0,-1.532895063E1,-3.486503197E0,3.574078700E0,1.612161501E1
2.757435375E0,-1.547807918E1,-4.073435010E0,2.948484513E0,1.627443913E1
2.767402375E0,-1.532601649E1,-5.318501642E0,2.224335798E0,1.637439804E1
2.777368375E0,-1.456319693E1,-6.680876577E0,1.352592835E0,1.607950011E1
2.787335375E0,-1.322206317E1,-7.710372448E0,6.949003574E-1,1.532173895E1
2.797301375E0,-1.122461104E1,-8.657931286E0,7.785304517E-2,1.417595599E1
2.807268375E0,-8.941493179E0,-9.877329519E0,-3.897824121E-1,1.332906107E1
2.817234375E0,-6.202370853E0,-1.180599735E1,-1.066351748E0,1.337864282E1
2.827201375E0,-3.387994278E0,-1.414560750E1,-1.795889257E0,1.465612278E1
2.837167375E0,1.841451931E-1,-1.673903943E1,-2.675514852E0,1.695251398E1
2.847134375E0,4.214915702E0,-1.835494320E1,-4.110076002E0,1.927594820E1
2.857100375E0,8.004213161E0,-2.017203329E1,-4.880258969E0,2.224399431E1
2.867067375E0,1.034264860E1,-2.182019498E1,-4.291078317E0,2.452559158E1
2.877033375E0,1.121434449E1,-2.237094189E1,-3.213003778E0,2.522982276E1
2.887000375E0,1.172479590E1,-2.231565062E1,-2.577831267E0,2.533977733E1
2.896967375E0,1.238009452E1,-2.207551482E1,-2.351074782E0,2.541894270E1
2.906933708E0,1.293217693E1,-2.140450473E1,-2.622867691E0,2.514504837E1
2.916900708E0,1.401885857E1,-2.032163781E1,-3.345292939E0,2.491361764E1
2.926866708E0,1.578932297E1,-1.870118257E1,-3.962511575E0,2.479391956E1
2.936833708E0,1.803270431E1,-1.678888577E1,-4.548592033E0,2.505463629E1
2.946799708E0,1.989815205E1,-1.436320578E1,-5.016166095E0,2.504795516E1
2.956766708E0,2.100229347E1,-1.183399499E1,-5.130980852E0,2.464684022E1
2.966732708E0,2.124070551E1,-9.862370002E0,-4.806303385E0,2.390678700E1
2.976699708E0,2.046843567E1,-7.451926686E0,-3.628313087E0,2.208286046E1
2.986665708E0,1.906179673E1,-4.690431744E0,-1.597301734E0,1.969526891E1
2.996632708E0,1.733774519E1,-1.590384770E0,7.188055292E-1,1.742536695E1
3.006599708E0,1.578206774E1,1.521160169E0,2.697884252E0,1.608310200E1
3.016565708E0,1.412644734E1,4.275476484E0,4.550583887E0,1.544487058E1
3.026532708E0,1.249270020E1,7.147559230E0,6.002783164E0,1.559450438E1
3.036498708E0,1.143557039E1,9.784035439E0,6.696320828E0,1.647241125E1
3.046465708E0,1.038338615E1,1.225327192E1,6.874515894E0,1.747044217E1
3.056431708E0,9.201114816E0,1.432071757E1,6.481660770E0,1.821415362E1
3.066398708E0,8.306597825E0,1.526254380E1,5.358438125E0,1.818399488E1
3.076364708E0,7.455290004E0,1.499961673E1,3.708860822E0,1.715591734E1
3.086331708E0,6.327107751E0,1.394220391E1,2.086661205E0,1.545223276E1
3.096297708E0,5.232869169E0,1.269202945E1,7.904824528E-1,1.375119608E1
3.106264708E0,4.453619218E0,1.182785775E1,-1.545468798E-1,1.263949476E1
3.116230708E0,4.048010439E0,1.144924352E1,-5.298267353E-1,1.215533965E1
3.126197708E0,3.929554621E0,1.157720516E1,-3.792647329E-1,1.223179956E1
3.136163708E0,3.983356022E0,1.157758990E1,1.146814406E-1,1.224421761E1
3.146130708E0,4.205584715E0,1.137504001E1,1.126723373E0,1.217981870E1
3.156097708E0,4.501072589E0,1.107452587E1,2.631635591E0,1.224051811E1
3.166063708E0,4.849175755E0,1.078202944E1,4.148291942E0,1.252896605E1
3.176030708E0,5.247343367E0,1.075926623E1,5.402045490E0,1.313310769E1
3.185996708E0,5.707192964E0,1.087188828E1,6.134899832E0,1.372614302E1
3.195963708E0,6.021404207E0,1.108404280E1,6.162924367E0,1.403905090E1
3.205929708E0,6.216932175E0,1.141670026E1,6.005484577E0,1.431981618E1
3.215896708E0,6.492445375E0,1.167320825E1,5.859022350E0,1.458573895E1
3.225862708E0,6.860791894E0,1.185108523E1,5.879882877E0,1.490274167E1
3.235829708E0,6.964290535E0,1.220613050E1,5.975505903E0,1.527080991E1
3.245795708E0,6.838987042E0,1.215951416E1,5.718937097E0,1.507752532E1
3.255762708E0,6.395611390E0,1.177732377E1,5.392130367E0,1.444590842E1
3.265728708E0,5.616820153E0,1.137765255E1,5.275329895E0,1.374149743E1
3.275695708E0,4.867883337E0,1.110409641E1,5.018783308E0,1.312194464E1
3.285661708E0,4.457165846E0,1.063004627E1,4.546465401E0,1.239090629E1
3.295628708E0,4.209897621E0,1.000370656E1,4.007928361E0,1.156982596E1
3.305595708E0,4.040534482E0,9.457661403E0,3.545844542E0,1.087870818E1
3.315561708E0,4.103352289E0,9.030497741E0,3.157543815E0,1.040948954E1
3.325528708E0,4.486304276E0,8.655564918E0,2.747066352E0,1.012877602E1
3.335494708E0,4.720675882E0,8.349802317E0,2.414778442E0,9.891164463E0
3.345461708E0,4.564631823E0,8.189786244E0,2.327676125E0,9.660566161E0
3.355427708E0,4.231910049E0,7.926708317E0,2.162838000E0,9.242274375E0
3.365394708E0,4.330142103E0,7.043053699E0,1.757373209E0,8.452401826E0
3.375360708E0,4.909126380E0,5.579644725E0,1.158931006E0,7.521640656E0
3.385327708E0,5.860618640E0,3.281196638E0,3.536175294E-1,6.725930983E0
3.395293708E0,7.154755983E0,1.458663958E-1,-7.673748413E-1,7.197268533E0
3.405260708E0,8.522539008E0,-3.711044757E0,-1.630424749E0,9.437362406E0
3.415226708E0,9.361945406E0,-7.338543912E0,-1.747008581E0,1.202298996E1
3.425193708E0,9.783615024E0,-9.683801883E0,-1.105174775E0,1.381001641E1
3.435160708E0,1.130519736E1,-1.219661591E1,-1.017578076E0,1.666134425E1
3.445126708E0,1.279090235E1,-1.536971508E1,-1.588376251E0,2.005886995E1
3.455093708E0,1.368029192E1,-1.877254900E1,-2.317288839E0,2.334371030E1
3.465059708E0,1.434245752E1,-2.141605415E1,-2.589045057E0,2.590476051E1
3.475026708E0,1.422425138E1,-2.231891102E1,-1.942809906E0,2.653747589E1
3.484992708E0,1.393281913E1,-2.195394653E1,-1.171829087E0,2.602830000E1
3.494959708E0,1.347848463E1,-2.084802755E1,-9.554791841E-1,2.484396790E1
3.504925708E0,1.205122373E1,-1.871675721E1,-8.471867037E-1,2.227704467E1
3.514892708E0,1.052624182E1,-1.675634952E1,-7.512365261E-1,1.980255975E1
3.524858708E0,9.210013109E0,-1.518032610E1,-1.203956906E0,1.779652084E1
3.534825708E0,7.877771215E0,-1.416326024E1,-2.053509393E0,1.633628234E1
3.544791708E0,6.405072770E0,-1.356460476E1,-2.933645157E0,1.528495121E1
3.554758708E0,4.793345663E0,-1.320322344E1,-3.516791482E0,1.447995491E1
3.564725708E0,3.274067128E0,-1.284043880E1,-3.541083447E0,1.371625517E1
3.574691708E0,1.900078454E0,-1.256431456E1,-3.184915508E0,1.310022845E1
3.584658708E0,3.833937442E-1,-1.205031624E1,-2.388402822E0,1.229071114E1
3.594624708E0,-9.949072516E-1,-1.138904526E1,-1.506645333E0,1.153126934E1
3.604591708E0,-1.991467511E0,-1.100084511E1,-8.885323656E-1,1.121490195E1
3.614557708E0,-3.159560519E0,-1.093079313E1,-3.497358553E-1,1.138364512E1
3.624524708E0,-4.389762068E0,-1.038785693E1,3.291163802E-1,1.128210531E1
3.634490708E0,-5.289125816E0,-9.599896093E0,9.235960713E-1,1.099935846E1
3.644457708E0,-6.238716561E0,-8.910894699E0,1.128513790E0,1.093614064E1
3.654423708E0,-7.199893565E0,-8.122570746E0,1.249674092E0,1.092594656E1
3.664390708E0,-7.952546579E0,-7.091566878E0,1.590192397E0,1.077320889E1
3.674356708E0,-8.643010361E0,-5.948877098E0,1.991644974E0,1.067976669E1
3.684323708E0,-9.663588059E0,-4.776310677E0,2.136947114E0,1.098929574E1
3.694290708E0,-1.107099182E1,-3.877807347E0,1.871974397E0,1.187891147E1
3.704256708E0,-1.245674450E1,-3.292141749E0,1.458341192E0,1.296670505E1
3.714223708E0,-1.348547088E1,-3.264893432E0,9.976909648E-1,1.391088931E1
3.724189708E0,-1.438946913E1,-3.572649641E0,5.215786529E-1,1.483552128E1
3.734156708E0,-1.499561840E1,-3.758187348E0,2.901598907E-1,1.546210646E1
3.744122708E0,-1.503393521E1,-3.517512444E0,3.039590272E-1,1.544294314E1
3.754089708E0,-1.473931506E1,-2.975671434E0,4.312605134E-1,1.504287255E1
3.764055708E0,-1.429596280E1,-2.605113206E0,5.274232373E-1,1.454095397E1
3.774022708E0,-1.402380298E1,-2.460740481E0,4.799912086E-1,1.424614633E1
3.783988708E0,-1.388134843E1,-2.448104940E0,4.309514880E-1,1.410215484E1
3.793955708E0,-1.395411352E1,-2.597114507E0,4.949973567E-1,1.420236988E1
3.803921708E0,-1.428877423E1,-2.809000645E0,6.062229466E-1,1.457487770E1
3.813888708E0,-1.454674052E1,-2.949316279E0,7.116760191E-1,1.485976477E1
3.823854708E0,-1.495880083E1,-3.086161591E0,7.252839518E-1,1.529104811E1
3.833821708E0,-1.508925221E1,-3.270183700E0,7.582648793E-1,1.545815640E1
3.843787708E0,-1.490411767E1,-3.627684512E0,9.727230616E-1,1.537006859E1
3.853754708E0,-1.457777520E1,-4.032300433E0,1.230580740E0,1.517515422E1
3.863721708E0,-1.417535111E1,-4.641841089E0,1.302822943E0,1.497279585E1
3.873687708E0,-1.359970326E1,-5.624788154E0,1.328602440E0,1.477685199E1
3.883654708E0,-1.235425217E1,-7.025327865E0,1.205057059E0,1.426306211E1
3.893620708E0,-9.823885968E0,-9.222149005E0,6.450290166E-1,1.348973055E1
3.903587708E0,-5.789642213E0,-1.180271940E1,-5.970545125E-1,1.315981065E1
3.913553458E0,-1.441660255E0,-1.463082816E1,-2.517633305E0,1.491569624E1
3.923520458E0,2.780115985E0,-1.822154833E1,-4.617666653E0,1.900201868E1
3.933486458E0,6.421232135E0,-2.081397103E1,-6.816179978E0,2.282353876E1
3.943453458E0,9.256019586E0,-2.121906379E1,-8.855409300E0,2.478590004E1
3.953419458E0,1.162444715E1,-2.134074201E1,-9.896796069E0,2.623931427E1
3.963386458E0,1.106409678E1,-2.250378595E1,-1.141510981E1,2.755248358E1
3.973352458E0,8.855689967E0,-2.322151062E1,-1.257762633E1,2.785423638E1
3.983319458E0,8.936789678E0,-2.340028105E1,-1.163348695E1,2.761842468E1
3.993286458E0,1.015181887E1,-2.298432884E1,-9.025053399E0,2.669813453E1
4.003252458E0,1.172130277E1,-2.208162166E1,-5.696549277E0,2.564054655E1
4.013219458E0,1.334145630E1,-2.194289062E1,-3.802554266E0,2.596043767E1
4.023185458E0,1.433944971E1,-2.205173771E1,-3.731472589E0,2.656732658E1
4.033152458E0,1.387720159E1,-2.155794034E1,-4.281441521E0,2.599331178E1
4.043118458E0,1.201910380E1,-2.051036254E1,-5.573263074E0,2.441710649E1
4.053085458E0,1.059335850E1,-1.909746474E1,-5.782233791E0,2.259129548E1
4.063051458E0,1.203437907E1,-1.652236968E1,-3.395604137E0,2.072064446E1
4.073018458E0,1.619678970E1,-1.232570606E1,1.023208360E0,2.037905743E1
4.082984458E0,1.981755637E1,-6.960831907E0,6.027791120E0,2.185229935E1
4.092951458E0,2.040387305E1,-1.426803065E0,9.803937022E0,2.268195282E1
4.102917458E0,1.899280894E1,2.991683450E0,1.132374824E1,2.231376784E1
4.112884458E0,1.664171603E1,5.891081464E0,1.173147225E1,2.119620236E1
4.122850458E0,1.386465463E1,8.174072437E0,1.191818671E1,2.002716362E1
4.132817458E0,1.255510987E1,1.022728888E1,1.200699656E1,2.015927053E1
4.142784458E0,1.266222034E1,1.170011480E1,1.197589405E1,2.099158280E1
4.152750458E0,1.321228429E1,1.191952923E1,1.176707243E1,2.133315792E1
4.162717458E0,1.326059515E1,1.102641732E1,1.150681053E1,2.073238894E1
4.172683458E0,1.216002521E1,1.023131762E1,1.133014275E1,1.951712602E1
4.182650458E0,1.067321509E1,9.687897273E0,1.144904121E1,1.840797160E1
4.192616458E0,9.235432125E0,9.225895901E0,1.203559061E1,1.775572592E1
4.202583458E0,8.009646978E0,9.164578489E0,1.265977153E1,1.756171286E1
4.212549458E0,7.083183140E0,9.184774772E0,1.270558095E1,1.720358562E1
4.222516458E0,6.525594410E0,9.351513973E0,1.224290949E1,1.673090042E1
4.232482458E0,6.284720115E0,9.773965949E0,1.141324572E1,1.628773450E1
4.242449458E0,6.229908900E0,9.199391057E0,9.012935044E0,1.430641670E1
4.252415458E0,6.301127987E0,1.003944240E1,9.245911505E0,1.503268097E1
4.262382458E0,6.357167702E0,1.211263703E1,1.106589071E1,1.759498492E1
4.272348458E0,6.250368893E0,1.224728788E1,1.027657039E1,1.716598586E1
4.282315458E0,6.764962462E0,1.181325491E1,9.146845053E0,1.640068545E1
4.292282458E0,6.909274668E0,1.152292545E1,8.545856534E0,1.592317655E1
4.302248458E0,6.444452598E0,1.136631246E1,8.439768746E0,1.555486177E1
4.312215458E0,5.812832270E0,1.106715370E1,8.409338667E0,1.506611718E1
4.322181458E0,5.201296543E0,1.057937664E1,8.253258355E0,1.439072511E1
4.332148458E0,4.724114922E0,1.017185377E1,8.145036333E0,1.386093387E1
4.342114458E0,4.383713708E0,1.000064730E1,7.982251019E0,1.352576148E1
4.352081458E0,3.934688476E0,9.847242086E0,7.956620334E0,1.325736615E1
4.362047458E0,3.340077223E0,9.719734193E0,8.208870971E0,1.315351327E1
4.372014458E0,2.977275033E0,9.443733920E0,8.904727056E0,1.331699819E1
4.381980458E0,2.722660074E0,8.732397332E0,1.028828704E1,1.376649887E1
4.391947458E0,2.022584200E0,8.321226974E0,7.472025905E0,1.136507089E1
4.401913458E0,2.031851598E0,8.343016039E0,6.792069569E0,1.094835817E1
4.411880458E0,1.030248846E0,8.118613935E0,6.682028478E0,1.056516964E1
4.421846458E0,5.186230315E-1,7.715595766E0,5.662013283E0,9.584246568E0
4.431813458E0,3.028686677E-1,7.422499403E0,4.848496309E0,8.870915583E0
4.441780458E0,4.330297346E-1,7.117678204E0,4.023658833E0,8.187715687E0
4.451746458E0,9.756368753E-1,6.472708098E0,3.059571670E0,7.225565462E0
4.461713458E0,1.373814135E0,5.757965507E0,2.342151054E0,6.366097990E0
4.471679458E0,1.712711445E0,4.718631111E0,1.335332439E0,5.194417463E0
4.481646458E0,2.791699611E0,2.996227906E0,1.566816983E-1,4.098233465E0
4.491612458E0,4.111167677E0,-1.928154445E-1,-1.600597225E0,4.415969762E0
4.501579458E0,5.122352700E0,-4.289810348E0,-3.241393472E0,7.426143121E0
4.511545458E0,6.441235460E0,-8.105493953E0,-3.839834067E0,1.104232186E1
4.521512458E0,8.443074178E0,-1.190625020E1,-3.909057499E0,1.511042772E1
4.531478458E0,1.018029247E1,-1.490754881E1,-2.255878603E0,1.819237078E1
4.541445458E0,1.152599173E1,-1.772628332E1,-1.189927681E0,2.117747703E1
4.551411458E0,1.387987961E1,-2.055903944E1,-1.087304661E0,2.482956690E1
4.561378458E0,1.451998132E1,-2.215319158E1,-1.044875510E0,2.650821608E1
4.571344458E0,1.414315050E1,-2.331247225E1,-1.541288624E0,2.731072388E1
4.581311458E0,1.189445871E1,-2.330387216E1,-1.370352291E0,2.619974181E1
4.591278458E0,8.226409110E0,-2.154985482E1,-1.436767159E0,2.311134676E1
4.601244458E0,4.480968984E0,-1.924171672E1,-2.617803125E0,1.992926588E1
4.611211458E0,1.380740454E0,-1.647425645E1,-3.568591673E0,1.691278854E1
4.621177458E0,-7.072058228E-1,-1.366793091E1,-3.498202014E0,1.412621296E1
4.631144458E0,-1.459736630E0,-1.113286705E1,-2.905006664E0,1.159787151E1
4.641110458E0,-1.124574521E0,-8.991645917E0,-2.482050366E0,9.395474345E0
4.651077458E0,-5.376193196E-1,-6.989963320E0,-2.048388109E0,7.303732990E0
4.661043458E0,-7.505959636E-1,-4.889467456E0,-1.720837905E0,5.237515576E0
4.671010458E0,-2.393640173E0,-3.622417924E0,-2.186338252E0,4.861224110E0
4.680976458E0,-4.117822686E0,-2.879826214E0,-2.799780171E0,5.752271873E0
4.690943458E0,-5.467882800E0,-2.693286002E0,-3.501708004E0,7.029473006E0
4.700909458E0,-6.710485123E0,-2.930813935E0,-4.212679142E0,8.447895978E0
4.710876458E0,-7.786716034E0,-3.005244897E0,-4.734974663E0,9.596063180E0
4.720842458E0,-7.732087253E0,-2.113018845E0,-4.484192262E0,9.184661244E0
4.730809458E0,-6.847174314E0,-6.334282869E-1,-3.482412193E0,7.707932418E0
4.740776458E0,-6.231704580E0,5.692474937E-1,-2.591638005E0,6.773091778E0
4.750742458E0,-5.853286816E0,1.151712034E0,-1.715390785E0,6.207251623E0
4.760709458E0,-5.599681964E0,1.270794674E0,-7.416773517E-1,5.789770504E0
4.770675458E0,-5.566748691E0,1.208797815E0,2.651897947E-1,5.702649277E0
4.780642458E0,-5.846536206E0,9.857616216E-1,9.972753739E-1,6.012343117E0
4.790608458E0,-6.122746979E0,4.820526445E-1,1.261899304E0,6.269991641E0
4.800575458E0,-6.397973081E0,4.036642867E-1,1.479646253E0,6.579236843E0
4.810541458E0,-6.381195665E0,1.029349691E0,1.773652150E0,6.702615971E0
4.820508458E0,-6.249176061E0,1.950544018E0,1.804641516E0,6.790696165E0
4.830474458E0,-6.064320431E0,2.944151434E0,1.678770843E0,6.947105980E0
4.840441458E0,-5.967050829E0,3.782662624E0,1.310106235E0,7.185444347E0
4.850407458E0,-6.341443369E0,4.588330003E0,9.279250574E-1,7.882114002E0
4.860374458E0,-6.803446496E0,5.379910855E0,8.307969582E-1,8.713239846E0
4.870340458E0,-7.043091121E0,5.831921675E0,7.178753833E-1,9.172338199E0
4.880307458E0,-7.085292816E0,5.811948171E0,6.000292835E-1,9.183689399E0
4.890274458E0,-7.002227855E0,5.636211274E0,6.583051197E-1,9.012848500E0
4.900240458E0,-6.876471788E0,5.415874740E0,6.890567963E-1,8.780225664E0
4.910207750E0,-6.931061393E0,5.185561101E0,4.536316681E-1,8.668070008E0
4.920173750E0,-6.775220817E0,4.558560659E0,-1.863718128E-1,8.168159330E0
4.930140750E0,-6.400448207E0,3.376810309E0,-1.075908803E0,7.316157794E0
4.940106750E0,-5.606070632E0,1.433012808E0,-2.341931491E0,6.242290985E0
4.950073750E0,-4.614286963E0,-1.255522916E0,-3.421528645E0,5.880037435E0
4.960039750E0,-3.346959103E0,-4.261774119E0,-3.686746652E0,6.554155533E0
4.970006750E0,-1.715319303E0,-7.558506809E0,-3.263808188E0,8.409862626E0
4.979972750E0,1.569129556E-1,-1.097641427E1,-2.592961814E0,1.127961626E1
4.989939750E0,1.589101891E0,-1.384029630E1,-1.831507133E0,1.405110191E1
4.999905750E0,3.334943075E0,-1.613773983E1,-1.510564722E0,1.654781853E1
5.009872750E0,4.684199781E0,-1.749162871E1,-2.012606950E0,1.821947829E1
5.019838750E0,5.510345864E0,-1.733470230E1,-2.365070093E0,1.834255631E1
5.029805750E0,7.130860167E0,-1.712126490E1,-2.589586509E0,1.872679462E1
5.039771750E0,8.424549614E0,-1.706027610E1,-2.830347075E0,1.923634376E1
5.049738750E0,9.468933665E0,-1.787399100E1,-3.045383109E0,2.045518559E1
5.059705750E0,9.796918609E0,-1.960747409E1,-3.140799143E0,2.214265734E1
5.069671750E0,9.153267635E0,-2.063208520E1,-2.405687191E0,2.269917573E1
5.079638750E0,7.980070592E0,-2.019505963E1,-8.775336067E-1,2.173228072E1
5.089604750E0,6.936142623E0,-1.948572454E1,2.051213484E-1,2.068442917E1
5.099571750E0,6.432233087E0,-1.812280055E1,6.234008968E-1,1.924053406E1
5.109537750E0,6.063566725E0,-1.536381523E1,3.119561179E-1,1.652001745E1
5.119504750E0,6.197828736E0,-1.084579683E1,-5.804415496E-1,1.250525099E1
5.129470750E0,5.748673112E0,-5.501192633E0,-1.966273759E0,8.196132956E0
5.139437750E0,3.949422875E0,-3.343543160E-1,-3.526144688E0,5.305038192E0
5.149403750E0,1.562039807E0,3.628835244E0,-4.326461281E0,5.858897575E0
5.159370750E0,-1.263027817E-1,6.145635905E0,-2.807783840E0,6.757843085E0
5.169336750E0,-4.430370981E-1,7.123188035E0,3.638396318E-1,7.146220605E0
5.179303750E0,-2.255610216E-1,7.620516531E0,3.433679159E0,8.361417496E0
5.189269750E0,-3.030629414E-1,8.385273866E0,5.594349303E0,1.008471165E1
5.199236750E0,-1.038368436E0,9.742535995E0,7.038528539E0,1.206383441E1
5.209203750E0,-1.795838386E0,1.108128759E1,7.346558690E0,1.341610580E1
5.219169750E0,-2.119211631E0,1.167616694E1,6.491024501E0,1.352617209E1
5.229136750E0,-2.048550954E0,1.130838643E1,4.941022357E0,1.250959099E1
5.239102750E0,-1.866349375E0,1.079678781E1,2.595438695E0,1.126011496E1
5.249069750E0,-1.937336327E0,1.063135604E1,4.929144323E-1,1.081766925E1
5.259035750E0,-1.856241001E0,1.059437124E1,-7.491055083E-1,1.078181300E1
5.269002750E0,-1.558100246E0,1.032306043E1,-9.216007090E-1,1.048058209E1
5.278968750E0,-1.466765276E0,9.923371664E0,-4.713674426E-2,1.003129740E1
5.288935750E0,-1.710130484E0,9.470476745E0,1.385363263E0,9.722844616E0
5.298901750E0,-2.063515148E0,8.674880610E0,2.567198982E0,9.279124904E0
5.308868750E0,-2.334490909E0,7.983396488E0,3.416862859E0,8.992186558E0
5.318834750E0,-2.876580717E0,7.707240095E0,4.027880230E0,9.159698993E0
5.328801750E0,-3.165610926E0,7.592818855E0,3.972362087E0,9.135187532E0
5.338767750E0,-3.109096709E0,7.496757873E0,3.550728722E0,8.858641849E0
5.348734750E0,-3.295830173E0,7.653573765E0,3.243399067E0,8.941997842E0
5.358700750E0,-3.302562657E0,7.959239886E0,2.664981970E0,9.019897370E0
5.368667750E0,-3.286409723E0,7.958001446E0,2.139344180E0,8.871700480E0
5.378634750E0,-3.162336485E0,8.103060926E0,1.779333597E0,8.878400558E0
5.388600750E0,-2.927319639E0,8.639499693E0,1.245690676E0,9.206622642E0
5.398567750E0,-2.762110946E0,9.128920999E0,1.871202564E-1,9.539469035E0
5.408533750E0,-3.120980591E0,9.848603318E0,1.465649188E0,1.043473213E1
5.418500750E0,-3.611829202E0,1.110469517E1,2.997126038E0,1.205580066E1
5.428466750E0,-3.669016725E0,1.216799964E1,3.333857832E0,1.313912124E1
5.438433750E0,-3.363856679E0,1.276449516E1,3.149237845E0,1.357076149E1
5.448399750E0,-2.898444626E0,1.259298229E1,2.551515580E0,1.317172790E1
5.458366750E0,-2.497692837E0,1.157628480E1,2.124765463E0,1.203176910E1
5.468332750E0,-2.527217476E0,1.049609357E1,1.454064685E0,1.089353536E1
5.478299750E0,-2.983970680E0,9.969948245E0,5.784722073E-1,1.042298322E1
5.488265750E0,-3.732231850E0,9.705851149E0,-4.769480252E-1,1.040963883E1
5.498232750E0,-4.744626954E0,9.825291638E0,-1.053973193E0,1.096169240E1
5.508198750E0,-5.223925853E0,1.008079274E1,-8.229711910E-1,1.138371931E1
5.518165750E0,-4.857243743E0,9.948574333E0,-3.352815382E-1,1.107607158E1
5.528131750E0,-3.643675769E0,8.817765511E0,-1.373182051E-1,9.541918990E0
5.538098750E0,-1.919307315E0,6.473840704E0,-4.435300183E-1,6.766910145E0
5.548065750E0,-6.299652734E-1,3.290191410E0,-1.275289282E0,3.584491389E0
5.558031750E0,1.504585066E-1,-1.521890486E0,-2.573074265E0,2.993242320E0
5.567998750E0,5.444871667E-1,-7.388417737E0,-3.368715423E0,8.138392135E0
5.577964750E0,3.700246704E-1,-1.069375051E1,-2.455727663E0,1.097833396E1
5.587931750E0,6.621860629E-1,-1.178501286E1,-7.377584016E-1,1.182663545E1
5.597897750E0,1.911875796E0,-1.320668499E1,2.268149570E-1,1.334628198E1
5.607864750E0,4.031823300E0,-1.550294739E1,-1.942629227E-1,1.601982257E1
5.617830750E0,6.601827484E0,-1.885664600E1,-1.009722634E0,2.000441862E1
5.627797750E0,8.785659034E0,-2.191079408E1,-1.540446332E0,2.365678923E1
5.637763750E0,1.033044780E1,-2.317501590E1,-1.645188968E0,2.542648541E1
5.647730750E0,1.123362744E1,-2.229692549E1,-1.082894983E0,2.499039682E1
5.657696750E0,1.176429384E1,-2.008872216E1,-1.962769961E-1,2.328076228E1
5.667663750E0,1.128469352E1,-1.733088173E1,8.747835150E-1,2.069949312E1
5.677629750E0,9.365057294E0,-1.371433558E1,1.128232247E0,1.664512561E1
5.687596750E0,7.850743046E0,-1.077432982E1,-3.285158712E-1,1.333522674E1
5.697563750E0,7.007042452E0,-8.779756855E0,-1.740829243E0,1.136720110E1
5.707529750E0,5.391132832E0,-7.513186795E0,-3.235975734E0,9.797133661E0
5.717496750E0,3.473348424E0,-6.644646059E0,-4.424041954E0,8.705608407E0
5.727462750E0,1.863383960E0,-5.866364699E0,-4.808425924E0,7.810723042E0
5.737429750E0,8.002984661E-1,-4.892498068E0,-4.482811149E0,6.683757236E0
5.747395750E0,1.724671340E-1,-3.846406045E0,-3.775900319E0,5.392773645E0
5.757362750E0,-2.209165782E-1,-2.802982106E0,-2.882572067E0,4.026752357E0
5.767328750E0,-5.879255471E-1,-1.674673553E0,-2.200454307E0,2.827045652E0
5.777295750E0,-9.879002407E-1,-7.923281264E-1,-1.798518165E0,2.199635955E0
5.787261750E0,-1.652801458E0,-6.291837931E-2,-9.241875172E-1,1.894685713E0
5.797228750E0,-2.095359085E0,7.358820301E-1,-2.609577262E-1,2.236101740E0
5.807194750E0,-2.217518529E0,1.476754074E0,6.121567011E-2,2.664946225E0
5.817161750E0,-2.380024054E0,2.193319827E0,3.315616858E-1,3.253474991E0
5.827127750E0,-2.623628999E0,2.933680825E0,4.818646565E-1,3.965111077E0
5.837094750E0,-2.817923496E0,3.544784442E0,5.031037903E-1,4.556237812E0
5.847060750E0,-2.932643529E0,4.056742671E0,4.817779715E-1,5.028883492E0
5.857027750E0,-3.032118115E0,4.473593599E0,3.790001464E-1,5.417602889E0
5.866994750E0,-3.031154494E0,4.865206189E0,2.474904191E-1,5.737541315E0
5.876960750E0,-3.035061019E0,5.176765720E0,2.496305001E-1,6.006064776E0
5.886927750E0,-3.084589859E0,5.416957060E0,3.318386976E-1,6.242454269E0
5.896893750E0,-2.938766440E0,5.774161710E0,5.963389595E-1,6.506374704E0
5.906860250E0,-2.762384888E0,6.239798881E0,8.058096130E-1,6.871330983E0
5.916826250E0,-2.621140716E0,6.600299022E0,7.332749029E-1,7.139469022E0
5.926793250E0,-2.195209063E0,6.849021449E0,5.268855858E-1,7.211494024E0
5.936759250E0,-1.824497344E0,6.995241601E0,-4.166024208E-2,7.229379724E0
5.946726250E0,-2.234090708E0,7.406775071E0,-4.233046456E-1,7.747945861E0
5.956692250E0,-3.657743878E0,8.078627166E0,4.317945103E-1,8.878612147E0
5.966659250E0,-3.838624278E0,7.984044360E0,2.897402067E-1,8.863630750E0
5.976625250E0,-3.556396720E0,7.836674060E0,-3.531788421E-1,8.613138409E0
5.986592250E0,-3.639897883E0,7.863620369E0,-5.765366328E-1,8.684340873E0
5.996558250E0,-3.607060505E0,7.970087056E0,-5.472922222E-1,8.765426512E0
6.006525250E0,-3.475151413E0,8.225212770E0,-5.702824509E-1,8.947403228E0
6.016492250E0,-3.377899937E0,8.425827230E0,-7.195935877E-1,9.106184021E0
6.026458250E0,-3.264512486E0,8.411131423E0,-5.974519770E-1,9.042185712E0
6.036425250E0,-3.254208230E0,7.684757550E0,-6.129495835E-1,8.367859762E0
6.046391250E0,-2.884353713E0,5.857632467E0,-1.186554422E0,6.636208696E0
6.056358250E0,-1.827703665E0,3.029018506E0,-2.276321054E0,4.206791098E0
6.066324250E0,7.031773835E-2,-6.614276791E-1,-3.856776667E0,3.913714018E0
6.076291250E0,2.098915946E0,-4.961531466E0,-5.538212525E0,7.726191856E0
6.086257250E0,4.286333886E0,-9.037344246E0,-6.457583106E0,1.190573932E1
6.096224250E0,6.666622235E0,-1.431507735E1,-6.219967464E0,1.697213265E1
6.106190250E0,8.463403192E0,-2.214496337E1,-5.755545344E0,2.439579674E1
6.116157250E0,9.249519821E0,-3.051742073E1,-3.288892451E0,3.205750144E1
6.126123250E0,7.081056508E0,-3.301282058E1,2.944738787E0,3.389187470E1
6.136090250E0,2.644831003E0,-2.784922630E1,8.474329884E0,2.922992993E1
6.146057250E0,-1.872181388E0,-2.248010940E1,1.069675949E1,2.496559724E1
6.156023250E0,-3.606647399E0,-2.289132771E1,7.749908981E0,2.443525893E1
6.165990250E0,-2.143494533E0,-2.581453325E1,1.944216746E0,2.597623287E1
6.175956250E0,7.901050150E-3,-2.543680078E1,-1.246731627E-1,2.543710753E1
6.185923250E0,5.337516788E-1,-2.207074817E1,9.638184831E-1,2.209822984E1
6.195889250E0,7.007367557E-1,-1.934091474E1,1.325998821E0,1.939897646E1
6.205856250E0,1.585692672E0,-1.638199440E1,1.353373146E0,1.651410854E1
6.215822250E0,2.180446597E0,-1.213094934E1,1.982496274E0,1.248377230E1
6.225789250E0,3.751028602E0,-7.570973073E0,3.705794542E0,9.226199761E0
6.235755250E0,6.227696314E0,-4.297357349E0,2.613477355E0,8.005107460E0
6.245722250E0,8.788456927E0,2.489980652E0,-1.960480192E0,9.342401265E0
6.255689250E0,1.014551206E1,8.224261428E0,-3.901093884E0,1.363042276E1
6.265655250E0,9.239569030E0,1.020130503E1,-5.133370024E0,1.468971572E1
6.275622250E0,7.019818618E0,1.043279629E1,-3.207016522E0,1.297713554E1
6.285588250E0,4.748271232E0,1.102658923E1,2.394469893E-1,1.200787594E1
6.295555250E0,3.583127559E0,1.089879132E1,2.379584051E0,1.171686287E1
6.305521250E0,2.466799951E0,1.009651123E1,2.368918730E0,1.066003832E1
6.315488250E0,1.462026253E0,9.956631796E0,2.251034185E0,1.031208962E1
6.325454250E0,5.971343270E-1,1.045967361E1,2.282379938E0,1.072243440E1
6.335421250E0,-3.168752342E-3,1.119754895E1,1.766888237E0,1.133609309E1
6.345387250E0,-2.296162118E-1,1.155230186E1,7.755606508E-1,1.158058273E1
6.355354250E0,-7.699562408E-2,1.173219847E1,-7.052759492E-1,1.175363022E1
6.365320250E0,7.125779521E-1,1.209331666E1,-2.405482539E0,1.235080651E1
6.375287250E0,1.662384460E0,1.259747997E1,-3.832348169E0,1.327203512E1
6.385254250E0,2.863130075E0,1.316048264E1,-4.862181424E0,1.431910001E1
6.395220250E0,4.074032888E0,1.383376496E1,-5.312839199E0,1.536870383E1
6.405187250E0,4.793992073E0,1.415673826E1,-5.547417212E0,1.594269224E1
6.415153250E0,5.174123948E0,1.404222872E1,-5.354081950E0,1.589408505E1
6.425120250E0,5.179028592E0,1.376017541E1,-4.576411623E0,1.539832159E1
6.435086250E0,5.127025795E0,1.318037486E1,-3.446417903E0,1.455632067E1
6.445053250E0,5.147837790E0,1.258911728E1,-2.268132467E0,1.378878286E1
6.455019250E0,5.137028042E0,1.218219083E1,-1.055723557E0,1.326308346E1
6.464986250E0,5.128347266E0,1.187082543E1,-4.062877497E-2,1.293128349E1
6.474952250E0,5.004490374E0,1.154191253E1,6.355514109E-1,1.259621349E1
6.484919250E0,4.807203272E0,1.127383874E1,1.065431689E0,1.230218631E1
6.494886250E0,4.680140352E0,1.102238508E1,1.311867270E0,1.204648008E1
6.504852250E0,4.627744622E0,1.076392646E1,1.614983422E0,1.182735408E1
6.514819250E0,4.628146326E0,1.054178956E1,1.936399019E0,1.167470371E1
6.524785250E0,4.674878443E0,1.029048442E1,2.030578952E0,1.148354514E1
6.534752250E0,4.773972668E0,9.944881232E0,2.056199112E0,1.122138283E1
6.544718250E0,4.580685353E0,9.462664281E0,2.034236970E0,1.070807236E1
6.554685250E0,4.144142758E0,8.932776734E0,1.915732620E0,1.003187175E1
6.564651250E0,3.717978677E0,8.394895459E0,1.884786816E0,9.372836100E0
6.574618250E0,3.142392510E0,7.932077231E0,2.096793991E0,8.785728480E0
6.584584250E0,2.346476970E0,7.515107020E0,2.243564951E0,8.186352752E0
6.594551250E0,1.575759568E0,7.091683822E0,1.909168535E0,7.511319601E0
6.604517250E0,9.692856297E-1,6.859310794E0,1.442511610E0,7.076051085E0
6.614484250E0,7.232871276E-1,6.579237936E0,9.134192848E-1,6.681605411E0
6.624451250E0,9.324319451E-1,5.629728466E0,-1.652902798E-1,5.708817112E0
6.634417250E0,1.382649862E0,3.862741996E0,-1.778097349E0,4.471479236E0
6.644384250E0,1.925375409E0,1.480566459E0,-3.337329909E0,4.127580214E0
6.654350250E0,2.691615452E0,-1.747213526E0,-4.354002836E0,5.408778933E0
6.664317250E0,3.254479833E0,-5.251781988E0,-4.470874643E0,7.626373523E0
6.674283250E0,3.838278123E0,-8.880725405E0,-4.510550340E0,1.067448954E1
6.684250250E0,4.616037911E0,-1.269147981E1,-4.008716565E0,1.408727348E1
6.694216250E0,4.952450155E0,-1.603869502E1,-2.531283045E0,1.697568538E1
6.704183250E0,5.773600962E0,-1.923534910E1,-1.820876602E0,2.016553284E1
6.714150250E0,7.204383057E0,-2.247039835E1,-1.479454172E0,2.364340758E1
6.724116250E0,7.300292011E0,-2.410854025E1,2.344457196E-1,2.519069156E1
6.734083250E0,5.889315605E0,-2.368743547E1,1.785789654E0,2.447381626E1
6.744049250E0,4.548979119E0,-2.171913405E1,2.737331615E0,2.235859967E1
6.754016250E0,3.718457272E0,-1.873247452E1,3.795276237E0,1.947143159E1
6.763982250E0,3.537449110E0,-1.572841603E1,4.459773412E0,1.672681069E1
6.773949250E0,4.244543836E0,-1.364848307E1,4.163078673E0,1.488719136E1
6.783915250E0,5.107568600E0,-1.220226666E1,3.582193466E0,1.370454956E1
6.793882250E0,5.310159420E0,-1.104795379E1,2.752265697E0,1.256304272E1
6.803848250E0,5.126214786E0,-1.007967826E1,1.365927995E0,1.139051146E1
6.813815250E0,4.429569035E0,-9.443021729E0,-3.751213959E-1,1.043707130E1
6.823782250E0,3.185140334E0,-8.696909410E0,-1.585355580E0,9.396526196E0
6.833748250E0,1.458987309E0,-8.021343749E0,-2.131010728E0,8.426850315E0
6.843715250E0,-8.200795966E-1,-7.184071584E0,-1.939373936E0,7.486293230E0
6.853681250E0,-3.111195860E0,-6.040578396E0,-1.785386196E0,7.025363401E0
6.863648250E0,-5.297654564E0,-4.756236894E0,-1.709204578E0,7.321769838E0
6.873614250E0,-7.409955956E0,-3.476881312E0,-1.804422684E0,8.381652113E0
6.883581250E0,-8.871832960E0,-2.186378013E0,-1.959846354E0,9.345087833E0
6.893547250E0,-9.314923267E0,-7.537680781E-1,-1.899960486E0,9.536551350E0
6.903514250E0,-9.009278196E0,6.003500032E-1,-1.562195782E0,9.163403810E0
6.913481083E0,-8.432507674E0,1.725285882E0,-1.214155473E0,8.692408789E0
6.923448083E0,-8.045669920E0,2.641865587E0,-9.730738945E-1,8.524032558E0
6.933415083E0,-7.645991095E0,3.463603454E0,-8.006149466E-1,8.432005278E0
6.943381083E0,-7.008881401E0,4.115932281E0,-8.415511572E-1,8.171506923E0
6.953348083E0,-6.348645970E0,4.626809945E0,-8.899461492E-1,7.905990138E0
6.963314083E0,-5.750202743E0,5.015218261E0,-7.494177496E-1,7.666738078E0
6.973281083E0,-5.430997394E0,5.252898806E0,-6.440497541E-1,7.583104816E0
6.983247083E0,-5.512010567E0,5.413834646E0,-5.817908677E-1,7.747925314E0
6.993214083E0,-5.655597718E0,5.508409266E0,-6.587835681E-1,7.922269497E0
7.003180083E0,-5.688587124E0,5.363840953E0,-6.276412245E-1,7.843771206E0
7.013147083E0,-5.720614078E0,5.229021116E0,-4.737447743E-1,7.764825908E0
7.023113083E0,-5.745840136E0,5.233125862E0,-3.216775525E-1,7.778416394E0
7.033080083E0,-5.660647958E0,5.402134953E0,-7.607812285E-2,7.825074136E0
7.043047083E0,-5.603679705E0,5.547645253E0,1.997900033E-1,7.887807689E0
7.053013083E0,-5.505811349E0,5.392786424E0,1.724963701E-1,7.708816966E0
7.062980083E0,-5.558019383E0,4.625144073E0,-1.139520004E-2,7.230744568E0
7.072946083E0,-5.519141246E0,3.827891421E0,4.241716415E-3,6.716672600E0
7.082913083E0,-5.325025381E0,3.340859873E0,1.505774975E-2,6.286291970E0
7.092879083E0,-5.087447162E0,2.731225076E0,-3.943572736E-1,5.787678869E0
7.102846083E0,-4.676941633E0,1.764307276E0,-1.017202685E0,5.101104243E0
7.112812083E0,-4.008366902E0,2.720598346E-1,-2.033368220E0,4.502844444E0
7.122779083E0,-3.120155548E0,-1.774876703E0,-3.109483795E0,4.749152285E0
7.132745083E0,-2.166276163E0,-4.737509431E0,-4.298791087E0,6.753987921E0
7.142712083E0,-1.260482524E0,-8.522444867E0,-5.385774443E0,1.016009100E1
7.152679083E0,-5.692603576E-1,-1.200412674E1,-5.709859879E0,1.330509737E1
7.162645083E0,3.521164030E-1,-1.501723556E1,-5.452418668E0,1.598030723E1
7.172612083E0,2.034763512E0,-1.772004551E1,-4.920236675E0,1.850267560E1
7.182578083E0,3.995331996E0,-1.993869898E1,-3.887925662E0,2.070339008E1
7.192545083E0,5.322702867E0,-2.095942871E1,-2.390139445E0,2.175641478E1
7.202511083E0,6.206324156E0,-2.064795221E1,-1.414665707E0,2.160688939E1
7.212478083E0,5.805438466E0,-1.984262923E1,-1.177313190E0,2.070794816E1
7.222444083E0,4.587576297E0,-1.927301336E1,-1.651122430E0,1.988016865E1
7.232411083E0,3.588276617E0,-1.890578834E1,-2.655466796E0,1.942565483E1
7.242377083E0,2.360756017E0,-1.825045112E1,-3.256880700E0,1.868848327E1
7.252344083E0,3.813986742E-1,-1.728907297E1,-2.800234500E0,1.751852797E1
7.262311083E0,-1.640728420E0,-1.602815834E1,-1.629590936E0,1.619411671E1
7.272277083E0,-3.161432798E0,-1.355397569E1,2.232347068E-1,1.391958146E1
7.282244083E0,-3.783467200E0,-9.930519301E0,2.667620233E0,1.095655217E1
7.292210083E0,-2.733821824E0,-5.967753080E0,4.271560603E0,7.831608301E0
7.302177083E0,-1.300224002E0,-3.570266023E0,4.396465316E0,5.810876802E0
7.312143083E0,-2.135870934E-1,-1.757889372E0,4.931706573E0,5.239992768E0
7.322110083E0,1.219217261E0,9.876379931E-1,5.979612987E0,6.182045860E0
7.332076083E0,2.719554618E0,3.961841776E0,6.987558360E0,8.480456321E0
7.342043083E0,4.069333188E0,7.112362500E0,7.762460614E0,1.128720372E1
7.352009083E0,5.060654050E0,9.786692998E0,7.879371014E0,1.354525994E1
7.361976083E0,6.033005083E0,1.150271981E1,6.990401276E0,1.475043808E1
7.371943083E0,6.945620960E0,1.217958414E1,5.264104410E0,1.497647207E1
7.381909083E0,7.506250243E0,1.237726915E1,3.771892637E0,1.495886889E1
7.391876083E0,8.103024673E0,1.243035251E1,2.805352567E0,1.510108193E1
7.401842083E0,8.758510412E0,1.250636164E1,2.184888142E0,1.542382320E1
7.411809083E0,8.871551124E0,1.239969439E1,2.065196807E0,1.538576869E1
7.421775083E0,8.679351391E0,1.210825513E1,2.392203512E0,1.508852612E1
7.431742083E0,8.063252497E0,1.143592122E1,2.606892221E0,1.423348946E1
7.441708083E0,7.079212881E0,1.040811169E1,2.422052379E0,1.281836111E1
7.451675083E0,6.010696201E0,9.526471437E0,2.056091523E0,1.145031175E1
7.461641083E0,5.044352598E0,8.945054718E0,1.745496783E0,1.041663362E1
7.471608083E0,4.040419584E0,8.632761946E0,1.637600452E0,9.671158383E0
7.481574083E0,3.121988358E0,8.647228543E0,1.730270780E0,9.354956427E0
7.491541083E0,2.606932567E0,9.199277036E0,2.050510794E0,9.778925806E0
7.501508083E0,2.482946744E0,9.928361678E0,2.708763582E0,1.058653816E1
7.511474083E0,2.478294992E0,1.056791025E1,3.377331003E0,1.136789504E1
7.521441083E0,2.528737752E0,1.084831932E1,3.634169658E0,1.171698493E1
7.531407083E0,2.511068051E0,1.084095767E1,3.715831872E0,1.173197479E1
7.541374083E0,2.175408344E0,1.094350380E1,3.885018718E0,1.181465393E1
7.551340083E0,1.413508543E0,1.101830373E1,3.648852017E0,1.169252515E1
7.561307083E0,7.388803361E-1,1.081679698E1,2.966167370E0,1.124042659E1
7.571273083E0,3.457934432E-1,1.067629774E1,2.241742959E0,1.091459198E1
7.581240083E0,1.546473058E-1,1.055338342E1,1.450901195E0,1.065377547E1
7.591206083E0,-1.727691427E-2,1.048943243E1,8.623953116E-1,1.052483809E1
7.601173083E0,-1.455101542E-1,1.053775849E1,2.802863006E-1,1.054248963E1
7.611139083E0,-3.371688733E-1,1.063381304E1,-9.427886796E-1,1.068084796E1
7.621106083E0,-4.412194911E-1,1.095456908E1,-2.201047508E0,1.118221214E1
7.631073083E0,-1.122846815E0,1.089607353E1,-3.142658558E0,1.139567928E1
7.641039083E0,-1.659136916E0,1.038057130E1,-3.925060451E0,1.122118957E1
7.651006083E0,-1.814981440E0,9.962652090E0,-4.151346527E0,1.094450877E1
7.660972083E0,-1.961512664E0,9.610788286E0,-4.069234078E0,1.061948442E1
7.670939083E0,-1.678795694E0,8.764483343E0,-3.410697262E0,9.553396206E0
7.680905083E0,-8.666669950E-1,6.974267639E0,-2.592411007E0,7.490802067E0
7.690872083E0,1.505036764E-1,4.434784459E0,-2.681439543E0,5.184600522E0
7.700838083E0,1.089429247E0,1.202350091E0,-3.441032617E0,3.804366872E0
7.710805083E0,1.557556162E0,-2.615882900E0,-4.166797210E0,5.160525509E0
7.720771083E0,2.123244164E0,-6.078131554E0,-3.632989690E0,7.392595150E0
7.730738083E0,3.305969829E0,-8.541132569E0,-1.870939586E0,9.347769627E0
7.740704083E0,4.341672520E0,-1.079534238E1,-9.917358680E-1,1.167788839E1
7.750671083E0,5.850476060E0,-1.260222908E1,-1.172537477E0,1.394342469E1
7.760638083E0,7.748667033E0,-1.485084719E1,-2.094138040E0,1.688120011E1
7.770604083E0,9.483934697E0,-1.710837412E1,-2.890298578E0,1.977360130E1
7.780571083E0,1.085943722E1,-1.823769015E1,-2.668613091E0,2.139304127E1
7.790537083E0,1.142924370E1,-1.837342976E1,-1.713780316E0,2.170593411E1
7.800504083E0,1.107312488E1,-1.776786988E1,-4.931565070E-1,2.094169282E1
7.810470083E0,1.108582737E1,-1.827011764E1,1.466177630E-1,2.137087420E1
7.820437083E0,1.086904302E1,-1.892840770E1,9.537451923E-1,2.184789107E1
7.830403083E0,8.752552099E0,-1.782764129E1,1.970434199E0,1.995781985E1
7.840370083E0,6.026932164E0,-1.623603621E1,2.142958051E0,1.745064618E1
7.850336083E0,3.636247174E0,-1.471249622E1,1.930658222E0,1.527767259E1
7.860303083E0,1.496357449E0,-1.285489311E1,1.483488020E0,1.302643847E1
7.870269083E0,6.595717728E-2,-1.058585769E1,1.114131979E0,1.064453021E1
7.880236083E0,-9.512881923E-1,-8.605582334E0,8.285770628E-1,8.697559225E0
7.890203083E0,-2.320691188E0,-6.876624400E0,4.156621885E-1,7.269549215E0
7.900169083E0,-3.708399769E0,-5.618273186E0,-2.918298554E-1,6.738129347E0
7.910135375E0,-4.529231317E0,-4.637374109E0,-9.511034203E-1,6.551623667E0
7.920101375E0,-5.081637368E0,-3.601088451E0,-1.648956037E0,6.442820220E0
7.930068375E0,-5.208903186E0,-2.411301103E0,-2.025332684E0,6.086790443E0
7.940034375E0,-4.949579757E0,-1.036780332E0,-2.082673989E0,5.469075257E0
7.950001375E0,-4.404895831E0,2.058342701E-1,-1.900512317E0,4.801814459E0
7.959967375E0,-3.759776914E0,1.251313505E0,-1.528789469E0,4.247223231E0
7.969934375E0,-3.593144424E0,2.202277177E0,-9.635826941E-1,4.323101112E0
7.979900375E0,-3.547842828E0,3.030270395E0,-5.296910799E-1,4.695774701E0
7.989867375E0,-3.629053637E0,3.739253479E0,-2.101746583E-1,5.214999546E0
7.999833375E0,-3.934055808E0,4.352495424E0,9.588410407E-3,5.866950098E0
8.009800375E0,-4.263964486E0,4.705355008E0,1.113027732E-1,6.350917035E0
8.019767375E0,-4.679640415E0,4.791140093E0,2.924639860E-1,6.703699948E0
8.029733375E0,-4.932577223E0,5.032194482E0,5.149783158E-1,7.065302685E0
8.039700375E0,-5.107694900E0,5.355620937E0,6.156686850E-1,7.426322828E0
8.049666375E0,-5.289378415E0,5.682931112E0,6.764727111E-1,7.792999767E0
8.059633375E0,-5.483311263E0,5.937880239E0,9.307973559E-1,8.135816361E0
8.069599375E0,-5.713101575E0,6.256605533E0,1.237030073E0,8.562411214E0
8.079566375E0,-5.661050246E0,6.759704061E0,1.389946311E0,8.925975556E0
8.089532375E0,-5.421859950E0,7.247969372E0,1.301183384E0,9.144545015E0
8.099499375E0,-5.139748167E0,7.597079136E0,1.134563320E0,9.242286327E0
8.109465375E0,-4.947805712E0,7.879106135E0,1.118263621E0,9.370784832E0
8.119432375E0,-4.859071290E0,8.130072139E0,1.001380119E0,9.524253721E0
8.129398375E0,-4.971882792E0,8.340388885E0,8.255332216E-1,9.744906892E0
8.139365375E0,-5.247539248E0,8.519394375E0,6.118818089E-1,1.002452732E1
8.149332375E0,-5.388122685E0,8.223901824E0,1.841639042E-1,9.833531594E0
8.159298375E0,-5.167696103E0,7.349738406E0,-3.226961374E-1,8.990432162E0
8.169265375E0,-4.640865189E0,5.637376624E0,-1.248642497E0,7.407884515E0
8.179231375E0,-3.802500472E0,2.977099324E0,-3.025957489E0,5.698995434E0
8.189198375E0,-2.450096502E0,-7.064489007E-2,-4.535909715E0,5.155816183E0
8.199164375E0,-9.978615573E-1,-2.985694731E0,-5.192157930E0,6.071952296E0
8.209131375E0,1.695593137E-1,-6.124687670E0,-5.035798706E0,7.930940551E0
8.219097375E0,5.905220032E-1,-1.050648408E1,-4.653819988E0,1.150621416E1
8.229064375E0,8.548945034E-1,-1.533648886E1,-3.748257022E0,1.581101407E1
8.239030375E0,2.471880012E0,-1.927433717E1,-2.048279789E0,1.953984939E1
8.248997375E0,4.288203533E0,-2.122428653E1,9.285659122E-1,2.167305384E1
8.258963375E0,6.042247192E0,-2.135509342E1,3.697226032E0,2.249929435E1
8.268930375E0,6.590162873E0,-2.081507031E1,4.512958224E0,2.229493643E1
8.278897375E0,5.190991411E0,-2.067607731E1,3.246508324E0,2.156354287E1
8.288863375E0,3.274168285E0,-2.100735716E1,1.587914029E0,2.132019474E1
8.298830375E0,1.874946829E0,-2.200177208E1,-2.751324002E-1,2.208323115E1
8.308796375E0,1.245803089E0,-2.302475415E1,-2.055576968E0,2.314987529E1
8.318763375E0,2.182305135E0,-2.248791661E1,-3.370293002E0,2.284354885E1
8.328729375E0,4.434857549E0,-2.013195881E1,-3.946798060E0,2.098906720E1
8.338696375E0,7.056873009E0,-1.625756916E1,-3.924204419E0,1.815233847E1
8.348662375E0,8.435334803E0,-1.136488223E1,-3.116536707E0,1.449235048E1
8.358629375E0,8.503794004E0,-6.884833891E0,-1.980460420E0,1.111924789E1
8.368595375E0,7.200401688E0,-3.038386331E0,-1.037880632E0,7.883829790E0
8.378562375E0,5.555443684E0,1.380580240E-1,-1.075942644E0,5.660359275E0
8.388528375E0,4.167447420E0,3.327112484E0,-1.022947720E0,5.429891115E0
8.398495375E0,3.455734564E0,6.257971442E0,-4.333231187E-1,7.161848705E0
8.408461375E0,3.505159616E0,8.584462776E0,5.940700936E-1,9.291504956E0
8.418428375E0,3.641543290E0,1.039115476E1,1.924476546E0,1.117768066E1
8.428395375E0,3.583834487E0,1.194024825E1,3.239176208E0,1.288043712E1
8.438361375E0,3.160065719E0,1.300912161E1,4.138831147E0,1.401260803E1
8.448328375E0,2.511019811E0,1.343121691E1,4.433960001E0,1.436533360E1
8.458294375E0,1.655631949E0,1.332061916E1,4.380287240E0,1.411973542E1
8.468261375E0,6.759868075E-1,1.293864863E1,3.912160324E0,1.353405279E1
8.478227375E0,-1.330764887E-1,1.231241885E1,2.888470738E0,1.264739619E1
8.488194375E0,-6.820592871E-1,1.157372139E1,1.451625226E0,1.168432486E1
8.498160375E0,-8.491580924E-1,1.117041202E1,3.985685845E-1,1.120972931E1
8.508127375E0,-7.206279601E-1,1.122205580E1,-1.457243085E-2,1.124517912E1
8.518093375E0,-3.452837853E-1,1.125875761E1,-2.771836035E-1,1.126746087E1
8.528060375E0,1.667161050E-1,1.092567447E1,-3.028156042E-1,1.093114149E1
8.538026375E0,4.577087854E-1,1.046491388E1,6.832822323E-2,1.047514146E1
8.547993375E0,5.850893551E-1,9.921759002E0,6.837321755E-1,9.962485681E0
8.557959375E0,6.803093617E-1,9.271394255E0,1.353018659E0,9.394265897E0
8.567926375E0,7.043881957E-1,8.668710628E0,2.030210723E0,8.931095245E0
8.577893375E0,6.327998574E-1,8.274984269E0,2.705466921E0,8.728994878E0
8.587859375E0,4.792635226E-1,8.172183201E0,3.210297979E0,8.793195376E0
8.597826375E0,3.473225632E-1,8.342821326E0,3.414791483E0,9.021313736E0
8.607792375E0,1.352297258E-1,8.746316044E0,3.401940472E0,9.385602292E0
8.617759375E0,-1.336750974E-1,9.233183286E0,3.114326459E0,9.745181985E0
8.627725375E0,-4.503920183E-1,9.571594985E0,2.555434384E0,9.917082656E0
8.637692375E0,-8.030194679E-1,9.689388898E0,1.982695080E0,9.922710177E0
8.647658375E0,-1.407913050E0,9.428256340E0,1.476554099E0,9.646473386E0
8.657625375E0,-1.963755510E0,9.383538589E0,1.187193085E0,9.660049667E0
8.667591375E0,-2.340450391E0,9.653456004E0,9.784287015E-1,9.981194496E0
8.677558375E0,-2.690900922E0,9.871788697E0,6.053913995E-1,1.024986139E1
8.687524375E0,-3.135158042E0,9.855108930E0,1.197649368E-1,1.034247222E1
8.697491375E0,-3.657525192E0,9.810989349E0,-3.414891616E-1,1.047614516E1
8.707457375E0,-3.996762810E0,1.006431880E1,-7.523892315E-1,1.085498574E1
8.717424375E0,-3.924569285E0,1.041131129E1,-1.044020355E0,1.117531321E1
8.727390375E0,-3.622173511E0,1.040570498E1,-1.496068597E0,1.111922022E1
8.737357375E0,-3.619959755E0,9.932043085E0,-1.690531787E0,1.070548860E1
8.747324375E0,-3.303835303E0,9.379222759E0,-1.613537990E0,1.007415764E1
8.757290375E0,-2.322960784E0,8.713561111E0,-1.710917519E0,9.178754425E0
8.767257375E0,-9.880244941E-1,6.884212332E0,-2.981056720E0,7.566721285E0
8.777223375E0,3.657950869E-1,3.322159308E0,-4.981193898E0,5.998569926E0
8.787190375E0,1.404462608E0,-1.358338017E0,-6.356449664E0,6.649966144E0
8.797156375E0,1.968951053E0,-5.933950326E0,-6.167420876E0,8.782119048E0
8.807123375E0,2.495532876E0,-1.007946309E1,-4.840562514E0,1.145662716E1
8.817089375E0,3.059457065E0,-1.354388457E1,-3.029319638E0,1.421175092E1
8.827056375E0,3.699644440E0,-1.654216835E1,-1.502858384E0,1.701732312E1
8.837022375E0,5.205239321E0,-1.927471607E1,-3.499814384E-1,1.996826690E1
8.846989375E0,6.990641012E0,-2.074939438E1,8.081052299E-1,2.191025931E1
8.856955375E0,8.599576074E0,-2.117383207E1,1.506030060E0,2.290310022E1
8.866922375E0,9.321891394E0,-2.040480159E1,1.712275681E0,2.249856607E1
8.876889375E0,8.879236119E0,-1.884068310E1,1.852959251E0,2.091041921E1
8.886855375E0,7.794166557E0,-1.691533999E1,1.867995074E0,1.871809726E1
8.896822375E0,6.548255879E0,-1.482434293E1,1.643384517E0,1.628930665E1
8.906788375E0,5.293477898E0,-1.268733881E1,1.441486885E0,1.382271170E1
8.916755583E0,4.191097069E0,-1.081543692E1,6.721491337E-1,1.161855218E1
8.926721583E0,3.459881701E0,-9.482384600E0,-4.763448849E-1,1.010511274E1
8.936688583E0,2.769211220E0,-8.444220232E0,-1.505927002E0,9.013390163E0
8.946654583E0,2.062602398E0,-7.537908238E0,-2.333897563E0,8.156069340E0
8.956621583E0,1.450486042E0,-6.595235918E0,-2.618523502E0,7.242769629E0
8.966587583E0,6.695710963E-1,-5.734040455E0,-2.351078875E0,6.233387303E0
8.976554583E0,-3.688277453E-1,-4.902659944E0,-1.615616967E0,5.175164405E0
8.986520583E0,-1.143358701E0,-3.969713298E0,-9.796214604E-1,4.245650833E0
8.996487583E0,-1.627287133E0,-2.947260983E0,-4.350060935E-1,3.394648880E0
9.006453583E0,-2.038409251E0,-1.989061382E0,6.947062299E-2,2.848912709E0
9.016420583E0,-2.454832747E0,-9.851576042E-1,5.073101310E-1,2.693344183E0
9.026386583E0,-2.676997705E0,9.476816297E-2,8.012650108E-1,2.795947663E0
9.036353583E0,-2.735315788E0,1.149122302E0,9.843157513E-1,3.125909791E0
9.046320583E0,-2.963816789E0,2.053525180E0,9.063558483E-1,3.717883343E0
9.056286583E0,-3.315636446E0,2.707440357E0,5.692953678E-1,4.318307023E0
9.066253583E0,-3.536462685E0,3.304014228E0,2.406783398E-1,4.845720215E0
9.076219583E0,-3.553809035E0,3.841256987E0,7.458350144E-2,5.233581622E0
9.086186583E0,-3.377556413E0,4.253083987E0,-8.127509158E-2,5.431686328E0
9.096152583E0,-3.068102173E0,4.506427469E0,-2.556613183E-1,5.457701181E0
9.106119583E0,-2.788898503E0,4.783194897E0,-3.771009342E-1,5.549694892E0
9.116085583E0,-2.465635770E0,5.236768093E0,-5.001205409E-1,5.809752177E0
9.126052583E0,-1.945804558E0,5.695959878E0,-6.736273098E-1,6.056722551E0
9.136018583E0,-1.523548172E0,6.114665542E0,-8.014322412E-1,6.352371790E0
9.145985583E0,-1.529643017E0,6.479993144E0,-9.238390231E-1,6.721874549E0
9.155951583E0,-1.789394462E0,6.488038913E0,-1.006811013E0,6.805163473E0
9.165918583E0,-2.064315924E0,6.252514236E0,-8.786891627E-1,6.642847970E0
9.175884583E0,-2.166776977E0,6.382414225E0,-5.549218154E-1,6.762992830E0
9.185851583E0,-2.240764135E0,6.612043739E0,-5.065431225E-1,6.999766585E0
9.195817583E0,-2.503656997E0,6.742027928E0,-5.609309989E-1,7.213728753E0
9.205784583E0,-2.521945041E0,6.966486749E0,-6.085665107E-1,7.433875007E0
9.215751583E0,-2.410409110E0,7.230949881E0,-5.980023462E-1,7.645542170E0
9.225717583E0,-2.451150170E0,7.448218381E0,-5.308628619E-1,7.859129061E0
9.235684583E0,-2.573722721E0,7.717633520E0,-4.959421206E-1,8.150575095E0
9.245650583E0,-2.621297421E0,7.950060343E0,-6.394070649E-1,8.395445254E0
9.255617583E0,-2.532291982E0,7.855879825E0,-1.043054395E0,8.319574086E0
9.265583583E0,-2.289268543E0,7.424962251E0,-1.646933193E0,7.942493552E0
9.275550583E0,-2.019611622E0,6.776290857E0,-2.215797694E0,7.409906093E0
9.285516583E0,-1.874638096E0,5.440478654E0,-2.950588049E0,6.466764709E0
9.295483583E0,-1.261820367E0,3.458300614E0,-3.870988909E0,5.341964892E0
9.305449583E0,-2.113142806E-1,5.132019317E-1,-4.918503560E0,4.949717893E0
9.315416583E0,9.312366280E-1,-3.747513256E0,-6.073463137E0,7.197083558E0
9.325382583E0,2.646807069E0,-9.431689240E0,-7.506602830E0,1.234145193E1
9.335349583E0,4.350542746E0,-1.596026281E1,-7.600781593E0,1.820519409E1
9.345315583E0,4.529812823E0,-2.198535076E1,-5.996843562E0,2.323439229E1
9.355282583E0,5.272021540E0,-2.633277665E1,-3.871197070E0,2.713292288E1
9.365249583E0,5.810947713E0,-2.814159644E1,-2.011425520E0,2.880559661E1
9.375215583E0,4.620028636E0,-2.853088067E1,-7.190810792E-1,2.891146648E1
9.385182583E0,2.175539029E0,-2.781639301E1,4.186401755E-2,2.790136991E1
9.395148583E0,5.705344659E-1,-2.606173013E1,1.261054382E-1,2.606827938E1
9.405115583E0,-2.430541366E-2,-2.333907240E1,8.408179164E-2,2.333923651E1
9.415081583E0,4.894993660E-1,-1.945206797E1,4.007579282E-1,1.946235250E1
9.425048583E0,1.984856649E0,-1.761768649E1,-2.221147019E0,1.786773705E1
9.435014583E0,2.645902797E0,-1.520158774E1,-3.779584942E0,1.588629390E1
9.444981583E0,3.423327540E0,-1.133472229E1,-3.619379126E0,1.238123605E1
9.454947583E0,2.858002944E0,-6.699446164E0,-2.323358395E0,7.645178478E0
9.464914583E0,2.484420827E0,-3.291049781E0,-1.456368341E0,4.373141235E0
9.474880583E0,1.374701742E0,2.528692728E-1,4.598823416E-1,1.471475286E0
9.484847583E0,8.292530009E-1,2.517686514E0,2.541244654E0,3.672101621E0
9.494813583E0,4.796833527E-1,4.236800660E0,3.686272151E0,5.636415379E0
9.504780583E0,7.318047667E-1,5.714172201E0,4.277083883E0,7.175008620E0
9.514746583E0,1.230148339E0,6.910547606E0,4.872359673E0,8.544519994E0
9.524713583E0,1.826718702E0,8.290674688E0,5.271873021E0,9.993239372E0
9.534680583E0,2.383155531E0,9.940208137E0,5.342004526E0,1.153361090E1
9.544646583E0,2.719655775E0,1.148492089E1,4.967074041E0,1.280514584E1
9.554613583E0,2.718417919E0,1.240499431E1,3.971168085E0,1.330578279E1
9.564579583E0,2.287185911E0,1.278516390E1,2.561246517E0,1.323826344E1
9.574546583E0,1.694989996E0,1.274661671E1,1.130579100E0,1.290842507E1
9.584512583E0,1.209441009E0,1.215262848E1,-2.256557465E-2,1.221268340E1
9.594479583E0,7.766322993E-1,1.111804085E1,-7.117991030E-1,1.116783990E1
9.604445583E0,4.502547549E-1,1.000193602E1,-1.210318749E0,1.008495538E1
9.614412583E0,1.866589111E-1,9.083626127E0,-1.176069195E0,9.161345093E0
9.624378583E0,2.206753805E-2,8.659703577E0,-6.412173629E-1,8.683438992E0
9.634345583E0,2.654934114E-1,8.749423254E0,8.715859652E-3,8.753454746E0
9.644311583E0,7.777789383E-1,9.005525452E0,7.629294956E-1,9.071190119E0
9.654278583E0,1.133409225E0,9.410171487E0,1.354280634E0,9.574446194E0
9.664244583E0,1.471139431E0,9.788900322E0,1.919509921E0,1.008322067E1
9.674211583E0,1.715829765E0,1.017626257E1,2.608854547E0,1.064455324E1
9.684177583E0,1.739310721E0,1.038767801E1,2.976449114E0,1.094478440E1
9.694144583E0,1.522084613E0,1.026683828E1,2.939373089E0,1.078724358E1
9.704110583E0,1.165989911E0,1.029227367E1,2.879381826E0,1.075087296E1
9.714077583E0,8.203254721E-1,1.050347978E1,2.628269641E0,1.085835267E1
9.724044583E0,6.928118782E-1,1.074410206E1,2.165911589E0,1.098211684E1
9.734010583E0,6.841302247E-1,1.093981304E1,1.680181046E0,1.108920880E1
9.743977583E0,5.570357300E-1,1.110062901E1,1.185645765E0,1.117765669E1
9.753943583E0,5.096870242E-1,1.128776915E1,7.196086442E-1,1.132216189E1
9.763910583E0,3.458639753E-1,1.159661206E1,5.571531129E-1,1.161513895E1
9.773876583E0,-1.301711534E-1,1.191386795E1,5.907360113E-1,1.192921469E1
9.783843583E0,-6.706892301E-1,1.232459743E1,7.136351287E-1,1.236344616E1
9.793809583E0,-1.037245771E0,1.271301861E1,9.403492212E-1,1.278987794E1
9.803776583E0,-9.457049784E-1,1.296241990E1,9.239308244E-1,1.302967136E1
9.813742583E0,-4.162610896E-1,1.268383516E1,2.828759958E-1,1.269381607E1
9.823709583E0,2.542110626E-1,1.200589845E1,-6.861391819E-1,1.202817558E1
9.833675583E0,5.812866184E-1,1.091015363E1,-1.766138039E0,1.106745634E1
9.843642583E0,7.190120821E-1,9.213439577E0,-2.618993618E0,9.605393006E0
9.853608583E0,1.241522196E0,6.878553981E0,-3.401782597E0,7.773545335E0
9.863575583E0,2.203670276E0,3.467314682E0,-4.259393132E0,5.917842820E0
9.873541583E0,3.519523886E0,-7.926894844E-1,-5.310137200E0,6.419732244E0
9.883508583E0,4.770480126E0,-5.286020944E0,-6.122256982E0,9.390502043E0
9.893474583E0,5.694483456E0,-8.932342286E0,-6.067003133E0,1.220747343E1
9.903441583E0,6.081912364E0,-1.130620191E1,-5.014539399E0,1.378279598E1
9.913408833E0,6.253286068E0,-1.356189399E1,-3.679018972E0,1.538062859E1
9.923374833E0,7.115192553E0,-1.668210509E1,-2.729111892E0,1.834030117E1
9.933341833E0,8.253086447E0,-2.058172430E1,-2.285620319E0,2.229226035E1
9.943307833E0,8.520980140E0,-2.396709377E1,-1.489895399E0,2.548035468E1
9.953274833E0,7.672852035E0,-2.418535161E1,1.115764229E0,2.539781134E1
9.963240833E0,6.463832610E0,-2.144810391E1,4.218317027E0,2.279465928E1
9.973207833E0,5.801040775E0,-1.861826905E1,6.060805085E0,2.042119915E1
9.983173833E0,5.267789326E0,-1.576672114E1,6.984949332E0,1.803132322E1
9.993140833E0,4.977221884E0,-1.324702143E1,6.689288381E0,1.565256827E1
1.000310683E1,5.105585225E0,-1.148364620E1,5.204034795E0,1.360231997E1
1.001307383E1,4.954772669E0,-1.032676289E1,3.247864293E0,1.190547884E1
1.002303983E1,4.212063430E0,-9.362207361E0,1.359241412E0,1.035567198E1
1.003300683E1,3.127054093E0,-8.446454453E0,-2.617801371E-1,9.010526564E0
1.004297283E1,1.855984601E0,-7.315211182E0,-1.589223952E0,7.712498055E0
1.005293983E1,6.885610986E-1,-6.069504572E0,-2.692166552E0,6.675384849E0
1.006290583E1,-2.646297777E-1,-5.092713164E0,-3.399924352E0,6.129049020E0
1.007287283E1,-1.073739705E0,-4.251001208E0,-3.455931030E0,5.582775969E0
1.008283983E1,-1.712865812E0,-3.303318994E0,-3.063348094E0,4.819743480E0
1.009280583E1,-2.162371684E0,-2.569476473E0,-2.708049052E0,4.314115241E0
1.010277283E1,-2.501154097E0,-2.185083439E0,-2.360829838E0,4.074785758E0
1.011273883E1,-2.902771273E0,-1.650928010E0,-1.694907697E0,3.744910741E0
1.012270583E1,-3.268922748E0,-8.982901990E-1,-9.463227367E-1,3.519702819E0
1.013267183E1,-3.642679111E0,-1.688044381E-1,-5.256205407E-1,3.684275098E0
1.014263883E1,-4.215696890E0,3.659965235E-1,-4.099626151E-1,4.251367200E0
1.015260483E1,-4.829660380E0,8.067765963E-1,-3.633984594E-1,4.910047485E0
1.016257183E1,-5.341999848E0,1.347172174E0,-2.244924429E-1,5.513821914E0
1.017253783E1,-5.651083083E0,1.753372398E0,-1.185256925E-1,5.918032030E0
1.018250483E1,-5.941059955E0,1.868185986E0,-4.640964299E-2,6.228038706E0
1.019247083E1,-6.021068577E0,1.999741321E0,2.875802453E-1,6.350979023E0
1.020243783E1,-5.917340140E0,2.366255323E0,8.414589174E-1,6.428229282E0
1.021240383E1,-5.662361192E0,2.753080798E0,1.189817315E0,6.407609023E0
1.022237083E1,-5.427387908E0,3.022364960E0,1.325101858E0,6.351938632E0
1.023233683E1,-5.437837467E0,3.326863977E0,1.468324874E0,6.541718289E0
1.024230383E1,-5.470294776E0,3.824657911E0,1.586632612E0,6.860724169E0
1.025226983E1,-5.441476774E0,4.249354632E0,1.566473897E0,7.079585068E0
1.026223683E1,-5.519397354E0,4.598888320E0,1.480095173E0,7.335134808E0
1.027220383E1,-5.756778522E0,4.971496875E0,1.287163954E0,7.714471542E0
1.028216983E1,-6.361274786E0,5.452157882E0,1.075727759E0,8.446835661E0
1.029213683E1,-6.929282085E0,6.041187091E0,7.109901407E-1,9.220433757E0
1.030210283E1,-7.357671323E0,6.516934099E0,2.686820443E-1,9.832494464E0
1.031206983E1,-7.800016696E0,6.697776200E0,-2.757829030E-1,1.028477140E1
1.032203583E1,-7.965309296E0,6.559194850E0,-7.511344922E-1,1.034569438E1
1.033200283E1,-7.918247396E0,6.336311853E0,-8.706770155E-1,1.017868205E1
1.034196883E1,-7.608201125E0,5.606436667E0,-9.898306990E-1,9.502453435E0
1.035193583E1,-7.174400874E0,3.811642009E0,-1.406511472E0,8.244932821E0
1.036190183E1,-6.438976096E0,1.401508010E0,-1.565577665E0,6.773158148E0
1.037186883E1,-5.456711694E0,-1.543939751E0,-2.124887524E0,6.055955701E0
1.038183483E1,-4.424773441E0,-5.009364029E0,-2.824075352E0,7.255876899E0
1.039180183E1,-3.417577096E0,-8.363447379E0,-3.145850261E0,9.566789385E0
1.040176783E1,-2.471294121E0,-1.137370334E1,-3.054364432E0,1.203318596E1
1.041173483E1,-1.090732591E0,-1.457509133E1,-2.582560787E0,1.484225741E1
1.042170083E1,5.411165392E-1,-1.887734514E1,-1.680708757E0,1.895974020E1
1.043166783E1,1.700949186E0,-2.350837970E1,2.909638828E-1,2.357163134E1
1.044163383E1,1.661416746E0,-2.570681584E1,2.787571185E0,2.591083247E1
1.045160083E1,2.091079507E0,-2.578328806E1,3.786712697E0,2.614363689E1
1.046156783E1,3.194014653E0,-2.533690928E1,2.850396008E0,2.569602029E1
1.047153383E1,3.756208650E0,-2.538191413E1,7.168239078E-1,2.566835610E1
1.048150083E1,4.123216450E0,-2.592564204E1,-1.275449057E0,2.628243899E1
1.049146683E1,4.525741114E0,-2.550531611E1,-2.041569086E0,2.598406217E1
1.050143383E1,4.596005935E0,-2.354838401E1,-1.654161813E0,2.404965512E1
1.051139983E1,4.797621147E0,-2.047207498E1,-1.259092641E0,2.106438551E1
1.052136683E1,4.979611641E0,-1.645796845E1,-1.187195570E0,1.723573877E1
1.053133283E1,4.868609269E0,-1.163201228E1,-9.219041795E-1,1.264345574E1
1.054129983E1,6.034818889E0,-7.051438022E0,-4.037663206E-1,9.290040066E0
1.055126583E1,7.529481230E0,-3.078544423E0,-3.399305132E-1,8.141626135E0
1.056123283E1,8.167948648E0,1.150403427E0,-4.834901825E-1,8.262722064E0
1.057119883E1,8.455448055E0,5.699039022E0,-6.543946481E-1,1.021772381E1
1.058116583E1,8.885894344E0,9.427935913E0,-8.034963083E-1,1.298039677E1
1.059113183E1,9.329372322E0,1.165005328E1,-5.368021712E-1,1.493482795E1
1.060109883E1,9.509912707E0,1.265880790E1,1.266319799E-1,1.583350539E1
1.061106483E1,8.877818754E0,1.309598551E1,1.133798504E0,1.586209322E1
1.062103183E1,7.619105598E0,1.340728191E1,1.999317398E0,1.555002407E1
1.063099783E1,6.375758339E0,1.370162607E1,2.500058913E0,1.531780487E1
1.064096483E1,5.091291706E0,1.368031648E1,2.427913920E0,1.479753615E1
1.065093083E1,3.926816662E0,1.327506701E1,1.854416670E0,1.396732453E1
1.066089783E1,3.136299126E0,1.252242160E1,8.622687194E-1,1.293796438E1
1.067086483E1,2.823748493E0,1.177628531E1,2.594263405E-2,1.211012486E1
1.068083083E1,2.548255465E0,1.105450618E1,-2.513155214E-1,1.134719667E1
1.069079783E1,2.549425786E0,1.025601625E1,-8.488388345E-2,1.056847418E1
1.070076383E1,2.903455690E0,9.440783415E0,3.645347196E-1,9.883892553E0
1.071073083E1,3.327421509E0,8.970967823E0,1.280632760E0,9.653497700E0
1.072069683E1,3.749389628E0,8.665723286E0,2.414638109E0,9.745930425E0
1.073066383E1,4.251829467E0,8.369299858E0,3.484197055E0,1.001313453E1
1.074062983E1,4.953700290E0,8.372474896E0,4.469066684E0,1.070560785E1
1.075059683E1,5.746266398E0,8.464698935E0,5.058595830E0,1.141315457E1
1.076056283E1,6.374547966E0,8.984623411E0,5.693578892E0,1.240061128E1
1.077052983E1,6.851706491E0,9.702010113E0,6.292693963E0,1.344146121E1
1.078049583E1,7.080091133E0,1.020315976E1,6.471639227E0,1.400408062E1
1.079046283E1,7.032173785E0,1.062023932E1,6.360266726E0,1.423706234E1
1.080042883E1,6.646487932E0,1.089331832E1,6.015622480E0,1.410772482E1
1.081039583E1,5.629593980E0,1.091672239E1,5.316171527E0,1.338390211E1
1.082036183E1,4.523927600E0,1.071771825E1,4.373073822E0,1.242816077E1
1.083032883E1,3.691054296E0,1.049193269E1,3.611937083E0,1.169404220E1
1.084029483E1,2.776008608E0,1.035513358E1,2.911575134E0,1.110910820E1
1.085026183E1,1.741837596E0,1.041058038E1,2.206607917E0,1.078347350E1
1.086022783E1,7.722783894E-1,1.062322841E1,1.770883932E0,1.079747312E1
1.087019483E1,1.002822335E-1,1.128178277E1,1.867503908E0,1.143574440E1
1.088016083E1,1.166059054E-1,1.194604284E1,1.675483246E0,1.206353102E1
1.089012783E1,8.284466699E-1,1.159257164E1,6.247901952E-1,1.163891764E1
1.090009383E1,1.675340282E0,9.996130908E0,-1.191702165E0,1.020536879E1
1.091006083E1,2.034469689E0,7.845141998E0,-3.099861325E0,8.677238047E0
1.092002808E1,1.480395281E0,5.371633537E0,-4.708153485E0,7.294705360E0
1.092999408E1,5.137268655E-1,2.813175557E0,-5.539374951E0,6.233983226E0
1.093996108E1,-4.270455480E-2,3.156473190E-1,-5.817137575E0,5.825851567E0
1.094992708E1,-2.160949641E-1,-2.116461686E0,-5.664870232E0,6.051186813E0
1.095989408E1,-4.222386982E-1,-4.281449414E0,-5.272016863E0,6.804649617E0
1.096986008E1,-3.513799462E-1,-5.813895294E0,-4.341613755E0,7.264602973E0
1.097982708E1,-1.058125301E-1,-6.326728266E0,-2.782275946E0,6.912289511E0
1.098979308E1,1.254260210E0,-6.578598250E0,-2.005093132E0,6.990816982E0
1.099976008E1,3.499796257E0,-7.945276151E0,-2.403287348E0,9.008428111E0
1.100972608E1,5.893216283E0,-1.027647449E1,-3.209328511E0,1.227337426E1
1.101969308E1,7.865923587E0,-1.268481164E1,-4.054177205E0,1.546653009E1
1.102965908E1,9.116537765E0,-1.434421168E1,-4.552600007E0,1.759527881E1
1.103962608E1,9.744160352E0,-1.538813147E1,-4.335387640E0,1.872268242E1
1.104959208E1,1.005064567E1,-1.609852022E1,-3.704100896E0,1.933644732E1
1.105955908E1,1.039683007E1,-1.601890336E1,-2.843214458E0,1.930759459E1
1.106952508E1,1.036376641E1,-1.530155759E1,-1.888639254E0,1.857719777E1
1.107949208E1,9.633238671E0,-1.401274004E1,-9.205727684E-1,1.702949280E1
1.108945808E1,8.246803029E0,-1.242545371E1,-1.721092844E-1,1.491413027E1
1.109942508E1,6.741119855E0,-1.106863656E1,4.257913202E-2,1.295990838E1
1.110939208E1,5.096250730E0,-1.027118159E1,-1.894918871E-1,1.146755641E1
1.111935808E1,3.299440828E0,-9.781000734E0,-5.108148059E-1,1.033514475E1
1.112932508E1,1.860740726E0,-9.396967304E0,-6.186555889E-1,9.599379423E0
1.113929108E1,6.502507263E-1,-8.585109478E0,-3.752275229E-1,8.617872501E0
1.114925808E1,-6.843505186E-1,-7.560277346E0,-2.367686722E-1,7.594879102E0
1.115922408E1,-1.971940734E0,-6.606276630E0,-2.247435808E-1,6.897967154E0
1.116919108E1,-3.186482270E0,-5.843448291E0,-1.300634184E-1,6.657061941E0
1.117915708E1,-4.210187643E0,-5.120055329E0,9.744267941E-2,6.629490300E0
1.118912408E1,-4.915943064E0,-4.392042482E0,4.491889536E-1,6.607443082E0
1.119909008E1,-5.316313030E0,-3.748949332E0,8.500851685E-1,6.560522092E0
1.120905708E1,-5.841440358E0,-3.348616789E0,9.176664099E-1,6.795422834E0
1.121902308E1,-6.676211668E0,-2.929218230E0,7.977406016E-1,7.334065158E0
1.122899008E1,-7.389294820E0,-2.447789483E0,6.726777220E-1,7.813184153E0
1.123895608E1,-7.766025662E0,-1.927322386E0,7.153504094E-1,8.033520546E0
1.124892308E1,-7.609628431E0,-1.193088101E0,7.825583062E-1,7.742241379E0
1.125888908E1,-7.342846878E0,-5.762103581E-1,7.417197441E-1,7.402672951E0
1.126885608E1,-6.994810662E0,6.282950163E-2,9.421665359E-1,7.058257683E0
1.127882208E1,-6.522732198E0,8.125770342E-1,1.449311922E0,6.731034230E0
1.128878908E1,-6.132517676E0,1.573327857E0,1.961499069E0,6.628017214E0
1.129875508E1,-5.896707070E0,2.357469882E0,2.198560102E0,6.720303940E0
1.130872208E1,-5.879904512E0,3.152373707E0,2.392764845E0,7.087740166E0
1.131868808E1,-6.157691109E0,3.939688430E0,2.470598010E0,7.716356605E0
1.132865508E1,-6.568266220E0,4.552960780E0,2.337368909E0,8.326756056E0
1.133862208E1,-6.844919627E0,5.111484481E0,2.137360512E0,8.806163084E0
1.134858808E1,-7.155133129E0,5.656900477E0,2.011441015E0,9.340361238E0
1.135855508E1,-7.537165056E0,6.229226530E0,1.967671975E0,9.974159275E0
1.136852108E1,-7.545091542E0,6.668483403E0,1.847301486E0,1.023765598E1
1.137848808E1,-7.093306425E0,6.815680041E0,1.603390732E0,9.966912877E0
1.138845408E1,-6.599216702E0,6.611747285E0,1.033914027E0,9.398608485E0
1.139842108E1,-6.280630572E0,6.119404711E0,4.653611827E-1,8.781229722E0
1.140838708E1,-6.060291114E0,5.298293665E0,-3.381590992E-3,8.049786059E0
1.141835408E1,-6.205863395E0,3.771151210E0,-6.463998963E-1,7.290552432E0
1.142832008E1,-6.623686715E0,2.067422258E0,-8.780411451E-1,6.994170197E0
1.143828708E1,-6.677807373E0,3.158817923E-1,-1.119627046E0,6.778381617E0
1.144825308E1,-6.126637716E0,-2.290381268E0,-1.725400780E0,6.764506184E0
1.145822008E1,-4.901542541E0,-5.488967859E0,-2.479358893E0,7.765378804E0
1.146818608E1,-3.058286160E0,-9.067281405E0,-3.382951055E0,1.014953517E1
1.147815308E1,-1.430093293E0,-1.283550258E1,-4.228236244E0,1.358945455E1
1.148811908E1,5.580062217E-1,-1.649110579E1,-5.020569048E0,1.724743618E1
1.149808608E1,3.382431822E0,-2.001806909E1,-5.383068936E0,2.100336559E1
1.150805208E1,7.185198342E0,-2.256333399E1,-5.196186662E0,2.424317372E1
1.151801908E1,1.031934628E1,-2.337392648E1,-5.061027102E0,2.604694497E1
1.152798508E1,1.112677776E1,-2.321192586E1,-5.054924948E0,2.623263143E1
1.153795208E1,9.598688643E0,-2.232517222E1,-4.610646486E0,2.473471648E1
1.154791908E1,7.413156722E0,-2.130508803E1,-4.204245118E0,2.294640158E1
1.155788508E1,5.897198821E0,-2.036856756E1,-4.128090689E0,2.160316253E1
1.156785208E1,5.203973984E0,-1.898751604E1,-3.998556736E0,2.008968806E1
1.157781808E1,5.122359132E0,-1.678350867E1,-2.838172989E0,1.777582494E1
1.158778508E1,6.398487051E0,-1.320725919E1,-5.468871564E-1,1.468575560E1
1.159775108E1,9.138582938E0,-9.021183711E0,2.189026802E0,1.302640749E1
1.160771808E1,1.094818859E1,-4.797394860E0,4.728880695E0,1.285457675E1
1.161768408E1,1.046345559E1,-8.974476153E-1,6.282051446E0,1.223738066E1
1.162765108E1,8.243427431E0,1.938115177E0,6.220778473E0,1.050754353E1
1.163761708E1,4.832985692E0,3.499400693E0,4.926982023E0,7.738133351E0
1.164758408E1,8.759704998E-1,4.895122883E0,2.844762509E0,5.729068518E0
1.165755008E1,-2.355104975E0,7.094137314E0,8.936562806E-2,7.475378913E0
1.166751708E1,-3.736252396E0,9.527526859E0,-2.043321789E0,1.043592420E1
1.167748308E1,-3.784197518E0,1.191011872E1,-3.759486015E0,1.305008865E1
1.168745008E1,-4.073135340E0,1.406841957E1,-5.161460048E0,1.552905440E1
1.169741608E1,-4.385906121E0,1.528776752E1,-5.897884115E0,1.696281360E1
1.170738308E1,-3.705101647E0,1.504751829E1,-5.976294107E0,1.660938518E1
1.171734908E1,-1.668099821E0,1.372840164E1,-6.060632007E0,1.509910027E1
1.172731608E1,5.048585397E-1,1.244031500E1,-5.964882681E0,1.380565626E1
1.173728208E1,1.704409568E0,1.162579318E1,-5.288088520E0,1.288518371E1
1.174724908E1,2.166171205E0,1.086608550E1,-4.424441904E0,1.193062437E1
1.175721508E1,2.271947921E0,1.017338574E1,-3.313058116E0,1.093781874E1
1.176718208E1,2.269643387E0,9.669017783E0,-1.831410946E0,1.009926988E1
1.177714908E1,2.645276853E0,9.355266716E0,-1.454328248E-1,9.723150501E0
1.178711508E1,3.255987245E0,9.305585264E0,1.228162917E0,9.934976306E0
1.179708108E1,3.747386664E0,9.428614190E0,2.496888553E0,1.044873795E1
1.180704808E1,3.838293033E0,9.708084201E0,3.551481843E0,1.102689510E1
1.181701508E1,3.579455507E0,1.006555022E1,4.118701815E0,1.144951997E1
1.182698108E1,3.256788606E0,1.032554199E1,4.350177880E0,1.166822767E1
1.183694808E1,2.870959204E0,1.056793013E1,4.315560901E0,1.177062529E1
1.184691408E1,2.260451710E0,1.084111672E1,3.842956188E0,1.172210587E1
1.185688108E1,1.728258899E0,1.098852269E1,3.114331137E0,1.155134486E1
1.186684708E1,1.056658527E0,1.100504224E1,2.286715356E0,1.128966559E1
1.187681408E1,1.965260875E-1,1.108013686E1,1.169377788E0,1.114340611E1
1.188678008E1,-5.409779602E-1,1.117256497E1,1.138661925E-1,1.118623398E1
1.189674708E1,-1.323308225E0,1.116251244E1,-6.400188299E-1,1.125888328E1
1.190671308E1,-2.091053195E0,1.111708893E1,-1.186112373E0,1.137405083E1
1.191667958E1,-2.356671883E0,1.105000148E1,-1.605392672E0,1.141199898E1
1.192664558E1,-2.244464838E0,1.106435874E1,-1.487089759E0,1.138723375E1
1.193661258E1,-1.987719153E0,1.108884454E1,-1.100489401E0,1.131921276E1
1.194657858E1,-1.579416709E0,1.093598195E1,-8.071598813E-1,1.107888827E1
1.195654558E1,-1.245405771E0,1.063011176E1,-4.970589387E-1,1.071435388E1
1.196651158E1,-8.382335933E-1,1.008210486E1,-4.411117561E-1,1.012650253E1
1.197647858E1,-4.340655689E-1,9.361244325E0,-4.057651913E-1,9.380082815E0
1.198644458E1,-2.908445996E-1,8.235854117E0,-6.677988052E-1,8.268000899E0
1.199641158E1,-2.239844660E-1,6.746528530E0,-1.400070180E0,6.893911281E0
1.200637758E1,1.621620011E-1,4.420434222E0,-2.059077111E0,4.879173473E0
1.201634458E1,1.254622298E0,1.200658491E0,-2.217899037E0,2.816866000E0
1.202631058E1,2.798847540E0,-2.035459623E0,-2.079705942E0,4.037551267E0
1.203627758E1,4.852029489E0,-4.447209792E0,-1.778497153E0,6.817838163E0
1.204624358E1,6.761150077E0,-6.342649650E0,-1.934114950E0,9.470119090E0
1.205621058E1,8.439261793E0,-8.676080459E0,-3.140606185E0,1.250435600E1
1.206617758E1,1.023428098E1,-1.182475405E1,-4.753724345E0,1.634512804E1
1.207614358E1,1.135590792E1,-1.485870351E1,-5.990417472E0,1.963728129E1
1.208611058E1,1.128474614E1,-1.692093695E1,-6.347255502E0,2.130613187E1
1.209607658E1,1.063508306E1,-1.791162134E1,-5.738001359E0,2.160684684E1
1.210604358E1,9.860114146E0,-1.844318470E1,-4.833170464E0,2.146467912E1
1.211600958E1,9.053231131E0,-1.844025758E1,-3.452427963E0,2.083082698E1
1.212597658E1,8.112303620E0,-1.720548351E1,-1.476454697E0,1.907925710E1
1.213594258E1,7.467981970E0,-1.528329089E1,-2.400515914E-2,1.701030015E1
1.214590958E1,7.446237345E0,-1.358361757E1,6.079744801E-1,1.550260461E1
1.215587558E1,7.472232896E0,-1.206258136E1,9.927391040E-1,1.422412262E1
1.216584258E1,7.001384102E0,-1.074046743E1,8.913238263E-1,1.285190562E1
1.217580858E1,5.885119058E0,-9.884077206E0,4.337669224E-1,1.151163595E1
1.218577558E1,4.488603986E0,-9.164226487E0,-1.847117883E-1,1.020611245E1
1.219574158E1,2.981595541E0,-8.489280045E0,-9.003226912E-1,9.042586389E0
1.220570858E1,1.400388268E0,-7.965573590E0,-1.538885418E0,8.232837801E0
1.221567458E1,-3.669396794E-1,-7.206021447E0,-1.584658299E0,7.387322366E0
1.222564158E1,-2.070045319E0,-6.163724851E0,-1.206240536E0,6.612987819E0
1.223560758E1,-3.346266208E0,-5.184345465E0,-7.535686880E-1,6.216333422E0
1.224557458E1,-4.431421725E0,-4.284270111E0,-6.148698092E-2,6.164109793E0
1.225554058E1,-5.687897152E0,-3.313282650E0,7.356069186E-1,6.623528778E0
1.226550758E1,-6.793091662E0,-2.254929015E0,1.371202184E0,7.287729044E0
1.227547358E1,-7.531848768E0,-1.505976704E0,1.780750524E0,7.884654978E0
1.228544058E1,-7.950163254E0,-1.037563859E0,1.896562523E0,8.238846031E0
1.229540658E1,-8.032469246E0,-4.505764979E-1,2.023657018E0,8.295707872E0
1.230537358E1,-7.734367667E0,5.119851261E-1,2.431098021E0,8.123595852E0
1.231534058E1,-7.198766221E0,1.430595569E0,2.743354248E0,7.835485391E0
1.232530658E1,-6.564023480E0,2.244591722E0,2.858232447E0,7.502938689E0
1.233527358E1,-6.180567171E0,2.919968519E0,2.683715864E0,7.343565724E0
1.234523958E1,-6.200256500E0,3.402756743E0,2.430887522E0,7.478713009E0
1.235520658E1,-6.346836841E0,3.743624858E0,2.172707223E0,7.682299242E0
1.236517258E1,-6.380840154E0,3.868870463E0,1.951448729E0,7.713068901E0
1.237513958E1,-6.404717844E0,3.928093402E0,1.691916407E0,7.701487490E0
1.238510558E1,-6.462186618E0,4.002403327E0,1.475675848E0,7.743171668E0
1.239507258E1,-6.367577500E0,4.180718846E0,1.543888004E0,7.772261154E0
1.240503858E1,-6.360561426E0,4.506366073E0,1.737015982E0,7.986319638E0
1.241500558E1,-6.526749235E0,4.823432511E0,1.974492167E0,8.352399421E0
1.242497158E1,-6.452769678E0,5.169671293E0,2.260128944E0,8.571576321E0
1.243493858E1,-6.152795820E0,5.547021355E0,2.399940548E0,8.624735182E0
1.244490458E1,-5.776790618E0,5.778292767E0,2.264300786E0,8.478622246E0
1.245487158E1,-5.226790988E0,5.687656247E0,2.167150029E0,8.022799815E0
1.246483758E1,-4.698296249E0,5.488140478E0,2.185555894E0,7.547869111E0
1.247480458E1,-4.388510179E0,5.166634249E0,1.910275413E0,7.042888840E0
1.248477058E1,-3.881785793E0,4.483323365E0,1.190658875E0,6.048645956E0
1.249473758E1,-3.413001065E0,3.333440925E0,2.997025466E-1,4.780191031E0
1.250470358E1,-3.415683768E0,1.555911341E0,-7.440140453E-1,3.826396817E0
1.251467058E1,-3.398862498E0,-1.034085351E0,-1.861898329E0,4.011017848E0
1.252463658E1,-2.818933895E0,-4.985766420E0,-3.005135846E0,6.468005609E0
1.253460358E1,-1.981102737E0,-1.031072514E1,-3.819168837E0,1.117237090E1
1.254456958E1,-1.580065019E0,-1.526891492E1,-3.544801399E0,1.575442749E1
1.255453658E1,-1.393040072E0,-1.800667602E1,-2.231587223E0,1.819782744E1
1.256450258E1,-9.941208011E-1,-1.922487323E1,-1.448718722E0,1.930499451E1
1.257446958E1,-9.525441742E-1,-2.062690691E1,-2.050136134E0,2.075041414E1
1.258443658E1,-1.043949019E0,-2.240174268E1,-2.900538806E0,2.261285099E1
1.259440258E1,-8.297058678E-1,-2.378861102E1,-2.756031011E0,2.396209784E1
1.260436958E1,-4.276326084E-1,-2.393795826E1,-1.445260971E0,2.398536000E1
1.261433558E1,1.035688657E0,-2.392710349E1,-5.106548846E-1,2.395495149E1
1.262430258E1,3.627557627E0,-2.368622393E1,-3.045393634E-1,2.396433022E1
1.263426858E1,6.419657480E0,-2.273858674E1,-9.057170400E-1,2.364478066E1
1.264423558E1,8.809320377E0,-2.134032101E1,-2.560567070E0,2.322864460E1
1.265420158E1,1.011819270E1,-1.889396644E1,-3.870969028E0,2.177944426E1
1.266416858E1,1.048149892E1,-1.526064111E1,-4.302569557E0,1.900686959E1
1.267413458E1,9.805434494E0,-1.075410547E1,-4.242361655E0,1.515898950E1
1.268410158E1,8.269726453E0,-5.939610431E0,-3.444500601E0,1.074857814E1
1.269406758E1,7.020390476E0,-1.725315703E0,-2.166066248E0,7.546816527E0
1.270403458E1,6.446669862E0,1.918582553E0,-5.155989978E-1,6.745839729E0
1.271400058E1,6.748155810E0,4.870427753E0,9.399653515E-1,8.375094518E0
1.272396758E1,7.515742612E0,7.043549543E0,1.865680161E0,1.046798642E1
1.273393358E1,8.321050973E0,8.571925176E0,2.315786105E0,1.216883954E1
1.274390058E1,8.742817655E0,9.912170738E0,2.534375052E0,1.345775041E1
1.275386658E1,8.570194400E0,1.152413115E1,2.418857606E0,1.456381485E1
1.276383358E1,8.387450200E0,1.287904445E1,1.368295387E0,1.543020865E1
1.277379958E1,8.161965192E0,1.339598977E1,-3.873159103E-1,1.569140629E1
1.278376658E1,7.403406490E0,1.344282480E1,-1.912819245E0,1.546540797E1
1.279373258E1,6.665039978E0,1.344136183E1,-2.963143190E0,1.529291284E1
1.280369958E1,6.189159654E0,1.327505064E1,-3.527394823E0,1.506569550E1
1.281366558E1,5.642263727E0,1.290670880E1,-3.419030714E0,1.449510410E1
1.282363258E1,5.094346876E0,1.258711402E1,-2.826873829E0,1.387007661E1
1.283359858E1,4.680601405E0,1.240766999E1,-1.751304238E0,1.337629884E1
1.284356558E1,4.243484613E0,1.229228572E1,-4.893300160E-1,1.301333522E1
1.285353258E1,3.626095238E0,1.213484476E1,3.491313263E-1,1.266984280E1
1.286349858E1,3.017490136E0,1.214737417E1,1.006311588E0,1.255693470E1
1.287346558E1,2.719442351E0,1.228966850E1,1.308716791E0,1.265480376E1
1.288343158E1,2.563882442E0,1.243141670E1,1.229865918E0,1.275249719E1
1.289339858E1,2.424654536E0,1.249005726E1,1.090587580E0,1.276988102E1
1.290336458E1,2.129568658E0,1.257738777E1,1.037087896E0,1.279848807E1
1.291333158E1,1.679850532E0,1.254043921E1,9.406697217E-1,1.268737061E1
1.292329708E1,1.286474859E0,1.233327002E1,1.055810680E0,1.244505135E1
1.293326408E1,1.177412008E0,1.199573131E1,1.796880945E0,1.218657663E1
1.294323008E1,1.186657041E0,1.142387479E1,2.731851897E0,1.180576490E1
1.295319708E1,9.970917714E-1,1.096722830E1,3.577278589E0,1.157891232E1
1.296316308E1,3.700476207E-1,1.111995523E1,4.171196655E0,1.188230706E1
1.297313008E1,-4.105251172E-1,1.154848948E1,4.116541561E0,1.226711272E1
1.298309608E1,-1.149612591E0,1.194110078E1,3.521461068E0,1.250248715E1
1.299306308E1,-1.962430238E0,1.219612007E1,2.908317357E0,1.269073627E1
1.300302908E1,-2.268550396E0,1.225837187E1,2.174233346E0,1.265469448E1
1.301299608E1,-1.790229591E0,1.226116683E1,1.327882648E0,1.246211886E1
1.302296208E1,-8.879850662E-1,1.205250777E1,1.321986754E-1,1.208589830E1
1.303292908E1,-1.488736188E-1,1.154313460E1,-1.222141600E0,1.160860671E1
1.304289508E1,4.633348301E-1,1.097768780E1,-2.087143893E0,1.118393840E1
1.305286208E1,1.434083141E0,1.016858401E1,-2.662777569E0,1.060882084E1
1.306282808E1,2.661454929E0,8.663176239E0,-3.144953005E0,9.592950239E0
1.307279508E1,3.509279856E0,6.386682692E0,-3.769055568E0,8.204300140E0
1.308276108E1,3.928208007E0,2.943249793E0,-4.548408723E0,6.691902525E0
1.309272808E1,3.998360854E0,-2.045161908E0,-4.456430851E0,6.326875428E0
1.310269408E1,3.989264048E0,-8.549164889E0,-2.592985203E0,9.783967509E0
1.311266108E1,4.490380078E0,-1.544244859E1,1.113811259E0,1.612058644E1
1.312262708E1,4.677371111E0,-1.916791667E1,5.311821198E0,2.043287240E1
1.313259408E1,4.847359902E0,-1.917356859E1,6.798481625E0,2.091272299E1
1.314256008E1,4.252784609E0,-1.809423573E1,4.264823149E0,1.907029785E1
1.315252708E1,3.931186579E0,-1.834676528E1,-1.613272526E0,1.883243671E1
1.316249408E1,3.418440145E0,-1.899125007E1,-7.179830014E0,2.058891137E1
1.317246008E1,2.995693178E0,-1.922109125E1,-1.032984788E1,2.202567329E1
1.318242708E1,2.860653779E0,-1.824346720E1,-1.058930521E1,2.128710456E1
1.319239308E1,3.175177555E0,-1.621094581E1,-8.894277497E0,1.876125498E1
1.320236008E1,4.434580683E0,-1.449732687E1,-6.761385720E0,1.659982919E1
1.321232608E1,5.549281889E0,-1.264483072E1,-4.117007876E0,1.440958109E1
1.322229308E1,5.904844640E0,-1.119101878E1,-1.533980481E0,1.274594789E1
1.323225908E1,5.317629822E0,-1.063544442E1,2.496886799E-1,1.189336829E1
1.324222608E1,3.804178038E0,-1.058276100E1,1.253715249E0,1.131540556E1
1.325219208E1,1.754706148E0,-1.097809359E1,1.674160752E0,1.124279088E1
1.326215908E1,-3.369148117E-1,-1.127114902E1,2.112342907E0,1.147232777E1
1.327212508E1,-2.090776622E0,-1.115617172E1,2.774035757E0,1.168446784E1
1.328209208E1,-3.294513672E0,-1.057838846E1,3.319179274E0,1.156603103E1
1.329205808E1,-3.994172786E0,-9.578400559E0,3.608508860E0,1.098728855E1
1.330202508E1,-4.266116846E0,-8.023368639E0,3.853939890E0,9.870514168E0
1.331199108E1,-4.319920000E0,-6.504877725E0,3.807662102E0,8.687544745E0
1.332195808E1,-4.231661543E0,-5.087882195E0,3.617246647E0,7.541748997E0
1.333192408E1,-4.271160069E0,-3.570269532E0,3.509873349E0,6.580945509E0
1.334189108E1,-4.397038343E0,-2.186133599E0,3.241613327E0,5.883976824E0
1.335185708E1,-4.658863211E0,-1.094375407E0,2.814138594E0,5.551760079E0
1.336182408E1,-5.018782724E0,-1.266594619E-1,2.350354697E0,5.543319389E0
1.337179008E1,-5.165440832E0,8.493835026E-1,1.931569219E0,5.579802055E0
1.338175708E1,-5.032847616E0,1.854874799E0,1.731800265E0,5.636421543E0
1.339172308E1,-4.815962108E0,2.777019884E0,1.733682192E0,5.823313868E0
1.340169008E1,-4.625565657E0,3.497529584E0,1.622789162E0,6.021795040E0
1.341165608E1,-4.335560133E0,4.133512520E0,1.484413050E0,6.171425242E0
1.342162308E1,-4.080164863E0,4.811833974E0,1.488959991E0,6.482167335E0
1.343159008E1,-4.190946211E0,5.404382038E0,1.416358476E0,6.984085243E0
1.344155608E1,-4.244161720E0,6.016779644E0,1.356214893E0,7.486912904E0
1.345152308E1,-4.241911127E0,6.663486373E0,1.336493404E0,8.011371622E0
1.346148908E1,-4.436050966E0,7.285482184E0,1.221034430E0,8.616711896E0
1.347145608E1,-4.727758030E0,7.757518548E0,9.693398626E-1,9.136214193E0
1.348142208E1,-4.818504478E0,8.183662455E0,9.576148796E-1,9.545016649E0
1.349138908E1,-4.557494419E0,8.623107609E0,1.095962341E0,9.814778330E0
1.350135508E1,-4.260811667E0,8.969669157E0,1.225517929E0,1.000556720E1
1.351132208E1,-4.073625922E0,9.074123817E0,1.240152486E0,1.002357867E1
1.352128808E1,-4.052180381E0,8.955538775E0,1.233584893E0,9.906743778E0
1.353125508E1,-3.988814982E0,8.808349739E0,9.452445102E-1,9.715511169E0
1.354122108E1,-4.005634498E0,8.443540785E0,3.232084997E-1,9.351093650E0
1.355118808E1,-4.090330832E0,7.773299598E0,-2.203969069E-1,8.786556080E0
1.356115408E1,-4.128240085E0,7.057947727E0,-7.290388875E-1,8.209049276E0
1.357112108E1,-3.795990475E0,5.445538834E0,-2.085250564E0,6.957852168E0
1.358108708E1,-3.031135491E0,2.891015446E0,-3.945393559E0,5.754292572E0
1.359105408E1,-2.313012624E0,-7.137988508E-2,-5.540826230E0,6.004654678E0
1.360102008E1,-1.302563181E0,-3.690730360E0,-6.950001694E0,7.976257580E0
1.361098708E1,4.677947938E-2,-8.049960022E0,-8.084154539E0,1.140866334E1
1.362095308E1,1.332832462E0,-1.349076144E1,-9.379758364E0,1.648505243E1
1.363092008E1,3.059212359E0,-1.976724225E1,-1.017698061E1,2.244267321E1
1.364088608E1,3.705079720E0,-2.567089055E1,-9.735691245E0,2.770389722E1
1.365085308E1,1.618142965E0,-2.963867543E1,-8.367576098E0,3.083967895E1
1.366081908E1,-1.556466241E0,-3.087001719E1,-5.871542408E0,3.146197004E1
1.367078608E1,-3.127903109E0,-3.134299846E1,-3.278542587E0,3.166885176E1
1.368075208E1,-2.024791670E0,-3.120110291E1,-7.731100827E-1,3.127628979E1
1.369071908E1,2.544322336E-1,-2.887008232E1,1.681497838E0,2.892012836E1
1.370068508E1,2.727024728E0,-2.570203516E1,3.036471367E0,2.602405490E1
1.371065208E1,4.762439912E0,-2.212235102E1,3.029713156E0,2.283108430E1
1.372061808E1,4.838626793E0,-1.790363521E1,2.676330538E0,1.873806842E1
1.373058508E1,4.063297400E0,-1.352968987E1,2.278367579E0,1.430922264E1
1.374055208E1,3.258681934E0,-9.697317722E0,1.833450016E0,1.039319575E1
1.375051808E1,2.789400486E0,-6.180154358E0,2.109200029E0,7.100970900E0
1.376048508E1,3.659617326E0,-2.573682375E0,3.499983076E0,5.680362794E0
1.377045108E1,4.598246296E0,1.465146182E0,5.771476668E0,7.523328071E0
1.378041808E1,5.079183877E0,5.220623930E0,7.701965321E0,1.060062700E1
1.379038408E1,5.356536026E0,7.627889285E0,8.549646699E0,1.264806830E1
1.380035108E1,5.650136418E0,8.681114911E0,8.089033456E0,1.314223192E1
1.381031708E1,6.200551785E0,9.291380038E0,6.941639006E0,1.315153746E1
1.382028408E1,7.176950845E0,1.015183758E1,5.401429194E0,1.355521549E1
1.383025008E1,8.351857613E0,1.100532174E1,3.311784593E0,1.420698945E1
1.384021708E1,8.978900156E0,1.133223372E1,1.022076924E0,1.449430268E1
1.385018308E1,9.096286519E0,1.140946140E1,-1.296108732E0,1.464916843E1
1.386015008E1,8.957525659E0,1.154071268E1,-3.108375748E0,1.493610776E1
1.387011608E1,8.707881126E0,1.163501424E1,-4.032893633E0,1.508194222E1
1.388008308E1,8.313164248E0,1.139114909E1,-3.827155549E0,1.461212158E1
1.389004908E1,8.029271988E0,1.082535263E1,-2.408982390E0,1.369162753E1
1.390001608E1,8.045187525E0,1.015431914E1,-2.989962029E-1,1.295857393E1
1.390998208E1,8.053840819E0,9.589290998E0,2.090557936E0,1.269603427E1
1.391994937E1,7.932866605E0,9.258349117E0,4.414966199E0,1.296685496E1
1.392991537E1,7.645309310E0,9.340147571E0,6.426347280E0,1.367432084E1
1.393988237E1,7.211962218E0,9.715235930E0,7.713003695E0,1.434881996E1
1.394984837E1,6.729013780E0,1.012535905E1,8.119517330E0,1.461947619E1
1.395981537E1,6.304913474E0,1.050278279E1,7.886849602E0,1.456924078E1
1.396978137E1,6.015388007E0,1.076005092E1,7.227599427E0,1.428991890E1
1.397974838E1,5.721177165E0,1.087238529E1,6.262420589E0,1.378979846E1
1.398971437E1,5.306831185E0,1.079500558E1,5.146340318E0,1.308355538E1
1.399968137E1,4.860245411E0,1.054648839E1,4.108379140E0,1.231783999E1
1.400964737E1,4.154737620E0,1.036770977E1,3.366523010E0,1.166553589E1
1.401961437E1,3.517915609E0,1.022448573E1,2.834921645E0,1.117822076E1
1.402958037E1,3.049467097E0,9.894978755E0,2.339212243E0,1.061516689E1
1.403954737E1,2.450278350E0,9.612213838E0,2.115657109E0,1.014270792E1
1.404951337E1,1.802884574E0,9.724278064E0,2.119575036E0,1.011457241E1
1.405948037E1,1.400761174E0,9.943204250E0,2.007086009E0,1.024001157E1
1.406944638E1,1.218259049E0,9.974024924E0,1.598491935E0,1.017450268E1
1.407941338E1,1.041744765E0,9.901348711E0,9.261077428E-1,9.998980648E0
1.408937937E1,6.269046946E-1,9.893736806E0,2.171281672E-1,9.915955936E0
1.409934637E1,3.209181453E-1,9.828439779E0,-4.883468798E-1,9.845796038E0
1.410931337E1,5.600895846E-1,9.568175533E0,-1.207187785E0,9.660278760E0
1.411927937E1,8.963787442E-1,8.842006313E0,-1.953054520E0,9.099395169E0
1.412924637E1,1.047017053E0,7.449497752E0,-2.743072996E0,8.007228667E0
1.413921237E1,1.425914581E0,5.468924773E0,-3.611309384E0,6.707005743E0
1.414917937E1,2.254342539E0,2.577947334E0,-4.352127926E0,5.537950002E0
1.415914538E1,2.829544253E0,-8.008223766E-1,-4.562328312E0,5.427934854E0
1.416911238E1,3.156913485E0,-3.620650311E0,-3.983795732E0,6.240660211E0
1.417907837E1,3.808559357E0,-5.256083785E0,-2.774316131E0,7.058921385E0
1.418904537E1,4.998511012E0,-6.744428210E0,-2.179352876E0,8.673061926E0
1.419901137E1,6.690833216E0,-9.312818270E0,-2.496530119E0,1.173577845E1
1.420897837E1,8.713509071E0,-1.314648323E1,-3.163540427E0,1.608611978E1
1.421894437E1,1.053764974E1,-1.748046286E1,-3.486896130E0,2.070669188E1
1.422891137E1,1.141564191E1,-2.008798541E1,-2.799173522E0,2.327400719E1
1.423887737E1,1.138464582E1,-1.972048791E1,-1.360929503E0,2.281139919E1
1.424884438E1,1.154288083E1,-1.830478929E1,-5.024126494E-1,2.164615040E1
1.425881038E1,1.145651746E1,-1.688304465E1,-7.295705456E-1,2.041620097E1
1.426877737E1,1.050962871E1,-1.543016242E1,-1.330842655E0,1.871665969E1
1.427874337E1,9.152445517E0,-1.417841739E1,-2.002205338E0,1.699422269E1
1.428871037E1,7.667242216E0,-1.338343463E1,-2.682539989E0,1.565563625E1
1.429867637E1,6.174929286E0,-1.310867630E1,-3.118042365E0,1.482192074E1
1.430864337E1,4.851776889E0,-1.329158657E1,-3.329016922E0,1.453576163E1
1.431860937E1,3.413011006E0,-1.369671090E1,-3.221987148E0,1.447859575E1
1.432857637E1,1.741611893E0,-1.375044097E1,-2.616473176E0,1.410509733E1
1.433854238E1,-3.644440877E-1,-1.282060504E1,-1.657609624E0,1.293245540E1
1.434850938E1,-2.819815655E0,-1.184408377E1,-1.132457445E0,1.222767928E1
1.435847537E1,-5.103955606E0,-1.121965494E1,-7.920945302E-1,1.235145471E1
1.436844237E1,-7.101905925E0,-1.029191114E1,-3.109984902E-1,1.250828616E1
1.437840837E1,-8.294049700E0,-8.891850318E0,8.985328585E-2,1.215994803E1
1.438837537E1,-8.422395499E0,-7.300134137E0,4.125932774E-1,1.115342717E1
1.439834137E1,-8.052356211E0,-5.685518505E0,7.459480119E-1,9.885443827E0
1.440830837E1,-7.727317679E0,-4.151192161E0,8.827716887E-1,8.816071728E0
1.441827437E1,-7.495620005E0,-2.530971973E0,1.035017397E0,7.978809397E0
1.442824138E1,-7.740729437E0,-9.468103945E-1,1.062551351E0,7.870473780E0
1.443820738E1,-8.426950480E0,1.195141643E-1,6.582329066E-1,8.453463704E0
1.444817437E1,-9.153502108E0,7.429624236E-1,6.265583932E-3,9.183606768E0
1.445814137E1,-9.735007705E0,1.082940592E0,-6.109075896E-1,9.814089027E0
1.446810737E1,-9.910174499E0,1.305465739E0,-9.052916551E-1,1.003670027E1
1.447807437E1,-9.670800015E0,1.533062176E0,-7.703344095E-1,9.821815905E0
1.448804037E1,-9.149221362E0,2.081768401E0,-6.049383134E-3,9.383072407E0
1.449800737E1,-8.496983752E0,2.869980673E0,6.391687909E-1,8.991332420E0
1.450797337E1,-8.100771157E0,3.747461216E0,8.312401772E-1,8.964202091E0
1.451794038E1,-7.862532787E0,4.370741660E0,6.804055484E-1,9.021405444E0
1.452790638E1,-7.769887748E0,4.731242970E0,2.970267145E-1,9.101870166E0
1.453787337E1,-8.205350947E0,4.951387131E0,-3.621904247E-1,9.590370201E0
1.454783937E1,-9.001252307E0,4.961419199E0,-1.024551612E0,1.032898492E1
1.455780637E1,-9.547809681E0,4.957400993E0,-1.426877032E0,1.085230263E1
1.456777237E1,-9.729599031E0,4.984843730E0,-1.468906087E0,1.103047820E1
1.457773937E1,-9.444070135E0,4.876707662E0,-1.321381860E0,1.071068571E1
1.458770537E1,-8.644420125E0,4.414902171E0,-9.427185130E-1,9.752234548E0
1.459767237E1,-7.926029456E0,3.748968628E0,-4.566206186E-1,8.779818398E0
1.460763838E1,-7.077181558E0,2.961338739E0,-2.048301570E-1,7.674502025E0
1.461760538E1,-6.170913418E0,1.906512730E0,-1.668783653E-1,6.460867712E0
1.462757137E1,-5.609418747E0,1.070324054E0,-9.919669792E-2,5.711480741E0
1.463753837E1,-5.064262367E0,1.860619104E-1,-1.952034473E-2,5.067716784E0
1.464750437E1,-4.691923369E0,-1.488408744E0,-2.444089365E-1,4.928411632E0
1.465747137E1,-4.472679094E0,-4.259615327E0,-5.586545317E-1,6.201715561E0
1.466743737E1,-4.621045175E0,-7.398944480E0,-2.291398099E-1,8.726450766E0
1.467740437E1,-4.642960539E0,-1.007237977E1,2.241590054E-1,1.109324858E1
1.468737037E1,-3.979544222E0,-1.254890130E1,-3.426406977E-1,1.316924822E1
1.469733738E1,-2.853076372E0,-1.490389781E1,-1.959000554E0,1.530045417E1
1.470730338E1,-5.966329283E-1,-1.697512894E1,-4.167609973E0,1.748942384E1
1.471727037E1,3.371296384E0,-1.857571067E1,-6.332857318E0,1.991300450E1
1.472723637E1,7.240589601E0,-1.990646679E1,-8.126235781E0,2.268764566E1
1.473720337E1,9.976198919E0,-2.098670246E1,-8.691069796E0,2.480929098E1
1.474716937E1,1.189765245E1,-2.141021629E1,-7.994299207E0,2.576548690E1
1.475713637E1,1.281544546E1,-2.136981905E1,-6.295126405E0,2.570084483E1
1.476710237E1,1.270392268E1,-2.117965122E1,-4.066521847E0,2.503005947E1
1.477706937E1,1.161260186E1,-2.015624581E1,-1.704660999E0,2.332450720E1
1.478703538E1,1.127703366E1,-1.761964414E1,5.396801707E-1,2.092640921E1
1.479700238E1,1.206285501E1,-1.352494426E1,2.351468300E0,1.827473643E1
1.480696837E1,1.323317522E1,-8.781007574E0,3.403633826E0,1.624215945E1
1.481693537E1,1.388666823E1,-3.995632251E0,3.067544349E0,1.477208380E1
1.482690237E1,1.413969362E1,4.298270684E-1,2.080265082E0,1.429836319E1
1.483686837E1,1.357839483E1,4.157762677E0,9.306676939E-2,1.420100201E1
1.484683537E1,1.162265556E1,7.189178542E0,-1.925160524E0,1.380132796E1
1.485680137E1,9.531654409E0,9.293017259E0,-3.077245756E0,1.366316387E1
1.486676837E1,7.948845876E0,1.051120980E1,-3.244573188E0,1.357191723E1
1.487673438E1,6.614850402E0,1.125506567E1,-2.436629487E0,1.328043344E1
1.488670138E1,5.606060691E0,1.210585660E1,-1.009473835E0,1.337904025E1
1.489666737E1,4.681885453E0,1.328639307E1,2.399825943E-1,1.408921161E1
1.490663437E1,3.898395978E0,1.390511619E1,6.859181571E-1,1.445753199E1
1.491660046E1,3.221414121E0,1.337756636E1,3.969721484E-1,1.376569568E1
1.492656746E1,2.486243697E0,1.197943863E1,-6.267133445E-2,1.223487986E1
1.493653346E1,1.655871539E0,1.060616624E1,-1.664256446E-1,1.073593826E1
1.494650046E1,8.815129294E-1,9.684135175E0,1.941743374E-1,9.726111392E0
1.495646646E1,2.012363121E-1,8.922058788E0,1.054564200E0,8.986419461E0
1.496643346E1,-3.056912649E-1,8.475994586E0,2.137895240E0,8.746800983E0
1.497639946E1,-6.510642202E-1,8.370179864E0,3.266289747E0,9.008465145E0
1.498636646E1,-8.835791892E-1,8.273417215E0,4.312835222E0,9.371803042E0
1.499633246E1,-1.137538968E0,8.219585994E0,5.301789715E0,9.847058596E0
1.500629946E1,-1.847728332E0,8.378936069E0,5.984489565E0,1.046110821E1
1.501626546E1,-2.536960399E0,8.475519792E0,5.982647692E0,1.068001298E1
1.502623246E1,-2.711268529E0,8.650953219E0,5.758985846E0,1.074038578E1
1.503619846E1,-2.484920180E0,8.895161011E0,5.195749290E0,1.059691127E1
1.504616546E1,-1.842608803E0,9.267231038E0,4.462559903E0,1.044946023E1
1.505613146E1,-1.340599611E0,9.657264880E0,3.909839272E0,1.050460925E1
1.506609846E1,-9.011817934E-1,9.925608809E0,3.440355510E0,1.054352336E1
1.507606446E1,-3.709156398E-1,1.011775299E1,2.800809281E0,1.050481017E1
1.508603146E1,-3.333611664E-1,1.032203366E1,2.233717071E0,1.056621978E1
1.509599746E1,-8.075422892E-1,1.020780947E1,1.578502497E0,1.036065485E1
1.510596446E1,-1.376906435E0,9.875226860E0,1.243923794E0,1.004805072E1
1.511593046E1,-1.779321464E0,9.642747413E0,1.216672115E0,9.880731429E0
1.512589746E1,-2.334591481E0,9.416019872E0,1.091179318E0,9.762295832E0
1.513586346E1,-2.885476086E0,9.131951610E0,7.572976036E-1,9.606873171E0
1.514583046E1,-3.107598653E0,8.960816472E0,3.640792215E-1,9.491362121E0
1.515579646E1,-3.097878534E0,8.953106918E0,3.357914154E-1,9.479859217E0
1.516576346E1,-2.799671120E0,8.997924657E0,8.324330091E-1,9.460113701E0
1.517572946E1,-2.271854365E0,8.937395450E0,1.386014789E0,9.325202233E0
1.518569646E1,-1.836989628E0,8.755712519E0,1.631969583E0,9.093973682E0
1.519566246E1,-1.144388981E0,8.369558889E0,1.348237975E0,8.554349056E0
1.520562946E1,-5.492131788E-1,7.154685232E0,5.100374186E-1,7.193837227E0
1.521559546E1,-1.283770815E-1,5.145257413E0,-8.088756005E-1,5.210032079E0
1.522556246E1,3.001826030E-1,2.257829819E0,-2.497610099E0,3.380230953E0
1.523552846E1,7.488646030E-1,-1.310607195E0,-3.717334607E0,4.012114903E0
1.524549546E1,1.203658698E0,-4.916686830E0,-3.925101382E0,6.405390269E0
1.525546146E1,2.118519613E0,-8.087003303E0,-3.315303447E0,8.993274416E0
1.526542846E1,3.149408584E0,-1.032764932E1,-2.309136505E0,1.104134169E1
1.527539446E1,3.864064929E0,-1.155987284E1,-1.474996109E0,1.227751080E1
1.528536146E1,4.255066777E0,-1.336118013E1,-1.542550014E0,1.410695531E1
1.529532846E1,4.786667558E0,-1.574550393E1,-2.467722349E0,1.664099558E1
1.530529446E1,5.009897879E0,-1.769025979E1,-3.329722681E0,1.868505877E1
1.531526146E1,4.296012197E0,-1.834780960E1,-3.596304844E0,1.918414049E1
1.532522746E1,3.243294109E0,-1.789354175E1,-3.474216735E0,1.851399403E1
1.533519446E1,2.547380137E0,-1.699139005E1,-3.036997032E0,1.744763114E1
1.534516046E1,2.422603186E0,-1.592014623E1,-2.164019722E0,1.624817047E1
1.535512746E1,2.827931006E0,-1.452135191E1,-8.015366140E-1,1.481584679E1
1.536509346E1,3.296720411E0,-1.270760175E1,5.682789025E-1,1.314056500E1
1.537506046E1,3.233205908E0,-1.100090709E1,9.400366876E-1,1.150466193E1
1.538502646E1,2.845846290E0,-9.816664656E0,2.694853055E-1,1.022440064E1
1.539499346E1,2.543412801E0,-8.711319873E0,-5.486503842E-1,9.091592812E0
1.540495946E1,2.177681449E0,-7.536392055E0,-1.190448668E0,7.934523913E0
1.541492646E1,1.612485199E0,-6.381580997E0,-1.482630526E0,6.747064384E0
1.542489246E1,9.477453643E-1,-5.209396107E0,-1.607687412E0,5.533596289E0
1.543485946E1,3.881519160E-1,-4.140306984E0,-1.765987766E0,4.517910648E0
1.544482546E1,1.506067336E-2,-3.176654854E0,-1.806154629E0,3.654251966E0
1.545479246E1,-2.474187908E-1,-2.340345141E0,-1.710483802E0,2.909327461E0
1.546475846E1,-5.001325276E-1,-1.497052099E0,-1.495211541E0,2.174156177E0
1.547472546E1,-1.039565069E0,-4.418659008E-1,-1.502646714E0,1.879863866E0
1.548469146E1,-1.737839854E0,5.158004344E-1,-1.439392413E0,2.314732806E0
1.549465846E1,-2.439604843E0,1.008188033E0,-1.015226326E0,2.828214877E0
1.550462446E1,-3.032819489E0,1.211557117E0,-9.583818881E-1,3.403580547E0
1.551459146E1,-3.351221724E0,1.583023710E0,-8.209278814E-1,3.796126143E0
1.552455746E1,-3.557277896E0,2.195091534E0,-1.737159531E-1,4.183638381E0
1.553452446E1,-3.463092408E0,2.758487719E0,5.012584090E-1,4.455729291E0
1.554449046E1,-3.104360465E0,3.404136102E0,9.560668293E-1,4.705237537E0
1.555445746E1,-2.647539725E0,3.902950959E0,1.219441502E0,4.871296579E0
1.556442346E1,-2.181521316E0,4.364270546E0,1.458724769E0,5.092521046E0
1.557439046E1,-1.686795708E0,4.942785292E0,1.550340260E0,5.447931821E0
1.558435646E1,-1.455258540E0,5.449593878E0,1.465404629E0,5.827800750E0
1.559432346E1,-1.506985641E0,6.061480438E0,1.293124459E0,6.378457626E0
1.560428946E1,-1.393152631E0,6.645879237E0,1.152164754E0,6.887384751E0
1.561425646E1,-1.403514190E0,7.172872996E0,1.023152812E0,7.380162653E0
1.562422246E1,-1.412781442E0,7.709279603E0,7.327030452E-1,7.871835692E0
1.563418946E1,-1.542952157E0,8.313684066E0,2.474693692E-1,8.459272143E0
1.564415546E1,-1.933252632E0,8.786378242E0,-3.123583332E-1,9.001970677E0
1.565412246E1,-2.370062153E0,8.990681711E0,-8.740042274E-1,9.338813395E0
1.566408846E1,-2.585702496E0,9.112813674E0,-1.291747001E0,9.560221795E0
1.567405546E1,-2.612923624E0,9.065562909E0,-1.574257418E0,9.565045067E0
1.568402146E1,-2.447417308E0,8.840412362E0,-1.830599499E0,9.353814020E0
1.569398846E1,-2.076868727E0,8.190617718E0,-2.168115989E0,8.723550267E0
1.570395546E1,-1.631133724E0,6.614904197E0,-2.886003213E0,7.399092465E0
1.571392146E1,-1.046781995E0,3.970841226E0,-4.084078989E0,5.791634810E0
1.572388846E1,-2.498620498E-1,1.168215215E-1,-5.372417064E0,5.379492859E0
1.573385446E1,1.799923836E0,-5.884248993E0,-6.375433234E0,8.860601613E0
1.574382146E1,5.561906612E0,-1.604287929E1,-9.034000808E0,1.923335518E1
1.575378746E1,8.019066843E0,-2.496064095E1,-9.482943009E0,2.787947700E1
1.576375446E1,7.056802257E0,-2.811842509E1,-6.819250935E0,2.978164655E1
1.577372046E1,7.000292426E0,-3.017409795E1,-3.837643700E0,3.121230191E1
1.578368746E1,6.527477213E0,-3.042686139E1,-7.570109439E-1,3.112836196E1
1.579365346E1,5.691650480E0,-2.771708390E1,1.897767927E0,2.835900471E1
1.580362046E1,4.552278703E0,-2.387776234E1,4.385823091E0,2.470032834E1
1.581358646E1,3.735299592E0,-2.039533144E1,6.045187172E0,2.159783081E1
1.582355346E1,3.425088722E0,-1.667671980E1,6.275989053E0,1.814475833E1
1.583351946E1,2.245623171E0,-1.198316915E1,5.954736593E0,1.356827381E1
1.584348646E1,1.684582245E0,-8.388987433E0,3.409748552E0,9.210825841E0
1.585345246E1,2.408830362E0,-7.805700189E0,-2.652601075E-1,8.173235717E0
1.586341946E1,1.471590690E0,-3.772208971E0,-3.178335929E0,5.147519690E0
1.587338546E1,1.355087257E0,9.430325085E-1,-5.919182013E0,6.145102724E0
1.588335246E1,1.535135599E0,3.693522406E0,-6.147106479E0,7.333871224E0
1.589331846E1,1.766463437E0,5.529969120E0,-5.482005579E0,7.984568662E0
1.590328546E1,2.424662576E0,7.398252169E0,-3.913344970E0,8.713632573E0
1.591325146E1,2.152335816E0,9.426715599E0,-2.004279345E0,9.874849474E0
1.592321913E1,1.249348548E0,1.142565234E1,1.861860175E-1,1.149526287E1
1.593318513E1,3.088034454E-1,1.299775229E1,2.126624001E0,1.317419651E1
1.594315212E1,1.919822162E-1,1.383821469E1,3.514535626E0,1.427883061E1
1.595311812E1,7.272594336E-1,1.341127673E1,3.691737835E0,1.392911261E1
1.596308512E1,4.298127428E-1,1.179780306E1,3.308429461E0,1.226044867E1
1.597305112E1,-4.987946847E-1,1.021661655E1,2.869425187E0,1.062363642E1
1.598301812E1,-1.836397013E0,9.148929586E0,2.089203136E0,9.562428368E0
1.599298412E1,-3.256267327E0,8.627705859E0,1.345928471E0,9.319447877E0
1.600295112E1,-4.332899357E0,8.374418510E0,8.864928567E-1,9.470521201E0
1.601291713E1,-5.127200042E0,8.373040906E0,6.933312571E-1,9.842596330E0
1.602288413E1,-5.560884519E0,8.603729936E0,7.692982829E-1,1.027323831E1
1.603285012E1,-5.741802049E0,8.939351344E0,1.064927513E0,1.067775088E1
1.604281712E1,-5.568865968E0,9.194090556E0,1.672691932E0,1.087848646E1
1.605278312E1,-5.092419634E0,9.459713191E0,2.328850100E0,1.099283649E1
1.606275012E1,-4.602649834E0,9.829049059E0,2.921867695E0,1.123974652E1
1.607271612E1,-4.091980624E0,1.004939203E1,3.243400236E0,1.132493844E1
1.608268312E1,-3.512573301E0,1.021723752E1,3.360483713E0,1.131472335E1
1.609264912E1,-2.880541621E0,1.025574260E1,3.191995025E0,1.112054894E1
1.610261613E1,-1.956061743E0,1.023462831E1,2.783763478E0,1.078532027E1
1.611258213E1,-1.027067815E0,1.031019889E1,2.186380352E0,1.058939699E1
1.612254912E1,-5.112515929E-1,1.055470840E1,1.646487050E0,1.069458589E1
1.613251512E1,-3.482069546E-1,1.088519420E1,1.178142545E0,1.095430147E1
1.614248212E1,-3.731666717E-1,1.092299177E1,6.179816242E-1,1.094682163E1
1.615244812E1,-4.332164070E-1,1.052383744E1,1.203942434E-1,1.053343846E1
1.616241512E1,-7.379393730E-1,9.909187489E0,-1.132779627E-1,9.937272417E0
1.617238112E1,-1.100701217E0,9.451524165E0,-3.477799617E-2,9.515464346E0
1.618234812E1,-1.405464236E0,9.211959062E0,1.335598341E-1,9.319514886E0
1.619231413E1,-1.935816344E0,8.982197986E0,1.394291961E-1,9.189488891E0
1.620228113E1,-2.229437201E0,8.648304430E0,2.238387242E-3,8.931044998E0
1.621224712E1,-2.176031950E0,8.487611250E0,-5.134673953E-2,8.762265475E0
1.622221412E1,-1.920703630E0,8.308665401E0,1.844204508E-2,8.527799440E0
1.623218012E1,-1.512546928E0,8.057219340E0,7.161662422E-2,8.198274858E0
1.624214712E1,-9.601154414E-1,7.639756209E0,-2.353562772E-1,7.703446578E0
1.625211412E1,-5.783937085E-1,6.866401713E0,-9.582124650E-1,6.957023997E0
1.626208012E1,-3.532034004E-1,5.080865536E0,-2.129834268E0,5.520520016E0
1.627204712E1,-9.884835005E-2,2.195749930E0,-3.598837273E0,4.216956067E0
1.628201313E1,3.284840038E-1,-1.494505636E0,-4.648780857E0,4.894140609E0
1.629198013E1,1.126254719E0,-5.891378503E0,-5.265769697E0,7.981548776E0
1.630194612E1,2.157285484E0,-1.043886570E1,-5.662373471E0,1.207005680E1
1.631191312E1,3.659343968E0,-1.415351176E1,-5.414245706E0,1.558931525E1
1.632187912E1,6.443721696E0,-1.686988842E1,-4.865569886E0,1.870263230E1
1.633184612E1,9.753749785E0,-1.889613107E1,-4.276135465E0,2.169066018E1
1.634181212E1,1.226030379E1,-2.041197028E1,-3.409550039E0,2.405386894E1
1.635177912E1,1.297697011E1,-1.998108194E1,-2.025172032E0,2.391122562E1
1.636174512E1,1.167189964E1,-1.692369684E1,1.390868416E-1,2.055879620E1
1.637171213E1,9.766750485E0,-1.335029963E1,2.266096612E0,1.669596086E1
1.638167813E1,7.738867684E0,-1.060912259E1,3.567914858E0,1.360784963E1
1.639164512E1,5.696405436E0,-8.871865704E0,4.188739179E0,1.134480374E1
1.640161112E1,4.082541756E0,-8.335609370E0,3.659513538E0,9.977052175E0
1.641157812E1,3.097731476E0,-8.830838715E0,2.362604029E0,9.652023131E0
1.642154412E1,2.673317760E0,-9.550970685E0,7.486321762E-1,9.946261560E0
1.643151112E1,2.610105266E0,-1.000488302E1,-7.271647087E-1,1.036528351E1
1.644147712E1,2.888858408E0,-1.001958760E1,-1.641771855E0,1.055618555E1
1.645144412E1,3.210424279E0,-9.510446557E0,-1.938480628E0,1.022316609E1
1.646141013E1,3.148784686E0,-8.514375125E0,-1.792627388E0,9.253266543E0
1.647137713E1,2.909792610E0,-7.139442126E0,-1.566198932E0,7.867115481E0
1.648134312E1,2.685965288E0,-6.074483476E0,-1.390595351E0,6.785831892E0
1.649131012E1,1.692405235E0,-5.161950629E0,-8.843349418E-1,5.503818499E0
1.650127612E1,3.570198780E-1,-3.765402812E0,-3.834674191E-1,3.801679733E0
1.651124312E1,-8.909151059E-1,-2.674155082E0,-4.274228396E-1,2.850881515E0
1.652120912E1,-2.358239375E0,-1.893928937E0,-8.386605862E-1,3.138727664E0
1.653117612E1,-3.913625051E0,-1.270998741E0,-1.382629105E0,4.340917194E0
1.654114212E1,-5.495861726E0,-6.036484176E-1,-1.681240707E0,5.778880328E0
1.655110913E1,-6.918620857E0,1.313810885E-2,-1.983368533E0,7.197307685E0
1.656107513E1,-7.788336298E0,7.465526140E-1,-2.106322614E0,8.102599462E0
1.657104212E1,-7.831591660E0,1.663540455E0,-2.054578264E0,8.265741747E0
1.658100812E1,-7.250540392E0,2.618580805E0,-1.837255969E0,7.924822453E0
1.659097512E1,-6.410271530E0,3.508120646E0,-1.417735934E0,7.443686367E0
1.660094112E1,-5.527072409E0,4.131135042E0,-8.720911646E-1,6.955238972E0
1.661090812E1,-4.727674415E0,4.447435495E0,-4.380992706E-1,6.505575979E0
