"Time (s)","Linear Acceleration x (m/s^2)","Linear Acceleration y (m/s^2)","Linear Acceleration z (m/s^2)","Absolute acceleration (m/s^2)"
4.967083223E-4,-1.751119612E0,4.763805529E0,5.256225872E0,7.306721114E0
1.046270831E-2,-3.398764557E0,6.135458826E0,4.312227988E0,8.233514787E0
2.042970830E-2,-5.934591181E0,1.053815610E1,3.539875120E0,1.260169919E1
3.039570828E-2,-5.930901003E0,1.383211721E1,3.229106133E0,1.539253650E1
4.036270827E-2,-3.768758822E0,1.539984929E1,3.026034672E0,1.614050145E1
5.032970826E-2,-8.822946290E-1,1.471777392E1,2.171879257E0,1.490330072E1
6.029570824E-2,7.343743987E-1,1.191434626E1,7.241262031E-1,1.195890092E1
7.026270824E-2,2.797609100E-1,9.891758108E0,-1.033385439E0,9.949524114E0
8.022870834E-2,-6.541619289E-1,9.252225913E0,-2.396027591E0,9.579799601E0
9.019570833E-2,2.417607325E-1,1.005178354E1,-3.209669988E0,1.055456214E1
1.001617083E-1,2.345561150E0,1.122273642E1,-2.231129093E0,1.168029995E1
1.101287083E-1,3.365615814E0,1.119550243E1,-6.512418294E-1,1.170857636E1
1.200957083E-1,3.879572329E0,1.091654346E1,5.296641827E-1,1.159752330E1
1.300617083E-1,3.277155043E0,1.086204975E1,1.542308378E0,1.145000372E1
1.400287083E-1,2.233443129E0,1.077419417E1,2.079949332E0,1.119811222E1
1.499947082E-1,1.625323199E0,1.069983863E1,1.630482198E0,1.094471080E1
1.599617082E-1,1.618038153E0,1.041963538E1,4.118826945E-1,1.055255876E1
1.699287083E-1,2.225900513E0,1.007749024E1,-8.073952317E-1,1.035192396E1
1.798947083E-1,1.885238075E0,9.525480918E0,-1.552439264E0,9.833563799E0
1.898617083E-1,1.105286749E0,8.543855032E0,-2.781943824E0,9.053083953E0
1.998277083E-1,6.367021430E-1,7.064791893E0,-4.912491453E0,8.628397672E0
2.097947083E-1,8.215949026E-1,4.722880867E0,-8.189271104E0,9.489192963E0
2.197617083E-1,1.853077511E0,7.958861572E-1,-1.190996084E1,1.207950737E1
2.297277083E-1,4.697153703E0,-5.415145007E0,-1.385402322E1,1.559875020E1
2.396947083E-1,8.150035118E0,-1.740266332E1,-9.290644459E0,2.134459738E1
2.496607082E-1,5.247125850E0,-4.493478108E1,5.436161070E0,4.556554320E1
2.596277082E-1,2.591880080E0,-5.708684355E1,6.389812707E0,5.750178480E1
2.695947083E-1,2.662510644E0,-3.872466851E1,6.621610661E-1,3.882173839E1
2.795607083E-1,-2.751170513E-1,-2.179831236E1,-2.030232797E0,2.189438185E1
2.895277083E-1,-4.201812091E-1,-1.209174961E1,-1.610594501E0,1.220577632E1
2.994937083E-1,2.837609902E-1,-7.017376821E0,1.846070208E0,7.261685270E0
3.094607083E-1,-5.177700689E-1,-4.455507576E0,4.069358331E0,6.056344676E0
3.194267083E-1,-7.090374631E-1,-3.242405625E0,4.668657882E0,5.728201706E0
3.293937083E-1,7.890174329E-2,-3.628802499E0,4.736396706E0,5.967234437E0
3.393607083E-1,4.871341673E-1,-5.700366924E0,6.344247694E0,8.542889533E0
3.493267082E-1,1.239830451E0,-7.984251936E0,4.865486856E0,9.431777185E0
3.592937083E-1,2.652462204E0,-9.915382029E0,1.111638726E0,1.032405430E1
3.692597083E-1,3.063120345E0,-1.069782719E1,-1.215975273E-1,1.112838707E1
3.792267083E-1,2.719035385E0,-9.677188683E0,-1.093080833E0,1.011117995E1
3.891937083E-1,2.499628851E0,-7.477739804E0,-1.754686267E0,8.077354818E0
3.991597083E-1,1.967965212E0,-4.815515381E0,-1.924228624E0,5.546596367E0
4.091267083E-1,1.592699975E0,-2.778760600E0,-1.910160223E0,3.729197737E0
4.190927083E-1,1.504469584E0,-1.557918690E0,-1.784804106E0,2.806432801E0
4.290597083E-1,1.270436532E0,-8.431913012E-1,-1.562467239E0,2.183182178E0
4.390267082E-1,9.343558252E-1,-3.225277376E-1,-1.216807916E0,1.567694630E0
4.489927082E-1,2.914477399E-1,1.174740708E-1,-4.946428692E-1,5.860149405E-1
4.589597083E-1,-2.039520514E-1,4.413536847E-1,-6.121113852E-2,4.900370575E-1
4.689257083E-1,-6.735720536E-1,8.364623255E-1,2.714488006E-1,1.107724237E0
4.788927083E-1,-1.127049648E0,1.442961845E0,7.210960297E-1,1.967831110E0
4.888597083E-1,-1.972489496E0,2.183984163E0,9.755225623E-1,3.100346094E0
4.988257083E-1,-2.626120790E0,3.086252807E0,1.070876616E0,4.191448857E0
5.087927083E-1,-2.528005973E0,4.117327427E0,1.125454527E0,4.960831304E0
5.187587083E-1,-2.230647575E0,5.112014238E0,1.087437247E0,5.682516867E0
5.287257083E-1,-1.923073214E0,5.645621783E0,1.110884435E0,6.066738838E0
5.386927082E-1,-1.418014992E0,5.807702508E0,1.101491468E0,6.078935630E0
5.486587083E-1,-5.898638991E-1,5.611188700E0,9.184982494E-1,5.716381467E0
5.586257083E-1,-2.715710074E-2,5.007215762E0,5.368107227E-1,5.035981825E0
5.685917083E-1,-1.068169355E-2,4.321099969E0,1.230626933E-1,4.322865191E0
5.785587083E-1,-2.132587722E-1,3.998071125E0,-2.529365158E-1,4.011736395E0
5.885247083E-1,-3.828400129E-1,3.890492297E0,-6.323751303E-1,3.960100389E0
5.984917083E-1,-5.089600691E-1,3.884284308E0,-9.572313023E-1,4.032740595E0
6.084587083E-1,-7.110556296E-1,3.823514196E0,-1.112048031E0,4.044936555E0
6.184247083E-1,-7.288615707E-1,3.706503224E0,-1.169718973E0,3.954446588E0
6.283917082E-1,-5.433042750E-1,3.552578781E0,-1.188079230E0,3.785172094E0
6.383577083E-1,-3.097612193E-1,3.276834615E0,-1.093795363E0,3.468426935E0
6.483247083E-1,1.474521607E-2,2.830981498E0,-8.027923036E-1,2.942643225E0
6.582917083E-1,2.859124732E-1,2.385005590E0,-3.226914597E-1,2.423659915E0
6.682568333E-1,6.248089063E-1,2.046087522E0,2.461995001E-1,2.153479629E0
6.782238333E-1,9.251508459E-1,1.699291500E0,8.145383365E-1,2.099278065E0
6.881898333E-1,1.119097727E0,1.536788022E0,1.068749545E0,2.180899525E0
6.981568333E-1,1.263049452E0,1.559171748E0,1.132078399E0,2.303890614E0
7.081238333E-1,1.204746864E0,1.702630845E0,9.815523572E-1,2.305170673E0
7.180898333E-1,9.263916251E-1,2.004569367E0,7.029206908E-1,2.317454916E0
7.280568333E-1,5.892420477E-1,2.691876823E0,2.164216773E-1,2.764099376E0
7.380228332E-1,1.704624161E-1,3.667470721E0,-4.008956301E-1,3.693252798E0
7.479898332E-1,-3.322320691E-1,4.712913119E0,-1.028880744E0,4.835341125E0
7.579568333E-1,-8.745490417E-1,5.572106495E0,-1.605623199E0,5.864403863E0
7.679228333E-1,-1.432919545E0,6.055596385E0,-1.895483712E0,6.505102959E0
7.778898333E-1,-2.092352446E0,6.448121141E0,-1.845981184E0,7.025941328E0
7.878558333E-1,-2.464399376E0,6.791504728E0,-1.272842076E0,7.336070317E0
7.978228333E-1,-2.295380053E0,6.754950859E0,3.538734913E-2,7.134380349E0
8.077898333E-1,-2.026828548E0,6.276967877E0,1.701808727E0,6.812085777E0
8.177558333E-1,-1.906912972E0,4.928250868E0,3.325207461E0,6.243474863E0
8.277228333E-1,-1.558067209E0,2.039866669E0,4.032473803E0,4.780112386E0
8.376888332E-1,-1.036407280E0,-1.658723518E0,4.109321127E0,4.551046460E0
8.476558332E-1,-1.758045785E0,-4.574283822E0,3.123500741E0,5.811286806E0
8.576218333E-1,-2.584226074E0,-6.724430732E0,1.641804746E0,7.388620703E0
8.675888333E-1,-1.521054626E0,-9.152399908E0,1.873607085E0,9.465222383E0
8.775558333E-1,-5.292867449E-1,-1.149272692E1,4.152643440E0,1.223140892E1
8.875218333E-1,1.001390060E0,-1.196809503E1,4.710128675E0,1.290051909E1
8.974888333E-1,2.194554759E0,-1.127749092E1,3.720630097E0,1.207646307E1
9.074548333E-1,2.450818633E0,-1.168374026E1,1.972228417E0,1.209983402E1
9.174218333E-1,2.882984295E0,-1.322899680E1,1.272701451E0,1.359918100E1
9.273888333E-1,3.595883552E0,-1.533392076E1,2.188781219E0,1.590126623E1
9.373548332E-1,3.123991322E0,-1.640705557E1,2.847101687E0,1.694275014E1
9.473218333E-1,2.823373978E0,-1.674396863E1,2.295076729E0,1.713473966E1
9.572878333E-1,2.642422242E0,-1.733189330E1,1.513356621E0,1.759736255E1
9.672548333E-1,3.405817761E0,-1.845558547E1,1.755807910E0,1.884916686E1
9.772218333E-1,4.571742037E0,-2.064932045E1,2.414290785E0,2.128671089E1
9.871878333E-1,3.757109414E0,-2.317415051E1,1.044276463E0,2.349994971E1
9.971548333E-1,2.914678836E0,-2.507109018E1,-2.107477585E-1,2.524082665E1
1.007120833E0,3.444953175E0,-2.235928020E1,3.859806255E-1,2.262640260E1
1.017087833E0,3.912697683E0,-1.584733904E1,8.822653929E-1,1.634704102E1
1.027054833E0,3.770741613E0,-8.808677183E0,3.511440841E-1,9.588252614E0
1.037020833E0,2.728297082E0,-3.441743639E0,-5.059583279E-1,4.420995145E0
1.046987833E0,2.142569065E0,-8.742172122E-3,-1.205012840E0,2.458197423E0
1.056953833E0,1.987478833E0,2.523314459E0,-2.014345912E0,3.791408369E0
1.066920833E0,1.917787331E0,4.682581272E0,-3.068284314E0,5.917672198E0
1.076887833E0,1.761435708E0,6.656804760E0,-3.904474744E0,7.915846663E0
1.086853833E0,1.424933564E0,8.594245167E0,-4.534791727E0,9.821192477E0
1.096820833E0,1.183822165E0,1.044908898E1,-5.032628345E0,1.165814065E1
1.106786833E0,1.022679918E0,1.203017024E1,-5.614805202E0,1.331528850E1
1.116753833E0,6.269234057E-1,1.323040130E1,-6.193792988E0,1.462188849E1
1.126720833E0,2.016561422E-1,1.426986784E1,-6.624229921E0,1.573372860E1
1.136686833E0,3.434544839E-1,1.524268782E1,-6.673602641E0,1.664315070E1
1.146653833E0,9.488751926E-1,1.616586260E1,-5.971536813E0,1.725962716E1
1.156619833E0,1.214006515E0,1.676670494E1,-4.437050840E0,1.738630572E1
1.166586833E0,4.258955468E-1,1.686189060E1,-2.659802506E0,1.707569298E1
1.176553833E0,-1.349562223E0,1.600518229E1,-1.329296505E0,1.611689199E1
1.186519833E0,-2.839897918E0,1.431197481E1,-7.006460508E-1,1.460782489E1
1.196486833E0,-3.197602504E0,1.228944280E1,-4.401175833E-1,1.270624923E1
1.206452833E0,-3.118856297E0,1.087960075E1,-1.268166058E-1,1.131852727E1
1.216419833E0,-3.088957729E0,9.877942307E0,3.718115795E-1,1.035633371E1
1.226386833E0,-2.940350159E0,9.224747508E0,7.649560674E-1,9.712197662E0
1.236352833E0,-2.507947392E0,8.796366456E0,1.093805888E0,9.212072202E0
1.246319833E0,-1.721342812E0,8.570583240E0,1.581126873E0,8.883573624E0
1.256285833E0,-8.431727363E-1,8.447667750E0,2.104823242E0,8.746674314E0
1.266252833E0,-1.884507903E-1,8.333960456E0,2.553971411E0,8.718553810E0
1.276218833E0,-7.756580070E-2,7.999023757E0,3.417330344E0,8.698766820E0
1.286185833E0,-3.982043029E-1,7.683744228E0,4.814655840E0,9.076309982E0
1.296152833E0,-7.961099593E-1,7.622093525E0,6.023856529E0,9.747663733E0
1.306118833E0,-5.419379269E-1,8.431932308E0,6.414105549E0,1.060810677E1
1.316085833E0,-3.511137517E-1,9.451204323E0,5.393024991E0,1.088729822E1
1.326051833E0,-2.304589418E-1,1.031663785E1,3.812777538E0,1.100106360E1
1.336018833E0,1.813996330E-1,1.099140069E1,2.394002116E0,1.125055736E1
1.345985833E0,7.357874514E-1,1.143274034E1,1.243093489E0,1.152363728E1
1.355951833E0,1.176915580E0,1.185681550E1,5.647357821E-2,1.191521688E1
1.365918833E0,1.343446913E0,1.224766912E1,-1.454567399E0,1.240669234E1
1.375884833E0,1.489516061E0,1.250455251E1,-3.485848017E0,1.306650787E1
1.385851833E0,1.623929515E0,1.240395818E1,-5.485470639E0,1.365963813E1
1.395817833E0,1.792571547E0,1.182533877E1,-6.828342186E0,1.377237114E1
1.405784833E0,1.929154903E0,1.096926547E1,-7.307140270E0,1.332068776E1
1.415751833E0,1.511520449E0,9.802243668E0,-6.878344066E0,1.206980912E1
1.425717833E0,1.134024353E0,8.467652948E0,-6.148677042E0,1.052584377E1
1.435684833E0,1.637607176E0,6.677057176E0,-6.141732888E0,9.218770670E0
1.445650833E0,3.309776367E0,3.875133415E0,-7.541752782E0,9.102159832E0
1.455617833E0,5.981830251E0,-1.137273504E0,-9.612621388E0,1.137884766E1
1.465584833E0,9.377060459E0,-1.338658745E1,-6.235616367E0,1.749322434E1
1.475550833E0,2.691058505E0,-4.160105890E1,4.736248187E0,4.195619078E1
1.485517833E0,-8.825726495E0,-5.009867240E1,6.319119869E0,5.126111294E1
1.495483833E0,-5.777223312E0,-3.132261741E1,4.421805979E0,3.215641520E1
1.505450833E0,-1.674903349E0,-1.599681492E1,9.786217327E-1,1.611400290E1
1.515417833E0,7.667027038E-1,-8.677170380E0,-2.636964451E0,9.101357061E0
1.525383833E0,1.483066143E0,-7.466472219E0,-3.866497078E0,8.538002825E0
1.535350833E0,2.516083792E0,-9.463774667E0,-8.234717126E-1,9.827095922E0
1.545316833E0,3.566990121E0,-1.175350923E1,1.840294328E0,1.241994690E1
1.555283833E0,4.661992056E0,-1.355353949E1,2.617266351E0,1.456992401E1
1.565250833E0,4.594597341E0,-1.366094115E1,3.567456436E0,1.484784103E1
1.575216833E0,3.300388954E0,-1.039353809E1,3.460519048E0,1.144086506E1
1.585183833E0,1.143736432E0,-5.922552933E0,3.478617642E0,6.963156394E0
1.595149833E0,-5.458410895E-1,-2.892853226E0,3.918287036E0,4.900970882E0
1.605116833E0,-1.689285160E0,-2.164842718E0,3.766797373E0,4.661436559E0
1.615083833E0,-2.485419532E0,-2.958585870E0,2.590490781E0,4.652008500E0
1.625049833E0,-1.960816991E0,-3.279218525E0,1.317805995E0,4.041619731E0
1.635016833E0,-9.161715692E-1,-3.552553053E0,4.935973871E-1,3.701843043E0
1.644982833E0,1.180801347E-1,-4.127529064E0,1.089465646E-1,4.130654724E0
1.654949833E0,9.626820767E-1,-4.527689699E0,-3.224248266E-1,4.640117300E0
1.664916833E0,1.749813490E0,-4.624245940E0,-6.609283268E-1,4.988218522E0
1.674882833E0,2.245586626E0,-4.152440541E0,-6.505520041E-1,4.765358292E0
1.684849833E0,2.323182102E0,-3.083881761E0,-5.524599914E-1,3.900347912E0
1.694815833E0,2.201717891E0,-1.889865707E0,-6.178659225E-1,2.966633169E0
1.704782833E0,1.677109211E0,-6.892978477E-1,-8.230622613E-1,1.991295637E0
1.714748833E0,9.988354111E-1,3.533226836E-1,-8.660977685E-1,1.368442341E0
1.724715833E0,5.428595942E-1,1.228546202E0,-8.628009622E-1,1.596385858E0
1.734682833E0,1.110725391E-1,1.927898337E0,-6.402783000E-1,2.034474234E0
1.744648833E0,-3.913444957E-1,2.420682961E0,-5.815079355E-1,2.520120630E0
1.754615833E0,-6.726867852E-1,2.765716631E0,-4.311657885E-1,2.878819191E0
1.764581833E0,-9.053472036E-1,2.856801049E0,-1.806485581E-1,3.002265760E0
1.774548833E0,-1.073783852E0,2.916390608E0,-1.324540526E-2,3.107816175E0
1.784515833E0,-1.120687000E0,2.980428729E0,2.343447089E-2,3.184249352E0
1.794481833E0,-1.162241992E0,3.184563798E0,-4.708631203E-2,3.390349562E0
1.804448833E0,-1.287034438E0,3.496991056E0,-5.406788751E-2,3.726704633E0
1.814414833E0,-1.387535211E0,3.912395382E0,-4.619768143E-2,4.151412508E0
1.824381833E0,-1.567816857E0,4.307732649E0,7.180892453E-2,4.584731921E0
1.834348833E0,-1.617755879E0,4.573509650E0,2.237659264E-1,4.856356226E0
1.844314833E0,-1.567756630E0,4.684422560E0,4.374829741E-1,4.959139737E0
1.854281833E0,-1.526658306E0,4.546663914E0,7.235637009E-1,4.850400268E0
1.864247833E0,-1.505011621E0,4.175501375E0,9.652408183E-1,4.542197877E0
1.874214833E0,-1.347748709E0,3.865255129E0,1.066486234E0,4.230131994E0
1.884180833E0,-1.086522011E0,3.929663379E0,9.971104825E-1,4.197262640E0
1.894147833E0,-9.409620094E-1,4.281562850E0,8.356457618E-1,4.462677872E0
1.904114833E0,-8.476477566E-1,4.798117576E0,5.317823365E-1,4.901349961E0
1.914080833E0,-8.773068810E-1,5.322679478E0,3.095761549E-1,5.403371316E0
1.924047833E0,-9.113961482E-1,5.806714329E0,2.507370856E-1,5.883149099E0
1.934013833E0,-8.619336739E-1,6.260330794E0,3.046928528E-1,6.326729727E0
1.943980833E0,-8.129576880E-1,6.619278499E0,3.790197346E-1,6.679775745E0
1.953947833E0,-9.105538568E-1,6.751575261E0,4.814068195E-1,6.829687355E0
1.963913833E0,-1.127569465E0,6.607956535E0,6.793296607E-1,6.737803148E0
1.973880833E0,-1.056869319E0,6.371217391E0,8.562292765E-1,6.514791814E0
1.983846833E0,-6.527986506E-1,5.809018716E0,7.433422002E-1,5.892656629E0
1.993813833E0,-4.983330470E-1,4.758662903E0,4.893461689E-1,4.809643243E0
2.003780833E0,-9.060786903E-2,3.291539778E0,1.837990379E-1,3.297912367E0
2.013746833E0,5.950533029E-1,-1.776191157E-1,7.795332491E-1,9.966489202E-1
2.023713833E0,8.685378116E-1,-7.729470039E0,2.715683761E0,8.238568037E0
2.033679833E0,6.539028972E-2,-1.584485631E1,1.340883786E0,1.590162623E1
2.043646833E0,2.087996855E-1,-2.272904642E1,1.176790742E0,2.276044782E1
2.053612833E0,-2.651118806E-1,-2.181055409E1,2.088023606E0,2.191187798E1
2.063579833E0,-1.111992483E0,-1.143967981E1,3.989383332E0,1.216626405E1
2.073546833E0,-2.491607055E0,-2.657428536E0,5.889280522E0,6.924857920E0
2.083512833E0,-2.213474010E0,1.134907136E0,3.904115432E0,4.629211457E0
2.093479833E0,-1.125409211E0,9.356562459E-1,3.498631784E0,3.792416494E0
2.103445833E0,5.165953633E-1,-2.154060452E0,4.858397691E0,5.339557597E0
2.113412833E0,3.646119905E0,-8.742647501E0,5.275191901E0,1.084231180E1
2.123379833E0,7.226473253E0,-2.098797481E1,3.921952364E0,2.254104507E1
2.133345833E0,1.047584467E1,-3.513204566E1,-5.464468610E-1,3.666473180E1
2.143312833E0,1.193963429E1,-4.066760472E1,-2.245688660E0,4.244351609E1
2.153278833E0,9.027240842E0,-3.276356781E1,1.468738711E-1,3.398476166E1
2.163245833E0,6.979020256E0,-2.167302992E1,-1.806777942E0,2.284056471E1
2.173212833E0,5.169564874E0,-1.471041929E1,-3.422251360E0,1.596347835E1
2.183178833E0,3.633637562E0,-1.121016374E1,-2.152951820E0,1.197941127E1
2.193145833E0,2.132578513E0,-9.004504529E0,-1.484722513E0,9.371947176E0
2.203111833E0,1.418452949E0,-7.099859399E0,-1.739485846E0,7.446195221E0
2.213078833E0,1.032661846E0,-4.642165318E0,-2.412113281E0,5.332389690E0
2.223044833E0,3.058004616E-1,-1.117846715E0,-2.476974106E0,2.734683880E0
2.233011833E0,-1.618167230E-1,2.891528247E0,-1.519703043E0,3.270568390E0
2.242978833E0,-3.275716920E-1,5.497547479E0,-8.515732849E-1,5.572746949E0
2.252944833E0,-9.080375075E-1,7.702117934E0,-8.729413497E-1,7.804433316E0
2.262911833E0,-1.201212369E0,1.015129730E1,-1.528722957E0,1.033579905E1
2.272877833E0,-1.114274797E0,1.223013449E1,-2.786043892E0,1.259284871E1
2.282844833E0,-1.156503096E0,1.375696646E1,-4.058302124E0,1.438962966E1
2.292811833E0,-7.591586262E-1,1.521304946E1,-5.255202025E0,1.611304887E1
2.302777833E0,1.344187170E-1,1.699000894E1,-7.682339727E0,1.864663015E1
2.312744833E0,2.626089799E-1,1.888005357E1,-9.718795130E0,2.123629829E1
2.322710833E0,2.841533384E-1,1.998575737E1,-9.836339368E0,2.227700189E1
2.332677833E0,4.543198854E-2,2.034686036E1,-7.978218194E0,2.185517687E1
2.342644833E0,-3.313940169E-1,1.983288075E1,-5.172646941E0,2.049900625E1
2.352610833E0,-7.237907191E-1,1.835894971E1,-2.762015929E0,1.857965660E1
2.362577833E0,-6.171557781E-1,1.562134883E1,-1.482631695E0,1.570368165E1
2.372543833E0,-5.767604350E-1,1.327708079E1,-8.418388402E-1,1.331623894E1
2.382510833E0,-8.843709022E-1,1.162090257E1,-2.162943542E-1,1.165651198E1
2.392476833E0,-1.114825897E0,1.046471274E1,3.261746460E-1,1.052898093E1
2.402443833E0,-1.319878102E0,9.638723359E0,8.713134849E-1,9.767612471E0
2.412410833E0,-1.430210676E0,8.955086201E0,1.292148120E0,9.160170206E0
2.422376833E0,-1.459886465E0,8.333899645E0,1.714352174E0,8.632737408E0
2.432343833E0,-1.388007228E0,7.799899167E0,2.375494509E0,8.270910786E0
2.442309833E0,-1.326172045E0,7.248329560E0,3.212901160E0,8.038640903E0
2.452276833E0,-1.219636653E0,6.895058917E0,3.767218373E0,7.951181378E0
2.462242833E0,-1.164930834E0,6.704466584E0,3.724186374E0,7.757351363E0
2.472209833E0,-9.047553192E-1,6.582811754E0,3.052424326E0,7.312269623E0
2.482176833E0,-5.537747379E-1,6.817359361E0,1.881914663E0,7.093987448E0
2.492142833E0,-9.999732792E-2,7.632326152E0,6.944305336E-1,7.664504924E0
2.502109833E0,-9.754135117E-2,9.238703642E0,-6.985321362E-2,9.239482603E0
2.512075833E0,-3.857374544E-1,1.042089370E1,-4.395060011E-1,1.043728818E1
2.522042833E0,-4.253937095E-1,1.125062296E1,-7.459468424E-1,1.128334673E1
2.532009833E0,-2.376004386E-1,1.184807508E1,-1.280013978E0,1.191938643E1
2.541975833E0,-2.399760161E-1,1.212771466E1,-1.950325917E0,1.228587899E1
2.551942833E0,-5.643646301E-1,1.200153526E1,-2.698054991E0,1.231401059E1
2.561908833E0,-1.281186491E0,1.134945260E1,-3.538588732E0,1.195713692E1
2.571875833E0,-1.558698270E0,1.019013918E1,-4.168818008E0,1.111969066E1
2.581841833E0,-1.436795372E0,8.940650010E0,-4.823834800E0,1.026006753E1
2.591808833E0,-1.292443843E0,7.594343809E0,-5.397714458E0,9.406369669E0
2.601775833E0,-3.548154777E-1,5.905018888E0,-6.030937507E0,8.447919821E0
2.611741833E0,1.274753531E0,3.362715011E0,-7.165104386E0,8.016955137E0
2.621708833E0,3.666583114E0,-1.203809556E0,-7.359062376E0,8.309560050E0
2.631674833E0,8.156894487E0,-1.049548079E1,-5.355233266E0,1.433068623E1
2.641641833E0,1.140824869E1,-2.747941096E1,-1.020875906E0,2.977093133E1
2.651608833E0,6.595941092E0,-4.248058305E1,6.574985840E0,4.348950234E1
2.661574833E0,3.497143083E0,-4.201242690E1,6.086626389E0,4.259484763E1
2.671542208E0,3.647022131E0,-3.307204352E1,3.686713908E0,3.347615110E1
2.681508208E0,2.794541066E0,-1.776493458E1,8.445519483E-1,1.800321161E1
2.691475208E0,1.755149367E0,-9.411276026E0,1.188984525E0,9.647090231E0
2.701442208E0,1.287559518E0,-1.065102608E1,5.608455126E0,1.210607017E1
2.711408208E0,1.414309612E0,-1.230354511E1,5.828331485E0,1.368747391E1
2.721375208E0,2.356044038E0,-1.118081656E1,2.457350850E0,1.168760778E1
2.731341208E0,3.309726373E0,-8.972754148E0,8.087424302E-1,9.597847153E0
2.741308208E0,3.328343031E0,-6.600221838E0,7.806372035E-1,7.433047160E0
2.751274208E0,2.574580507E0,-5.417252929E0,7.541083860E-1,6.045144625E0
2.761241208E0,1.637677050E0,-5.310500312E0,1.324832886E0,5.713018630E0
2.771208208E0,8.235300386E-1,-5.085091318E0,1.679185849E0,5.418119652E0
2.781174208E0,3.890158421E-1,-4.598470244E0,1.323159413E0,4.800834589E0
2.791141208E0,1.823015660E-2,-3.657427543E0,5.993524683E-1,3.706255787E0
2.801107208E0,-3.258977804E-1,-2.092144285E0,2.811458230E-1,2.135958812E0
2.811074208E0,-4.830262059E-1,-4.596911377E-1,1.673648902E-1,6.874891011E-1
2.821041208E0,-7.061161941E-1,1.111189660E0,-7.387255311E-2,1.318635542E0
2.831007208E0,-7.954718819E-1,2.201840975E0,1.176272678E-1,2.344080922E0
2.840974208E0,-6.390682188E-1,2.843244279E0,5.991220149E-1,2.975129141E0
2.850940208E0,-4.912450522E-1,3.297585799E0,8.470474669E-1,3.439895815E0
2.860907208E0,-5.686281274E-1,3.512806605E0,7.043907539E-1,3.627576949E0
2.870873208E0,-6.470169237E-1,3.475103758E0,5.099625742E-1,3.571419725E0
2.880840208E0,-4.695871116E-1,3.276320645E0,3.797685436E-1,3.331518148E0
2.890807208E0,-4.945016590E-1,2.906188971E0,2.869661415E-1,2.961893953E0
2.900773208E0,-7.214788762E-1,2.621040729E0,3.222517490E-1,2.737559581E0
2.910740208E0,-1.030320182E0,2.426543040E0,4.237174590E-1,2.670057544E0
2.920706208E0,-1.112507184E0,2.286174197E0,5.443980698E-1,2.600121910E0
2.930673208E0,-1.030556410E0,2.217067124E0,4.932384411E-1,2.494136585E0
2.940640208E0,-9.369636834E-1,2.159527599E0,3.119314134E-1,2.374607673E0
2.950606208E0,-7.157543059E-1,2.106996213E0,-2.601769768E-2,2.225402029E0
2.960573208E0,-5.930727048E-1,2.097386314E0,-2.381885954E-1,2.192600828E0
2.970539208E0,-6.368929084E-1,2.103309544E0,-2.110025509E-1,2.207728627E0
2.980506208E0,-7.365364797E-1,2.249972915E0,-3.579877384E-2,2.367730064E0
2.990472208E0,-7.567599522E-1,2.520107262E0,1.570095809E-1,2.635958695E0
3.000439208E0,-6.139500421E-1,2.658769888E0,2.271247132E-1,2.738170485E0
3.010406208E0,-3.952173990E-1,2.684065527E0,2.691392966E-1,2.726323625E0
3.020372208E0,-4.614754155E-2,2.731206365E0,2.295805438E-1,2.741226920E0
3.030339208E0,1.727396142E-1,2.895976224E0,1.246170294E-1,2.903798662E0
3.040305208E0,2.479006013E-1,2.950723704E0,-1.167371754E-1,2.963419082E0
3.050272208E0,3.742994235E-1,3.114819379E0,-3.672751634E-1,3.158653332E0
3.060239208E0,3.445324181E-1,3.309900620E0,-4.467154352E-1,3.357633003E0
3.070205208E0,1.643188928E-1,3.544903141E0,-4.208274727E-1,3.573574504E0
3.080172208E0,-2.258370101E-2,3.723113410E0,-3.747258317E-1,3.741991841E0
3.090138208E0,-2.427316627E-1,3.781572703E0,-3.609090073E-1,3.806503130E0
3.100105208E0,-4.864643687E-1,3.884432827E0,-3.971475649E-1,3.934868760E0
3.110071208E0,-7.842314869E-1,4.191622733E0,-5.786249658E-1,4.303432004E0
3.120038208E0,-1.137520549E0,4.469394128E0,-8.578286362E-1,4.690981437E0
3.130005208E0,-1.343235828E0,4.758068826E0,-1.241866744E0,5.097620470E0
3.139971208E0,-1.333775618E0,5.160490580E0,-1.467296788E0,5.528343358E0
3.149938208E0,-1.264275028E0,5.582235627E0,-1.402307324E0,5.892895024E0
3.159904208E0,-1.121508534E0,6.161670139E0,-1.273981552E0,6.391164940E0
3.169871208E0,-8.188718542E-1,6.524179384E0,-9.600601852E-1,6.645087155E0
3.179838208E0,-3.973756063E-1,5.929494748E0,-4.264950326E-1,5.958079669E0
3.189804208E0,-2.964091024E-1,3.353205684E0,1.113385874E0,3.545627563E0
3.199771208E0,7.511362463E-2,-4.099278241E0,4.298503404E0,5.940274040E0
3.209737208E0,-4.131116331E-1,-1.086624688E1,5.431456985E0,1.215511035E1
3.219704208E0,-3.119850324E0,-1.468011083E1,6.994867380E0,1.655799776E1
3.229671208E0,-2.876266429E0,-1.390223001E1,1.118023535E1,1.807048893E1
3.239637208E0,-5.248256117E-1,-8.311979603E0,9.837858474E0,1.288983732E1
3.249604208E0,1.184338620E0,-4.049134274E0,5.201301806E0,6.697140197E0
3.259570208E0,1.897965563E0,-3.620788305E0,1.515915216E0,4.360089468E0
3.269537208E0,3.869866244E0,-6.671266093E0,-2.224842167E-1,7.715643541E0
3.279503208E0,6.510076484E0,-1.503653254E1,-3.625063205E-1,1.638932023E1
3.289470208E0,7.842097353E0,-2.798899814E1,-1.101547747E0,2.908772792E1
3.299437208E0,7.871393657E0,-3.574833517E1,-1.932206565E0,3.665563706E1
3.309403208E0,6.145236540E0,-3.342147780E1,-1.976475689E0,3.403917694E1
3.319370208E0,4.863994354E0,-2.652696034E1,-1.313078814E0,2.700115260E1
3.329336208E0,4.606734114E0,-2.155634522E1,-3.063065089E0,2.225489578E1
3.339303208E0,5.095456678E0,-2.011647539E1,-3.305744419E0,2.101342920E1
3.349270208E0,5.222964571E0,-1.828046604E1,-1.588265008E0,1.907819130E1
3.359236208E0,3.974957081E0,-1.512148440E1,-1.476653356E0,1.570477887E1
3.369203208E0,3.864126909E0,-1.106673504E1,-2.084762760E0,1.190589505E1
3.379169208E0,3.121450999E0,-6.820638480E0,-1.836315737E0,7.722475063E0
3.389136208E0,1.562385963E0,-5.615946579E-1,-2.174694107E0,2.736006746E0
3.399102208E0,1.311501235E0,4.610761676E0,-1.483439780E0,5.017943036E0
3.409069208E0,1.770706323E0,6.849195696E0,-3.449015601E-1,7.082784738E0
3.419036208E0,1.151596405E0,9.017909271E0,-1.146043743E0,9.163093263E0
3.429002208E0,8.520385770E-1,1.102202255E1,-2.841825160E0,1.141432964E1
3.438969208E0,1.286213050E0,1.260639697E1,-4.642468203E0,1.349548442E1
3.448935208E0,1.638181373E0,1.420498597E1,-6.289521264E0,1.562124650E1
3.458902208E0,1.985978584E0,1.594699781E1,-7.891851311E0,1.790341217E1
3.468868208E0,2.800400268E0,1.795006912E1,-9.037571118E0,2.029100576E1
3.478835208E0,2.560564147E0,1.982833162E1,-8.506946822E0,2.172757160E1
3.488802208E0,4.678551663E-1,2.057023102E1,-5.766186107E0,2.136825203E1
3.498768208E0,-1.587512910E0,2.057254417E1,-2.953169010E0,2.084396743E1
3.508735208E0,-2.222787017E0,1.927509146E1,-1.664952557E0,1.947413669E1
3.518701208E0,-2.588092546E0,1.624595893E1,-1.156264530E0,1.649140238E1
3.528668208E0,-2.700023164E0,1.302794497E1,-6.025554268E-1,1.331842889E1
3.538635208E0,-2.697874897E0,1.098362974E1,9.637154259E-2,1.131052336E1
3.548601208E0,-2.718723436E0,9.802023813E0,7.878281093E-1,1.020253895E1
3.558568208E0,-2.752648397E0,9.033261720E0,1.440263940E0,9.552552052E0
3.568534208E0,-2.721199440E0,8.358677806E0,2.024591549E0,9.020609292E0
3.578501208E0,-2.689605472E0,7.569213645E0,3.123478521E0,8.618763883E0
3.588467208E0,-2.628821326E0,6.520356474E0,4.939994416E0,8.592397509E0
3.598434208E0,-2.413960417E0,5.614775382E0,7.083428138E0,9.355632618E0
3.608401208E0,-1.490607882E0,4.980692207E0,8.728111907E0,1.015919013E1
3.618367208E0,-2.663685934E-1,4.675110869E0,8.848621852E0,1.001127977E1
3.628334208E0,1.244911681E-1,5.211420997E0,6.357932518E0,8.221782821E0
3.638300208E0,-4.640218779E-1,7.198082097E0,2.535280201E0,7.645609713E0
3.648267208E0,-1.250220953E0,9.080382677E0,6.239354785E-1,9.187257342E0
3.658234208E0,-1.662336220E0,1.006453631E1,-1.971258657E-1,1.020279920E1
3.668200208E0,-1.579571514E0,1.074096327E1,-1.117947872E0,1.091389690E1
3.678167208E0,-1.298819501E0,1.137872610E1,-2.170713322E0,1.165651475E1
3.688133208E0,-1.051131008E0,1.193085996E1,-3.103761710E0,1.237269706E1
3.698100208E0,-9.956388845E-1,1.246779106E1,-3.789647123E0,1.306899140E1
3.708066208E0,-1.202165173E0,1.293387730E1,-4.421961515E0,1.372166633E1
3.718033208E0,-1.486716852E0,1.314801637E1,-4.833246478E0,1.408690644E1
3.728000208E0,-1.697249214E0,1.308226677E1,-4.241602979E0,1.385703989E1
3.737966208E0,-1.532600685E0,1.265093989E1,-2.981682372E0,1.308761150E1
3.747933208E0,-1.462345073E0,1.184622970E1,-2.030215255E0,1.210757553E1
3.757899208E0,-1.644953033E0,1.071136467E1,-1.358537407E0,1.092175935E1
3.767866208E0,-1.794589275E0,9.538024950E0,-1.108515070E0,9.768483827E0
3.777832208E0,-1.634385360E0,8.381070303E0,-1.312127033E0,8.639168494E0
3.787799208E0,-1.177833593E0,6.869542252E0,-1.726666410E0,7.180479066E0
3.797766208E0,8.630519539E-2,4.317136141E0,-3.162161361E0,5.352044237E0
3.807732208E0,2.947880495E0,-2.626448234E0,-4.554511754E0,6.027587167E0
3.817699208E0,7.814244726E0,-2.724690228E1,1.851509142E0,2.840570700E1
3.827665208E0,4.406612282E0,-6.268516896E1,3.518118800E0,6.293826975E1
3.837632208E0,1.689020574E0,-5.662629345E1,-1.616745919E0,5.667454251E1
3.847599208E0,4.923049185E0,-2.808597304E1,-4.961350787E0,2.894258621E1
3.857565208E0,8.526641414E0,-1.190648643E1,-5.238925130E0,1.555359667E1
3.867532208E0,9.551615049E0,-6.260507964E0,-4.063631276E0,1.212189792E1
3.877498208E0,8.275829777E0,-5.156874661E0,-2.620906827E0,1.009712174E1
3.887465208E0,4.394699164E0,-5.580023040E0,5.561579899E-1,7.124559606E0
3.897432208E0,1.685417520E0,-6.407808682E0,4.449707723E0,7.981262002E0
3.907398208E0,-8.662708461E-2,-7.275678742E0,8.458978604E0,1.115783691E1
3.917365208E0,-8.368166667E-1,-6.738710217E0,8.475551952E0,1.086026972E1
3.927331208E0,-4.984052601E-1,-4.882618613E0,4.259013648E0,6.498274354E0
3.937298208E0,-3.726053390E-1,-3.622901489E0,1.596616148E0,3.976610751E0
3.947264208E0,-3.796217054E-1,-3.345286215E0,8.728677479E-1,3.478067079E0
3.957231208E0,-3.083043855E-1,-3.520339572E0,9.434483186E-1,3.657586230E0
3.967198208E0,-2.006659162E-1,-3.748369288E0,1.219118809E0,3.946744203E0
3.977164208E0,-1.481137732E-1,-4.067648313E0,1.567540283E0,4.361752289E0
3.987131208E0,2.421887487E-2,-4.192788084E0,1.830304799E0,4.574939795E0
3.997097208E0,2.966026452E-1,-3.915164039E0,1.869873054E0,4.348897310E0
4.007064208E0,9.157686961E-1,-3.264315727E0,1.613196512E0,3.754569543E0
4.017030208E0,1.283083182E0,-2.981927370E0,8.576054187E-1,3.357630169E0
4.026997208E0,1.221366990E0,-2.947191401E0,-1.439749677E-1,3.193493897E0
4.036964208E0,9.889758360E-1,-2.499753104E0,-6.842339397E-1,2.773988981E0
4.046930208E0,2.745946026E-1,-1.876807120E0,-1.070223921E0,2.177885765E0
4.056897208E0,-2.809607586E-1,-1.015843792E0,-1.089391386E0,1.515800498E0
4.066863208E0,-7.443353498E-1,-1.761415243E-2,-7.207229774E-1,1.036236933E0
4.076830208E0,-7.646886304E-1,9.550666630E-1,-3.596388459E-1,1.275241597E0
4.086797208E0,1.109588107E-1,1.749892720E0,-4.212578277E-1,1.803301014E0
4.096763208E0,6.600638160E-1,2.241888555E0,-6.419352548E-1,2.423598441E0
4.106730208E0,7.687240863E-1,2.630735997E0,-1.002530851E0,2.918351712E0
4.116696208E0,7.243872812E-1,3.082742139E0,-1.371702998E0,3.451029577E0
4.126663208E0,8.060249367E-1,3.605250499E0,-1.573985230E0,4.015586740E0
4.136629208E0,1.002089679E0,4.059909523E0,-1.549114391E0,4.459462351E0
4.146596208E0,1.037608590E0,4.566990005E0,-1.265907132E0,4.851448254E0
4.156563208E0,8.981215069E-1,5.176164041E0,-8.827762203E-1,5.327155928E0
4.166529208E0,5.428186637E-1,5.799967811E0,-5.105332625E-1,5.847642510E0
4.176496208E0,-2.432909489E-2,6.385256556E0,-2.504540804E-1,6.390212863E0
4.186462208E0,-6.069392306E-1,6.747828366E0,-3.663134426E-2,6.775168244E0
4.196429208E0,-1.289637326E0,6.690313398E0,2.858741739E-1,6.819470789E0
4.206396208E0,-1.883900962E0,6.326898420E0,6.346803220E-1,6.631858380E0
4.216362208E0,-2.416855081E0,5.691632938E0,6.076242319E-1,6.213298737E0
4.226329208E0,-2.651566118E0,5.097962210E0,8.394638474E-1,5.807298952E0
4.236295208E0,-3.091376722E0,4.679530195E0,1.373534638E0,5.774184816E0
4.246262208E0,-3.668789560E0,4.580588289E0,1.948784299E0,6.183814855E0
4.256228208E0,-4.181459980E0,4.870933537E0,2.574278791E0,6.916466756E0
4.266195208E0,-4.496051000E0,5.244062494E0,2.993163965E0,7.528193446E0
4.276162208E0,-4.471963980E0,5.331451471E0,3.265966103E0,7.686961117E0
4.286128208E0,-3.989395903E0,4.592012579E0,4.233784374E0,7.411260981E0
4.296095208E0,-3.250532670E0,3.390661193E0,4.943452460E0,6.819110513E0
4.306061208E0,-2.374935807E0,1.624023217E0,5.567263831E0,6.266753391E0
4.316028208E0,-1.200433958E0,-7.562741947E-1,6.583271345E0,6.734423060E0
4.325994208E0,8.196217597E-2,-3.315657204E0,7.030417281E0,7.773484910E0
4.335961208E0,9.732436100E-1,-5.470516385E0,5.909268644E0,8.111301286E0
4.345928208E0,1.480902089E0,-6.940605803E0,4.065583076E0,8.178878020E0
4.355894208E0,2.095474859E0,-8.031749454E0,2.693371371E0,8.726641021E0
4.365861208E0,2.812476523E0,-9.316994351E0,1.408202195E0,9.833587410E0
4.375827208E0,3.720864863E0,-1.131327821E1,-6.385013312E-3,1.190945591E1
4.385794208E0,4.363558356E0,-1.414458891E1,-1.190843940E0,1.485019011E1
4.395761208E0,3.960211573E0,-1.701765574E1,-2.053333830E0,1.759261386E1
4.405727208E0,2.741681359E0,-1.768985282E1,-2.408862083E0,1.806240090E1
4.415694208E0,3.062344712E0,-1.615137086E1,-1.974052895E0,1.655722262E1
4.425660208E0,4.411064351E0,-1.520962650E1,-1.976342665E0,1.595920290E1
4.435627208E0,6.381026680E0,-1.663006604E1,-1.954402596E0,1.791915979E1
4.445593208E0,8.001890062E0,-2.014600616E1,-1.249610650E0,2.171297621E1
4.455560208E0,8.197425631E0,-2.347521897E1,-5.925039169E-1,2.487236928E1
4.465527208E0,6.673664621E0,-2.395837440E1,-1.354233710E0,2.490733732E1
4.475493208E0,4.921593229E0,-2.256006891E1,-2.066509946E0,2.318295176E1
4.485460208E0,2.605502045E0,-1.895673980E1,-2.520914762E0,1.930030145E1
4.495426208E0,1.232782509E0,-1.355367982E1,-2.170998812E0,1.378169893E1
4.505393208E0,1.215451801E0,-8.365240136E0,-2.291612400E0,8.758199187E0
4.515360208E0,8.781822091E-1,-4.290933598E0,-2.728424259E0,5.160195159E0
4.525326208E0,8.420144029E-1,-3.779341990E-1,-3.173151788E0,3.304650478E0
4.535293208E0,8.345796682E-1,3.048314318E0,-3.668236706E0,4.841973145E0
4.545259208E0,7.166870829E-1,5.753132783E0,-3.886779900E0,6.979916560E0
4.555226208E0,3.153317155E-1,8.031691566E0,-4.011787523E0,8.983425996E0
4.565192208E0,5.706750914E-2,1.042457511E1,-4.639845142E0,1.141066106E1
4.575159208E0,3.585414697E-1,1.242484677E1,-5.954855876E0,1.378280370E1
4.585126208E0,1.188619951E0,1.396212888E1,-7.027341646E0,1.567601324E1
4.595092208E0,2.643366567E0,1.581766325E1,-8.241360440E0,1.803069270E1
4.605059208E0,4.257357132E0,1.795424988E1,-9.262008889E0,2.064618578E1
4.615025208E0,4.467704868E0,1.942833763E1,-7.945793045E0,2.146057587E1
4.624992208E0,3.460558517E0,2.016660941E1,-5.331435683E0,2.114454556E1
4.634958208E0,2.178369228E0,2.025834755E1,-3.021547519E0,2.059795347E1
4.644925208E0,1.268123665E0,1.965329872E1,-2.122988348E0,1.980826514E1
4.654892208E0,4.430347592E-2,1.782294598E1,-2.165064912E0,1.795402106E1
4.664858208E0,-1.041975291E0,1.547316635E1,-2.065834154E0,1.564519927E1
4.674824958E0,-1.481876527E0,1.349272611E1,-1.527014401E0,1.365947981E1
4.684790958E0,-1.919307900E0,1.186633126E1,-8.156468225E-1,1.204818825E1
4.694757958E0,-2.230184475E0,1.064679503E1,3.538970629E-2,1.087792350E1
4.704724958E0,-2.502658001E0,9.709655347E0,9.455824792E-1,1.007148600E1
4.714690958E0,-2.691609020E0,8.940391563E0,1.665442554E0,9.484147791E0
4.724657958E0,-2.811706737E0,8.299699865E0,2.283227785E0,9.055597260E0
4.734623958E0,-2.551002487E0,7.878805588E0,2.782147307E0,8.736334175E0
4.744590958E0,-2.341072681E0,7.601438236E0,2.961262726E0,8.487140948E0
4.754556958E0,-2.225095059E0,7.401262901E0,2.950653538E0,8.272611247E0
4.764523958E0,-2.262574980E0,7.186353752E0,2.851267244E0,8.055597475E0
4.774490958E0,-2.349315355E0,7.095103859E0,2.637586595E0,7.925695203E0
4.784456958E0,-2.369646416E0,7.160297974E0,2.286460272E0,7.881179594E0
4.794423958E0,-2.149213110E0,7.333933382E0,1.855364650E0,7.864354635E0
4.804389958E0,-1.693592658E0,7.683763524E0,1.254797276E0,7.967621614E0
4.814356958E0,-1.280467138E0,8.372622246E0,6.266683209E-1,8.493121484E0
4.824322958E0,-8.149404788E-1,9.226877064E0,1.157912421E-1,9.263519630E0
4.834289958E0,-3.885464568E-1,9.954849565E0,-2.321601161E-1,9.965134045E0
4.844256958E0,-2.241989127E-1,1.049581992E1,-5.479693298E-1,1.051250548E1
4.854222958E0,-6.686466515E-2,1.087429031E1,-8.288394566E-1,1.090603666E1
4.864189958E0,1.730234966E-2,1.110447765E1,-1.036463340E0,1.115275659E1
4.874155958E0,-3.311936036E-1,1.110281003E1,-1.418120534E0,1.119790809E1
4.884122958E0,-8.642494637E-1,1.055742034E1,-1.892387027E0,1.076044516E1
4.894089958E0,-9.484028837E-1,9.357473456E0,-2.323147895E0,9.688074816E0
4.904055958E0,-5.308377188E-1,8.152293313E0,-3.145837104E0,8.754311282E0
4.914022958E0,8.247684789E-1,6.610976037E0,-5.185237166E0,8.442270528E0
4.923988958E0,4.140454042E0,3.268163779E0,-8.949866391E0,1.038866510E1
4.933955958E0,9.145768581E0,-5.398468164E0,-9.638931520E0,1.434215961E1
4.943921958E0,9.124418643E0,-2.798692121E1,-3.879943335E0,2.969135791E1
4.953888958E0,4.394650340E-2,-5.722433732E1,7.836824334E-1,5.722972017E1
4.963855958E0,2.842794336E0,-5.667539135E1,3.562585706E0,5.685836334E1
4.973821958E0,6.629077263E0,-3.920401857E1,-8.801297705E-1,3.977026988E1
4.983788958E0,7.762803261E0,-2.072959103E1,-4.527420727E0,2.259368490E1
4.993754958E0,7.204019360E0,-9.272802265E0,-2.025572566E0,1.191577530E1
5.003721958E0,5.681597947E0,-3.323618773E0,8.752955119E-1,6.640266501E0
5.013687958E0,3.507343551E0,-2.924028826E-1,1.666148897E0,3.893971029E0
5.023654958E0,1.103203240E0,1.307415785E0,5.166727658E-1,1.786993053E0
5.033621958E0,-1.224796090E0,1.139100759E0,1.804202828E0,2.460248737E0
5.043587958E0,-2.813718179E0,-1.116105999E0,4.935246477E0,5.789590692E0
5.053554958E0,-3.469060953E0,-3.474103299E0,6.092958924E0,7.824827543E0
5.063520958E0,-2.862273750E0,-5.414257985E0,5.225549040E0,8.050662290E0
5.073487958E0,-1.401399252E0,-6.072064483E0,3.211444033E0,7.010510661E0
5.083454958E0,-1.887399352E-1,-5.139492643E0,2.742132472E0,5.828318616E0
5.093420958E0,4.442653057E-1,-3.611433345E0,2.704589839E0,4.533721282E0
5.103387958E0,9.192586067E-1,-2.407992749E0,1.961696413E0,3.239092200E0
5.113353958E0,1.361555447E0,-1.556193761E0,1.130540508E0,2.356627696E0
5.123320958E0,1.690378297E0,-6.963004732E-1,6.126654088E-1,1.928100630E0
5.133286958E0,1.561706516E0,-3.564638078E-2,3.339018146E-1,1.597400491E0
5.143253958E0,1.104031498E0,3.872692788E-1,2.951323628E-2,1.170356388E0
5.153220958E0,4.484200448E-1,4.836904496E-1,-1.191791189E-1,6.702541682E-1
5.163186958E0,6.986282498E-2,3.252788526E-1,1.179592435E-1,3.529894182E-1
5.173153958E0,-3.241143796E-1,3.351740956E-2,4.013784640E-1,5.169895735E-1
5.183119958E0,-8.008378717E-1,-2.755471140E-1,6.615447696E-1,1.074666921E0
5.193086958E0,-1.155941910E0,-2.929460889E-1,1.008843652E0,1.561980993E0
5.203052958E0,-1.457751208E0,-7.193887889E-2,1.327159055E0,1.972704981E0
5.213019958E0,-1.818936058E0,1.925230837E-1,1.439112039E0,2.327366963E0
5.222986958E0,-2.067759057E0,1.594325209E-1,1.313682246E0,2.454955660E0
5.232952958E0,-2.125112641E0,2.176281041E-1,1.174449663E0,2.437785417E0
5.242919958E0,-2.025126716E0,5.374930197E-1,1.134653513E0,2.382745382E0
5.252885958E0,-1.998711627E0,1.303760691E0,1.196768339E0,2.669624423E0
5.262852958E0,-1.949583028E0,2.230188276E0,1.116094304E0,3.165482622E0
5.272819958E0,-1.580015318E0,2.941838275E0,6.479162255E-1,3.401566739E0
5.282785958E0,-1.021454488E0,3.410425367E0,4.887117460E-2,3.560443630E0
5.292752958E0,-5.503457844E-1,3.778655527E0,-5.551264679E-1,3.858663430E0
5.302718958E0,-1.007378778E-1,4.111155691E0,-9.954465111E-1,4.231153860E0
5.312685958E0,1.764382705E-1,4.455611072E0,-1.324242464E0,4.651582375E0
5.322651958E0,2.627589610E-1,4.603066156E0,-1.467290940E0,4.838409140E0
5.332618958E0,1.903435341E-1,4.583315431E0,-1.432839146E0,4.805833852E0
5.342585958E0,4.669791073E-2,4.499133652E0,-1.144124687E0,4.642564551E0
5.352551958E0,-4.010514584E-1,4.352840409E0,-5.482875645E-1,4.405528476E0
5.362518958E0,-8.149305385E-1,4.223331599E0,-3.475336477E-2,4.301377614E0
5.372484958E0,-1.240651985E0,4.401511463E0,1.726659393E-1,4.576279497E0
5.382451958E0,-1.651124184E0,4.730635445E0,2.647470143E-1,5.017490784E0
5.392417958E0,-1.910551402E0,5.072260188E0,2.916311963E-1,5.427990313E0
5.402384958E0,-2.209239457E0,5.476144915E0,3.314343627E-1,5.914283629E0
5.412351958E0,-2.712307871E0,5.824613825E0,4.162910566E-1,6.438636381E0
5.422317958E0,-3.072423558E0,6.009954774E0,5.011439498E-1,6.768344566E0
5.432284958E0,-3.102753358E0,5.764488076E0,5.041711995E-1,6.565865501E0
5.442250958E0,-3.433548473E0,4.855506828E0,2.978241286E-1,5.954317835E0
5.452217958E0,-3.532978914E0,3.570957749E0,4.019677171E-1,5.039370724E0
5.462184958E0,-3.229856623E0,1.745083970E0,8.001718739E-1,3.757335079E0
5.472150958E0,-1.799040614E0,-8.298824537E-1,1.708542965E0,2.616174895E0
5.482117958E0,7.118546516E-1,-5.117745679E0,4.868429174E0,7.099271829E0
5.492083958E0,1.930232253E0,-1.082238107E1,9.603143052E0,1.459692040E1
5.502050958E0,2.771165652E0,-1.437512474E1,9.695755931E0,1.755936370E1
5.512016958E0,4.574909181E0,-1.474675272E1,4.139148066E0,1.598527624E1
5.521983958E0,5.787500378E0,-1.367003474E1,7.082001418E-2,1.484486530E1
5.531950958E0,6.136363390E0,-1.267258862E1,-1.257981816E0,1.413619384E1
5.541916958E0,5.334561605E0,-1.377744107E1,-1.312653136E0,1.483234601E1
5.551883958E0,4.137633345E0,-1.612077589E1,-8.589230888E-1,1.666544851E1
5.561849958E0,4.865543866E0,-1.888544704E1,-1.236591532E0,1.954130972E1
5.571816958E0,6.437829457E0,-2.092538856E1,-1.482207334E0,2.194343804E1
5.581782958E0,7.147007253E0,-2.226778765E1,-9.331058367E-1,2.340522946E1
5.591749958E0,5.611396860E0,-2.239548850E1,-9.385110028E-1,2.310684926E1
5.601716958E0,2.971741521E0,-2.062880842E1,-1.066798622E0,2.086904511E1
5.611682958E0,1.397156805E0,-1.762442248E1,-1.398751194E0,1.773496038E1
5.621649958E0,1.053304271E0,-1.469724668E1,-1.502951939E0,1.481139340E1
5.631615958E0,6.646161658E-1,-1.179641610E1,-1.628914998E0,1.192688189E1
5.641582958E0,9.644072977E-1,-9.324022120E0,-1.970332896E0,9.578605412E0
5.651549958E0,1.557048624E0,-6.724647079E0,-2.432787867E0,7.318724996E0
5.661515958E0,1.659755844E0,-3.882223749E0,-3.752031984E0,5.648379831E0
5.671483625E0,1.740343486E0,-9.467788196E-1,-5.272124451E0,5.632093910E0
5.681449625E0,1.268666433E0,2.289290763E0,-5.508198767E0,6.098411299E0
5.691416625E0,2.907789646E-1,5.456633926E0,-4.677914025E0,7.193211093E0
5.701382625E0,-3.286544502E-1,8.106037159E0,-4.090194007E0,9.085457566E0
5.711349625E0,-1.024148592E-1,1.036988610E1,-3.796287805E0,1.104340652E1
5.721316625E0,5.032018773E-1,1.198683185E1,-3.709984657E0,1.255791926E1
5.731282625E0,1.305346894E0,1.322156499E1,-4.012130170E0,1.387843290E1
5.741249625E0,2.661173678E0,1.474582769E1,-5.085871922E0,1.582363336E1
5.751215625E0,3.756669411E0,1.669927134E1,-5.894327254E0,1.810307494E1
5.761182625E0,3.951115059E0,1.840809790E1,-5.906894674E0,1.973222702E1
5.771148625E0,2.774516106E0,1.934237771E1,-4.418388281E0,2.003366342E1
5.781115625E0,9.374055867E-1,1.948101753E1,-2.760539507E0,1.969795298E1
5.791082625E0,-4.136757432E-1,1.901107798E1,-1.750393242E0,1.909597052E1
5.801048625E0,-1.173013879E0,1.741220247E1,-1.341968737E0,1.750318932E1
5.811015625E0,-1.268459003E0,1.427408018E1,-1.392883952E0,1.439786369E1
5.820981625E0,-1.172311190E0,1.208053114E1,-1.688025670E0,1.225410041E1
5.830948625E0,-1.551105368E0,1.074352201E1,-1.738657880E0,1.099327632E1
5.840914625E0,-1.859296025E0,9.854687930E0,-1.405780571E0,1.012660234E1
5.850881625E0,-1.981778236E0,9.309028689E0,-1.065554481E0,9.577101151E0
5.860848625E0,-2.033938908E0,8.901804618E0,-7.225907242E-1,9.159758200E0
5.870814625E0,-2.136351136E0,8.542590864E0,-3.807426167E-1,8.813899239E0
5.880781625E0,-2.241717231E0,8.207664691E0,-2.019394398E-1,8.510689476E0
5.890747625E0,-2.297133194E0,7.843688965E0,3.872494439E-2,8.173235413E0
5.900714625E0,-2.256801878E0,7.388983748E0,7.032645071E-1,7.757887374E0
5.910681625E0,-2.258314699E0,7.081745310E0,1.789133384E0,7.645397320E0
5.920647625E0,-2.105155217E0,6.934797764E0,3.148742001E0,7.901751369E0
5.930614625E0,-1.877575883E0,7.060276673E0,4.321139145E0,8.487935049E0
5.940580625E0,-1.715445311E0,7.456067684E0,4.961809208E0,9.118949969E0
5.950547625E0,-1.497648661E0,8.679818584E0,4.488989317E0,9.886011696E0
5.960513625E0,-1.340291317E0,1.013954206E1,3.193859117E0,1.071482291E1
5.970480625E0,-1.211752267E0,1.092511899E1,2.149656329E0,1.120033887E1
5.980447625E0,-1.042670086E0,1.136431856E1,1.273556314E0,1.148289349E1
5.990413625E0,-7.490316872E-1,1.172658865E1,1.267080668E-1,1.175116951E1
6.000380625E0,-2.513982596E-1,1.208251218E1,-1.212060050E0,1.214575610E1
6.010346625E0,2.035781220E-1,1.255085895E1,-2.767190130E0,1.285390391E1
6.020313625E0,3.590169945E-1,1.287763644E1,-4.210026845E0,1.355310811E1
6.030279625E0,-8.273196191E-2,1.258694095E1,-5.199051797E0,1.361866611E1
6.040246625E0,-6.391152889E-1,1.135572315E1,-5.806901439E0,1.277031797E1
6.050213625E0,-6.075549424E-1,9.914749360E0,-6.428018414E0,1.183177073E1
6.060179625E0,-2.719360198E-1,8.471952406E0,-7.413027499E0,1.126059072E1
6.070146625E0,4.641084167E-1,6.273307520E0,-9.858189243E0,1.169417287E1
6.080112625E0,1.751053392E0,1.718998956E0,-1.350089818E1,1.372207699E1
6.090079625E0,6.644669448E0,-8.084584894E0,-1.292193963E1,1.662794842E1
6.100046625E0,1.500481140E1,-3.019602501E1,-6.977136283E0,3.443290174E1
6.110012625E0,1.259231103E1,-6.441630966E1,2.295745942E0,6.567570096E1
6.119979625E0,2.400916448E-1,-5.883722860E1,4.828814288E0,5.903553643E1
6.129945625E0,1.350020937E0,-3.083510463E1,2.661236243E0,3.097916094E1
6.139912625E0,1.645110031E0,-1.188854951E1,-1.718019840E0,1.212417373E1
6.149878625E0,1.006987307E0,-4.942312837E0,-2.137738534E0,5.478175395E0
6.159845625E0,2.623809970E0,-2.962959588E0,-1.117174870E0,4.112370115E0
6.169812625E0,2.872545554E0,-3.690801111E0,-3.445952757E-1,4.689592382E0
6.179778625E0,3.045607642E0,-6.132425290E0,6.797739029E-1,6.880730950E0
6.189745625E0,3.883821793E0,-8.559151933E0,2.792341343E0,9.805117221E0
6.199711625E0,3.343263078E0,-9.874674883E0,4.259217131E0,1.126177351E1
6.209678625E0,1.553740562E0,-9.453250848E0,4.297107673E0,1.049967598E1
6.219644625E0,6.933692640E-1,-7.888982082E0,2.675142092E0,8.359018150E0
6.229611625E0,6.098280475E-1,-6.949225184E0,8.414071696E-1,7.026491794E0
6.239578625E0,4.151549426E-1,-6.103299140E0,3.310975631E-1,6.126356145E0
6.249544625E0,4.250618801E-1,-5.094978960E0,5.221924643E-1,5.139277496E0
6.259511625E0,5.731531414E-1,-4.131413369E0,7.696843453E-1,4.241402473E0
6.269477625E0,6.241920251E-1,-3.361865410E0,5.721545832E-1,3.466859615E0
6.279444625E0,7.835877085E-1,-2.718764659E0,1.489392538E-1,2.833350291E0
6.289411625E0,9.099869692E-1,-2.122034667E0,-9.508274317E-2,2.310876055E0
6.299377625E0,9.528581697E-1,-1.494075281E0,-2.093081009E-1,1.784379309E0
6.309344625E0,9.429070857E-1,-8.010334611E-1,-2.615939033E-1,1.264578882E0
6.319310625E0,7.803919128E-1,-1.221623683E-1,-2.494188309E-2,7.902893643E-1
6.329277625E0,2.875245506E-1,6.987253135E-1,3.658548747E-1,8.394862836E-1
6.339243625E0,-3.331728861E-1,1.604696415E0,7.740576240E-1,1.812517576E0
6.349210625E0,-6.885698694E-1,2.464459895E0,1.190465917E0,2.822215466E0
6.359177625E0,-1.017130472E0,3.174684927E0,1.477059299E0,3.646214881E0
6.369143625E0,-1.580891815E0,3.666026459E0,1.542556008E0,4.280005603E0
6.379110625E0,-2.187458286E0,3.934392022E0,1.576025470E0,4.769514716E0
6.389076625E0,-2.468881267E0,4.081623158E0,1.698062708E0,5.063441446E0
6.399043625E0,-2.417205037E0,4.069015392E0,1.710114112E0,5.032321207E0
6.409009625E0,-2.327308189E0,3.974251907E0,1.550118797E0,4.859414565E0
6.418976625E0,-2.151491478E0,3.770360667E0,1.217535310E0,4.508539383E0
6.428943625E0,-1.941855640E0,3.375694075E0,7.894010103E-1,3.973571161E0
6.438909625E0,-1.617914631E0,2.818722811E0,4.987116542E-1,3.288093574E0
6.448876625E0,-1.266294364E0,2.297534752E0,3.597040424E-1,2.647933978E0
6.458842625E0,-1.085160487E0,1.918596001E0,4.790132618E-1,2.255667884E0
6.468809625E0,-9.973744842E-1,1.736626557E0,7.637896210E-1,2.143362369E0
6.478775625E0,-9.331910598E-1,1.637756572E0,9.650645247E-1,2.117650038E0
6.488742625E0,-8.214323500E-1,1.625544078E0,1.107938023E0,2.131823472E0
6.498709625E0,-6.782723379E-1,1.623977024E0,1.170893532E0,2.113846353E0
6.508675625E0,-6.117313161E-1,1.698323786E0,1.201092939E0,2.168211967E0
6.518642625E0,-6.687039542E-1,1.946940379E0,1.311743602E0,2.440986091E0
6.528608625E0,-8.411886299E-1,2.348773903E0,1.541531868E0,2.932687787E0
6.538575625E0,-9.998130655E-1,2.993387328E0,1.684519680E0,3.577373396E0
6.548542625E0,-1.060162471E0,3.802917963E0,1.723200181E0,4.307615159E0
6.558508625E0,-1.216521403E0,4.514217714E0,1.726947076E0,4.984017666E0
6.568475625E0,-1.340828822E0,5.033987238E0,1.683764219E0,5.474843504E0
6.578441625E0,-1.432380724E0,5.385259888E0,1.526392257E0,5.777768767E0
6.588408625E0,-1.663756217E0,5.460522324E0,1.262663243E0,5.846341358E0
6.598374625E0,-1.864741683E0,5.251042900E0,1.127239390E0,5.685189682E0
6.608341625E0,-2.112570072E0,4.829718268E0,8.917401481E-1,5.346431646E0
6.618308625E0,-2.292245945E0,4.182092357E0,5.774511373E-1,4.803929409E0
6.628274625E0,-2.199676335E0,3.349551759E0,2.878093100E-1,4.017574786E0
6.638241625E0,-1.932133475E0,2.115671142E0,3.563243517E-1,2.887242836E0
6.648207625E0,-1.236147582E0,-4.386932015E-1,9.421130338E-1,1.614958061E0
6.658174625E0,-1.371926361E-1,-4.589120547E0,3.537030157E0,5.795639011E0
6.668140625E0,-1.514136493E-3,-8.324275128E0,5.573921471E0,1.001809160E1
6.678106708E0,-8.156398058E-2,-1.041213340E1,4.567019241E0,1.136999734E1
6.688073708E0,9.676016316E-1,-1.033362869E1,3.048601124E0,1.081730574E1
6.698039708E0,2.062226422E0,-8.606180504E0,2.002021297E0,9.073434298E0
6.708006708E0,2.813280222E0,-7.559654617E0,3.161074948E-1,8.072350803E0
6.717972708E0,3.866332479E0,-8.723903666E0,-1.523723442E0,9.663164861E0
6.727939708E0,5.041551197E0,-1.184792189E1,-2.941814886E0,1.320775402E1
6.737906708E0,5.663340601E0,-1.638533433E1,-2.943058004E0,1.758448744E1
6.747872708E0,6.521679114E0,-2.049929961E1,-2.229792420E0,2.162696366E1
6.757839708E0,7.285521945E0,-2.246385648E1,-1.171898815E0,2.364480968E1
6.767805708E0,7.128618929E0,-2.262553901E1,-6.932762933E-1,2.373210601E1
6.777772708E0,6.156829230E0,-2.170768052E1,-1.216859225E0,2.259669635E1
6.787738708E0,4.978559142E0,-2.016758707E1,-2.254589146E0,2.089499441E1
6.797705708E0,3.866799087E0,-1.791459991E1,-2.524895546E0,1.850027359E1
6.807672708E0,2.767010036E0,-1.511170785E1,-2.026932482E0,1.549608060E1
6.817638708E0,1.466785156E0,-1.227082176E1,-1.472852812E0,1.244563460E1
6.827605708E0,4.991148198E-1,-9.181545355E0,-1.527961650E0,9.321188632E0
6.837571708E0,4.158218175E-1,-6.583623347E0,-2.059644291E0,6.910798707E0
6.847538708E0,8.186261250E-1,-4.049281624E0,-2.214242334E0,4.687184605E0
6.857504708E0,1.020073960E0,-1.183257177E0,-2.836313574E0,3.238104866E0
6.867471708E0,9.903945167E-1,2.070663369E0,-3.262186171E0,3.988782609E0
6.877438708E0,7.488054000E-1,5.230916784E0,-3.122221370E0,6.137708547E0
6.887404708E0,3.132376814E-1,8.285672395E0,-3.081775010E0,8.845779903E0
6.897371708E0,-7.206941798E-2,1.072309535E1,-3.016487339E0,1.113953158E1
6.907337708E0,2.550885835E-1,1.244569561E1,-3.162975293E0,1.284386320E1
6.917304708E0,1.065171926E0,1.395607819E1,-3.373411322E0,1.439745163E1
6.927270708E0,2.338489674E0,1.575565470E1,-3.377279840E0,1.628235880E1
6.937237708E0,3.104677092E0,1.765965312E1,-4.808131517E0,1.856395693E1
6.947204708E0,2.177659376E0,1.905514727E1,-6.381309686E0,2.021291546E1
6.957170708E0,1.240373803E0,2.005864175E1,-6.720114318E0,2.119074261E1
6.967137708E0,5.809169282E-1,2.029102179E1,-6.157618604E0,2.121271545E1
6.977103708E0,3.056705073E-2,1.978291044E1,-5.045388139E0,2.041618038E1
6.987070708E0,1.796470763E-1,1.837337830E1,-3.783148527E0,1.875967793E1
6.997036708E0,8.824373741E-1,1.558799982E1,-2.719799616E0,1.584808329E1
7.007003708E0,7.220024943E-1,1.318213137E1,-1.961605196E0,1.334682621E1
7.016970708E0,1.767861798E-2,1.157137431E1,-1.286357038E0,1.164266853E1
7.026936708E0,-6.506300645E-1,1.047139026E1,-7.788625735E-1,1.052045438E1
7.036903708E0,-1.141001543E0,9.578737358E0,-2.183420308E-1,9.648925699E0
7.046869708E0,-1.438265508E0,8.902859455E0,4.920104527E-1,9.031699089E0
7.056836708E0,-1.596765836E0,8.344745060E0,1.377111672E0,8.607024330E0
7.066803708E0,-1.700797451E0,7.944538817E0,2.334518391E0,8.453306164E0
7.076769708E0,-1.720215762E0,7.800227780E0,2.874668970E0,8.489194154E0
7.086736708E0,-1.633424516E0,7.723752632E0,2.934524578E0,8.422343193E0
7.096702708E0,-1.635536238E0,7.710106984E0,2.622975572E0,8.306667765E0
7.106669708E0,-1.874517058E0,7.825193052E0,2.012877091E0,8.294524380E0
7.116635708E0,-2.371834444E0,8.207997397E0,1.240063462E0,8.633341027E0
7.126602708E0,-2.828324524E0,8.772468885E0,4.989580413E-1,9.230633190E0
7.136569708E0,-2.997218132E0,9.236683429E0,-1.840877442E-1,9.712544754E0
7.146535708E0,-3.041999910E0,9.538379876E0,-7.401451620E-1,1.003903725E1
7.156502708E0,-2.930865683E0,9.761148267E0,-1.186757905E0,1.026052550E1
7.166468708E0,-2.529774463E0,9.916936219E0,-1.482905345E0,1.034139212E1
7.176435708E0,-2.036678621E0,1.003904479E1,-1.632895782E0,1.037288912E1
7.186401708E0,-1.579950560E0,1.007475257E1,-1.654786588E0,1.033127300E1
7.196368708E0,-1.162165832E0,9.883897111E0,-1.798818712E0,1.011324875E1
7.206335708E0,-9.244379242E-1,9.342834951E0,-2.100920956E0,9.620655865E0
7.216301708E0,-1.222505882E0,8.531094069E0,-2.293125951E0,8.918100317E0
7.226268708E0,-1.291404062E0,7.624814234E0,-2.767148030E0,8.213563464E0
7.236234708E0,-9.379354906E-1,6.437052362E0,-4.518116637E0,7.920147981E0
7.246201708E0,-2.057623494E-1,4.350232551E0,-7.779659615E0,8.915714504E0
7.256167708E0,3.218779365E0,-6.735676682E-1,-9.197386047E0,9.767606877E0
7.266134708E0,1.006674422E1,-1.258275434E1,-7.737899970E0,1.787568578E1
7.276101708E0,1.271550251E1,-3.917979239E1,-1.633359905E0,4.122387658E1
7.286067708E0,5.815703253E0,-5.914521315E1,3.250930573E0,5.951930100E1
7.296034708E0,5.202247885E0,-4.058576709E1,2.317504601E0,4.098339543E1
7.306000708E0,4.779733053E0,-2.263387480E1,-1.219758714E0,2.316518828E1
7.315967708E0,3.213497868E0,-1.166318378E1,-3.591815937E0,1.261972925E1
7.325934708E0,2.983784738E0,-5.793355195E0,-2.080617085E0,6.840680027E0
7.335900708E0,2.084626520E0,-3.756696893E0,-3.959722745E-1,4.314537440E0
7.345867708E0,1.566589818E0,-3.768893600E0,4.420927727E-1,4.105387758E0
7.355833708E0,1.333808070E0,-5.006711147E0,1.197879310E0,5.317999184E0
7.365800708E0,8.084489000E-1,-6.877838867E0,2.701730551E0,7.433545928E0
7.375766708E0,7.500226441E-1,-7.692802150E0,3.492952384E0,8.481889839E0
7.385733708E0,9.965710768E-1,-7.251932614E0,3.213656620E0,7.994452416E0
7.395700708E0,9.540878391E-1,-6.161390058E0,3.080692398E0,6.954399809E0
7.405666708E0,7.104913732E-1,-5.388162446E0,2.604415340E0,6.026613626E0
7.415633708E0,8.177018264E-1,-4.813901550E0,1.996241909E0,5.275155558E0
7.425599708E0,1.023446926E0,-4.299060059E0,1.579344642E0,4.692940496E0
7.435566708E0,1.067379689E0,-3.782604151E0,9.476607259E-1,4.042951201E0
7.445532708E0,1.002501615E0,-3.156791863E0,1.994182666E-1,3.318148881E0
7.455499708E0,1.194282980E0,-2.343911358E0,-4.862768193E-1,2.675200448E0
7.465466708E0,1.298468083E0,-1.527334828E0,-1.159079525E0,2.315650316E0
7.475432708E0,1.304001011E0,-7.936916971E-1,-1.504452335E0,2.143301653E0
7.485399708E0,1.160873159E0,-2.212352514E-1,-1.222084151E0,1.700018000E0
7.495365708E0,1.034082719E0,4.125473768E-1,-5.709640901E-1,1.251208376E0
7.505332708E0,7.537806496E-1,1.114110344E0,1.839314774E-2,1.345275226E0
7.515299708E0,2.851853719E-1,1.742265027E0,3.219129029E-1,1.794560124E0
7.525265708E0,-6.471405923E-2,2.118014122E0,3.857152350E-1,2.153821713E0
7.535232708E0,-2.649844113E-1,2.320023143E0,3.644116357E-1,2.363370467E0
7.545198708E0,-6.448607630E-1,2.491332529E0,3.149438989E-1,2.592638199E0
7.555165708E0,-1.009753624E0,2.646767893E0,2.947207189E-1,2.848129731E0
7.565131708E0,-1.315857995E0,2.764421473E0,3.102183254E-1,3.077294876E0
7.575098708E0,-1.631782472E0,2.833227414E0,2.897448845E-1,3.282353380E0
7.585065708E0,-1.793183751E0,2.890249461E0,3.682178807E-1,3.421203636E0
7.595031708E0,-1.713099408E0,2.964780411E0,4.800490960E-1,3.457611835E0
7.604998708E0,-1.387949486E0,2.950472274E0,5.703955945E-1,3.310142225E0
7.614964708E0,-9.886574551E-1,2.804056240E0,6.410276207E-1,3.041560680E0
7.624931708E0,-6.658449581E-1,2.593138985E0,7.719225132E-1,2.786320813E0
7.634897708E0,-5.094436339E-1,2.450715430E0,9.682848787E-1,2.683861871E0
7.644864708E0,-2.412201574E-1,2.471494095E0,1.187591718E0,2.752606822E0
7.654831708E0,2.068277121E-1,2.628372552E0,1.265826002E0,2.924625693E0
7.664797708E0,4.167602956E-1,2.947811206E0,1.211281128E0,3.214106722E0
7.674764500E0,2.381535852E-1,3.404792744E0,1.008820994E0,3.559080015E0
7.684730500E0,-8.622011840E-3,3.879079117E0,7.403858480E-1,3.949113867E0
7.694697500E0,-2.023689178E-1,4.346588566E0,4.865469606E-1,4.378414472E0
7.704663500E0,-4.688505086E-1,4.699255192E0,3.301867130E-1,4.734114851E0
7.714630500E0,-7.581619683E-1,5.018269338E0,2.729684919E-1,5.082553346E0
7.724597500E0,-1.051760899E0,5.425391083E0,3.011266360E-1,5.534595437E0
7.734563500E0,-1.204574664E0,5.710880218E0,4.299062982E-1,5.852347598E0
7.744530500E0,-1.398448747E0,5.864039846E0,4.291720341E-1,6.043741461E0
7.754496500E0,-1.684012141E0,5.753459643E0,3.356807569E-1,6.004238197E0
7.764463500E0,-1.889453186E0,5.475269002E0,2.388897496E-1,5.797039960E0
7.774429500E0,-2.017858334E0,4.909359684E0,1.559373477E-1,5.310167721E0
7.784396500E0,-1.779067987E0,3.975792063E0,3.429026529E-1,4.369163268E0
7.794363500E0,-1.506309118E0,2.421120917E0,6.983817896E-1,2.935733431E0
7.804329500E0,-1.576930327E0,-1.699758693E0,2.141357961E0,3.156153163E0
7.814296500E0,-1.346267317E0,-7.365346963E0,5.304077146E0,9.175729178E0
7.824262500E0,-2.340270589E0,-1.107243842E1,7.389945030E0,1.351617721E1
7.834229500E0,-2.355189175E0,-1.163914939E1,8.685491552E0,1.471239199E1
7.844195500E0,-6.114737463E-1,-8.169863611E0,6.967860260E0,1.075507546E1
7.854162500E0,9.743443483E-1,-4.549245459E0,2.256697798E0,5.170847717E0
7.864129500E0,3.169283270E0,-3.479509635E0,-2.267807508E0,5.224394188E0
7.874095500E0,5.884841316E0,-5.553397159E0,-3.341818231E0,8.754388980E0
7.884062500E0,7.470339568E0,-1.021541319E1,-1.889293996E0,1.279570520E1
7.894028500E0,5.393022652E0,-1.685844074E1,-5.462444743E-1,1.770847539E1
7.903995500E0,4.361378221E0,-2.231284863E1,-2.489870432E0,2.287103602E1
7.913962500E0,5.873662024E0,-2.342962004E1,-2.011938028E0,2.423829399E1
7.923928500E0,6.481670710E0,-2.145931419E1,-9.250013034E-1,2.243590533E1
7.933895500E0,6.934008974E0,-1.973843652E1,-1.013007746E0,2.094546589E1
7.943861500E0,6.455032550E0,-1.819371207E1,-1.392033913E0,1.935500872E1
7.953828500E0,5.501288527E0,-1.668093097E1,-1.828781015E0,1.765961702E1
7.963794500E0,4.147965375E0,-1.489193441E1,-1.877524720E0,1.557242519E1
7.973761500E0,3.210610220E0,-1.235387327E1,-1.263308483E0,1.282661885E1
7.983728500E0,1.933704329E0,-9.585950484E0,-2.773639901E-1,9.782974491E0
7.993694500E0,9.674115971E-1,-6.959947808E0,-2.499778247E-1,7.031304829E0
8.003661500E0,6.206240541E-1,-4.282567402E0,-5.252460265E-1,4.359064253E0
8.013627500E0,1.423308769E-1,-1.943568290E0,-8.399407610E-1,2.122078287E0
8.023594500E0,-2.493398935E-1,3.967277348E-1,-9.567401361E-1,1.065323879E0
8.033560500E0,-6.880746102E-1,2.967818624E0,-8.566124153E-1,3.164676742E0
8.043527500E0,-1.181698895E0,5.560641859E0,-9.532271290E-1,5.764181826E0
8.053494500E0,-1.334981314E0,7.941606438E0,-1.558123927E0,8.202380027E0
8.063460500E0,-9.692688189E-1,9.900407310E0,-2.387491826E0,1.023023285E1
8.073427500E0,-2.761242342E-1,1.105636676E1,-3.102621503E0,1.148676415E1
8.083393500E0,3.873816915E-1,1.226016111E1,-3.953514172E0,1.288766423E1
8.093360500E0,1.120350639E0,1.353016700E1,-4.845347875E0,1.441520033E1
8.103326500E0,1.693797749E0,1.485765452E1,-5.063956558E0,1.578804943E1
8.113293500E0,2.191120543E0,1.631082443E1,-5.515983750E0,1.735713340E1
8.123260500E0,2.116545886E0,1.728345730E1,-5.660114107E0,1.830941164E1
8.133226500E0,1.089077098E0,1.773684573E1,-4.815495501E0,1.841115918E1
8.143193500E0,-4.492773928E-1,1.752359426E1,-3.555553844E0,1.788631234E1
8.153159500E0,-1.328658720E0,1.686525742E1,-2.659482079E0,1.712527626E1
8.163126500E0,-1.594164995E0,1.573390189E1,-2.112538204E0,1.595493178E1
8.173093500E0,-1.613712237E0,1.382637057E1,-1.629581580E0,1.401528189E1
8.183059500E0,-1.492862130E0,1.198896725E1,-9.252119493E-1,1.211692990E1
8.193026500E0,-1.751680506E0,1.052878886E1,-3.443659186E-2,1.067356386E1
8.202992500E0,-1.898579082E0,9.482434886E0,1.122591730E0,9.735573229E0
8.212959500E0,-2.023634945E0,8.688600517E0,2.578617425E0,9.286341861E0
8.222925500E0,-2.211360826E0,8.202258940E0,4.068165207E0,9.418977469E0
8.232892500E0,-2.437870851E0,7.897167599E0,5.085254456E0,9.704034380E0
8.242859500E0,-2.504712420E0,7.755462667E0,5.299828559E0,9.721572313E0
8.252825500E0,-2.414520580E0,7.770352601E0,4.656862879E0,9.375215254E0
8.262792500E0,-2.314781114E0,7.914103475E0,3.407521055E0,8.922020239E0
8.272758500E0,-2.422925514E0,8.083356394E0,2.136652268E0,8.704969934E0
8.282725500E0,-2.641476455E0,8.249381066E0,9.899127793E-1,8.718349221E0
8.292691500E0,-2.769357400E0,8.511976597E0,2.106890671E-2,8.951174778E0
8.302658500E0,-2.270800259E0,9.102550056E0,-5.337828152E-1,9.396694921E0
8.312625500E0,-9.870893781E-1,9.812361106E0,-8.683254115E-1,9.900038633E0
8.322591500E0,4.986490890E-2,1.035208601E1,-1.242652463E0,1.042652178E1
8.332558500E0,5.352541208E-1,1.069843062E1,-1.419249047E0,1.080542376E1
8.342524500E0,6.239534587E-1,1.089605365E1,-1.325236344E0,1.099406906E1
8.352491500E0,4.112086567E-1,1.095653608E1,-1.142173836E0,1.102358093E1
8.362457500E0,2.408908130E-1,1.087266713E1,-1.150609030E0,1.093603310E1
8.372424500E0,3.393618715E-1,1.049929551E1,-1.538382265E0,1.061682592E1
8.382391500E0,6.190301031E-2,9.673682692E0,-1.751361394E0,9.831136025E0
8.392357500E0,1.567626822E-1,8.684606869E0,-2.233229413E0,8.968516299E0
8.402324500E0,6.428984374E-1,7.516910886E0,-3.584687011E0,8.352679129E0
8.412290500E0,1.072085382E0,5.728467473E0,-6.352464201E0,8.620818296E0
8.422257500E0,1.805563768E0,2.081757876E0,-1.114412528E1,1.147977808E1
8.432223500E0,4.910815641E0,-4.979390616E0,-1.305899836E1,1.481377330E1
8.442190500E0,8.477041823E0,-2.239588845E1,-7.719250275E0,2.515994599E1
8.452157500E0,6.001383925E0,-5.688047894E1,4.023032303E0,5.733751200E1
8.462123500E0,2.383563959E0,-6.211472863E1,3.615659713E0,6.226551120E1
8.472090500E0,5.563943782E0,-3.584044519E1,-5.638202251E0,3.670537163E1
8.482056500E0,6.649616193E0,-1.469512181E1,-6.089885627E0,1.724096016E1
8.492023500E0,5.553526382E0,-4.663038123E0,-2.116343865E0,7.554104260E0
8.501990500E0,5.602267603E0,-1.238436767E0,-5.211389422E-1,5.761138231E0
8.511956500E0,5.250824799E0,2.100939667E-1,-4.773560147E-1,5.276662706E0
8.521923500E0,3.479032502E0,1.317477089E-1,-3.784703887E-1,3.502037185E0
8.531889500E0,9.725358045E-1,-1.442751346E0,1.063921938E0,2.039433065E0
8.541856500E0,-1.175798177E0,-3.665922378E0,2.212710364E0,4.440447657E0
8.551822500E0,-1.538226729E0,-5.187855549E0,3.334110432E0,6.355806718E0
8.561789500E0,-5.859430486E-1,-6.666490088E0,3.777439306E0,7.684690433E0
8.571756500E0,6.314153829E-1,-7.752532042E0,2.656100049E0,8.219203485E0
8.581722500E0,1.757856920E0,-7.660457692E0,9.122054029E-1,7.912318983E0
8.591689500E0,2.113133158E0,-6.510019181E0,-7.220609665E-2,6.844771377E0
8.601655500E0,1.949063796E0,-4.736601943E0,-9.177643508E-3,5.121946103E0
8.611622500E0,1.681919715E0,-3.078691188E0,7.631246464E-1,3.590202304E0
8.621588500E0,1.079093124E0,-1.788584331E0,1.216781165E0,2.417443336E0
8.631555500E0,4.633146572E-1,-9.380278766E-1,1.049951770E0,1.482213038E0
8.641522500E0,4.036771506E-2,-4.523283237E-1,7.911190684E-1,9.121950697E-1
8.651488500E0,-8.920746088E-2,-2.763575381E-1,7.485652256E-1,8.029205172E-1
8.661455500E0,-1.791879237E-1,-5.437167960E-1,7.165363710E-1,9.171480999E-1
8.671421500E0,6.556775272E-3,-9.847827977E-1,8.138622522E-1,1.277580493E0
8.681389583E0,-5.451914638E-2,-1.165182849E0,9.606370130E-1,1.511107832E0
8.691355583E0,-6.184921592E-2,-1.026816677E0,1.006056869E0,1.438863522E0
8.701322583E0,-3.271984935E-1,-5.874843746E-1,1.152578591E0,1.334404044E0
8.711289583E0,-7.598830962E-1,2.454181659E-1,1.509896092E0,1.708051113E0
8.721255583E0,-1.272987672E0,1.092653986E0,1.985699233E0,2.599498373E0
8.731222583E0,-1.558586734E0,1.832862371E0,2.224016540E0,3.276404531E0
8.741188583E0,-1.711782907E0,2.489559653E0,2.108522044E0,3.684287339E0
8.751155583E0,-1.656718800E0,2.969162899E0,1.688741808E0,3.796379116E0
8.761122583E0,-1.407163145E0,3.149012142E0,1.405247597E0,3.724393427E0
8.771088583E0,-1.243774398E0,2.957650316E0,1.283106863E0,3.455580033E0
8.781055583E0,-1.165148058E0,2.658214987E0,1.322963532E0,3.189656630E0
8.791021583E0,-1.144787176E0,2.444253672E0,1.515438376E0,3.095394508E0
8.800988583E0,-1.128196871E0,2.391687203E0,1.779779301E0,3.187571210E0
8.810954583E0,-1.131190061E0,2.546593394E0,1.878474746E0,3.360564870E0
8.820921583E0,-1.072312692E0,3.075072931E0,1.889292680E0,3.765017247E0
8.830888583E0,-1.032792239E0,3.702315449E0,1.782843827E0,4.237019188E0
8.840854583E0,-1.170748521E0,4.194800110E0,1.450626083E0,4.590350324E0
8.850821583E0,-1.362064740E0,4.526203337E0,8.619988704E-1,4.804662221E0
8.860787583E0,-1.422541907E0,4.843029454E0,3.032763648E-1,5.056731783E0
8.870754583E0,-1.486125991E0,5.168090206E0,8.676829487E-2,5.378220484E0
8.880720583E0,-1.683863914E0,5.401937317E0,1.044195771E-1,5.659260367E0
8.890687583E0,-2.076424923E0,5.471261905E0,4.307012272E-1,5.867857432E0
8.900654583E0,-2.407153381E0,5.466119864E0,8.372028753E-1,6.031066441E0
8.910620583E0,-2.654516331E0,5.432365057E0,1.038430709E0,6.134768570E0
8.920587583E0,-3.016163988E0,5.189351851E0,1.073738536E0,6.097502134E0
8.930553583E0,-3.106719524E0,4.628125568E0,1.273206942E0,5.717718810E0
8.940520583E0,-3.344596536E0,3.925600734E0,1.291112286E0,5.316355711E0
8.950486583E0,-3.776742610E0,2.931640731E0,1.214292444E0,4.932829640E0
8.960453583E0,-3.541133441E0,1.271622055E0,1.582827829E0,4.081910414E0
8.970420583E0,-2.831953598E0,-1.160477010E0,2.642354122E0,4.043352987E0
8.980386583E0,-1.884075209E0,-5.448736677E0,5.465577827E0,7.944243938E0
8.990353583E0,-4.166138229E-1,-1.088912470E1,6.831821280E0,1.286158566E1
9.000319583E0,1.448501790E0,-1.480163586E1,3.479479229E0,1.527394373E1
9.010286583E0,3.177704430E0,-1.664501503E1,-1.456482947E-1,1.694625458E1
9.020252583E0,4.282551907E0,-1.625133603E1,-1.741091491E0,1.689608159E1
9.030219583E0,4.031759273E0,-1.411602526E1,-1.622245225E0,1.476986566E1
9.040186583E0,4.079059154E0,-1.165696001E1,-1.111693690E0,1.239997190E1
9.050152583E0,4.900645286E0,-1.040743809E1,-1.734432536E0,1.163354409E1
9.060119583E0,5.217871646E0,-1.041174632E1,-2.839961945E0,1.198732788E1
9.070085583E0,5.270467350E0,-1.188748999E1,-3.231938524E0,1.339909217E1
9.080052583E0,4.771689623E0,-1.428147574E1,-2.494318117E0,1.526273874E1
9.090019583E0,4.531947057E0,-1.653090194E1,-1.995766969E0,1.725666100E1
9.099985583E0,4.530619154E0,-1.788596844E1,-3.170947387E0,1.872135904E1
9.109952583E0,3.996114354E0,-1.670898708E1,-3.457362721E0,1.752462656E1
9.119918583E0,3.380892250E0,-1.366050143E1,-2.270742664E0,1.425468358E1
9.129885583E0,2.949274472E0,-1.108687052E1,-6.284365189E-1,1.148964099E1
9.139851583E0,2.918820418E0,-9.690974078E0,5.279509485E-1,1.013475325E1
9.149818583E0,4.092046113E0,-9.380386355E0,1.135638038E0,1.029690067E1
9.159785583E0,5.758056139E0,-9.260091003E0,8.417745209E-1,1.093677650E1
9.169751583E0,7.359960508E0,-8.418191351E0,-9.832572591E-1,1.122505052E1
9.179718583E0,7.422821000E0,-6.357685765E0,-3.303509613E0,1.031656996E1
9.189684583E0,5.010383198E0,-1.842520217E0,-4.539973530E0,7.007865595E0
9.199651583E0,2.310639970E0,2.812308415E0,-3.869324791E0,5.312232114E0
9.209617583E0,5.502015044E-1,6.399985108E0,-2.535349199E0,6.905832798E0
9.219584583E0,-2.908377291E-1,9.683951572E0,-1.923601803E0,9.877436334E0
9.229551583E0,-6.407656655E-1,1.214009907E1,-2.310015049E0,1.237452041E1
9.239517583E0,-7.249136768E-1,1.345034081E1,-3.133267930E0,1.382948067E1
9.249484583E0,-2.374187364E-1,1.487266900E1,-3.726194308E0,1.533418322E1
9.259450583E0,5.680887218E-1,1.678719476E1,-4.936913518E0,1.750730555E1
9.269417583E0,1.810198563E-1,1.862716851E1,-6.322994235E0,1.967191986E1
9.279383583E0,-6.881668501E-1,1.972632109E1,-6.681993395E0,2.083867446E1
9.289350583E0,-1.504623512E0,2.060107391E1,-6.123962030E0,2.154462924E1
9.299317583E0,-2.107908086E0,2.054094114E1,-5.043510599E0,2.125583540E1
9.309283583E0,-2.555627050E0,1.903753312E1,-4.345544254E0,1.969372113E1
9.319250583E0,-2.423263629E0,1.649882177E1,-3.817820177E0,1.710728142E1
9.329216583E0,-2.132423708E0,1.426865864E1,-3.260834295E0,1.479104089E1
9.339183583E0,-1.584048873E0,1.240776706E1,-2.499941969E0,1.275584588E1
9.349149583E0,-1.157576353E0,1.101190453E1,-1.788423532E0,1.121608145E1
9.359116583E0,-1.002778919E0,1.014876429E1,-1.141121557E0,1.026182930E1
9.369083583E0,-1.127303271E0,9.577870216E0,-5.887935662E-1,9.661940199E0
9.379049583E0,-1.312728419E0,9.098142425E0,-8.548620148E-3,9.192362295E0
9.389016583E0,-1.433061340E0,8.729193642E0,5.618846798E-1,8.863870534E0
9.398982583E0,-1.660713326E0,8.378617396E0,1.146400423E0,8.618203533E0
9.408949583E0,-1.955306575E0,8.121801837E0,1.653232398E0,8.515871432E0
9.418915583E0,-2.113354768E0,8.043689468E0,2.042025461E0,8.563706944E0
9.428882583E0,-2.128937451E0,8.142362986E0,2.274510756E0,8.718018631E0
9.438849583E0,-1.953559427E0,8.231392107E0,2.295677676E0,8.765976640E0
9.448815583E0,-1.763530473E0,8.261415805E0,2.126980827E0,8.711204181E0
9.458782583E0,-1.636162329E0,8.323640120E0,1.821814642E0,8.676348345E0
9.468748583E0,-1.565957442E0,8.521368395E0,1.343287722E0,8.767574576E0
9.478715583E0,-1.389736688E0,8.915149133E0,7.723351805E-1,9.055813258E0
9.488681583E0,-1.129202300E0,9.420764303E0,1.645032263E-1,9.489623764E0
9.498648583E0,-1.044284795E0,9.859390261E0,-4.447437541E-1,9.924510268E0
9.508615583E0,-1.046981385E0,1.020251306E1,-1.105043067E0,1.031545263E1
9.518581583E0,-1.338954497E0,1.036670756E1,-1.642809005E0,1.058112688E1
9.528548583E0,-1.718625611E0,1.002403148E1,-2.124341394E0,1.038978862E1
9.538514583E0,-1.802722313E0,9.294928129E0,-2.811933024E0,9.876865089E0
9.548481583E0,-1.586077419E0,8.338637643E0,-3.616982353E0,9.226650566E0
9.558448583E0,-7.830105883E-1,7.233165976E0,-4.722872096E0,8.673944688E0
9.568414583E0,5.523969877E-1,5.696137633E0,-6.778801067E0,8.871486362E0
9.578381583E0,2.015016295E0,3.057043042E0,-8.272210350E0,9.046284702E0
9.588347583E0,6.120792255E0,-4.397845259E0,-7.433863467E0,1.058619227E1
9.598314583E0,1.409974895E1,-3.933713862E1,3.384069335E0,4.192451933E1
9.608280583E0,3.888349585E0,-7.640387825E1,5.261577244E0,7.668347977E1
9.618247583E0,3.123181483E0,-5.147797912E1,-2.093064637E0,5.161509000E1
9.628214583E0,4.977456357E0,-2.284254556E1,-5.856922030E0,2.410104759E1
9.638180583E0,4.153736577E0,-8.232215395E0,-4.815939012E0,1.040269996E1
9.648147583E0,3.620195690E0,-1.140714591E0,-3.620105935E0,5.245208632E0
9.658113583E0,3.817073195E0,2.161537871E0,-2.522180099E0,5.060008518E0
9.668080583E0,3.222849905E0,2.699310973E0,-1.355591726E0,4.417088426E0
9.678045875E0,2.301215574E0,5.298910546E-1,3.454197331E-1,2.386564988E0
9.688012875E0,1.996456940E0,-3.586937605E0,2.543650198E0,4.829297881E0
9.697979875E0,1.538203340E0,-7.356252204E0,3.717777826E0,8.384651929E0
9.707945875E0,1.073171356E0,-8.738465572E0,3.924461696E0,9.639184453E0
9.717912875E0,1.147140681E0,-7.024436164E0,3.701310897E0,8.022364834E0
9.727878875E0,1.168848469E0,-4.189016629E0,2.671614174E0,5.104075760E0
9.737845875E0,9.482511485E-1,-2.342414471E0,1.843896067E0,3.128264455E0
9.747811875E0,9.237413746E-1,-1.871126550E0,1.228573684E0,2.421529680E0
9.757778875E0,1.521653966E0,-1.898672783E0,8.700247586E-1,2.584053446E0
9.767745875E0,2.148594475E0,-1.846644258E0,6.495765424E-1,2.906630854E0
9.777711875E0,2.233037917E0,-1.567051456E0,3.162187381E-1,2.746288931E0
9.787678875E0,2.164639819E0,-1.188398049E0,-5.609935641E-2,2.470041014E0
9.797644875E0,1.683320708E0,-8.701686001E-1,-2.798841400E-1,1.915488745E0
9.807611875E0,9.887843397E-1,-7.677897012E-1,-5.288069808E-1,1.358982089E0
9.817578875E0,3.503581452E-1,-7.635890615E-1,-3.799009100E-1,9.220324214E-1
9.827544875E0,-2.024727058E-1,-7.865060538E-1,7.136526704E-4,8.121499114E-1
9.837511875E0,-6.006657529E-1,-7.153811073E-1,3.988596296E-1,1.015705902E0
9.847477875E0,-8.567629811E-1,-4.770240390E-1,6.771169281E-1,1.191671966E0
9.857444875E0,-9.337708113E-1,-2.274859250E-1,8.749875829E-1,1.299723449E0
9.867410875E0,-1.023857401E0,1.076694596E-1,9.885466504E-1,1.427270532E0
9.877377875E0,-1.016810337E0,5.291595680E-1,9.646084419E-1,1.498126348E0
9.887344875E0,-9.557335380E-1,9.828836221E-1,7.082445806E-1,1.543080424E0
9.897310875E0,-8.467469931E-1,1.530929697E0,4.432892592E-1,1.804780201E0
9.907277875E0,-6.725175083E-1,2.090653830E0,1.993165250E-1,2.205184871E0
9.917243875E0,-5.221560654E-1,2.630774004E0,-9.960731864E-4,2.682092431E0
9.927210875E0,-3.009556049E-1,3.178387384E0,-2.291839564E-1,3.200819571E0
9.937176875E0,-9.648256660E-2,3.649407502E0,-4.198628283E-1,3.674747447E0
9.947143875E0,6.306572914E-2,4.072791524E0,-5.386914065E-1,4.108746343E0
9.957110875E0,2.336868972E-2,4.386391148E0,-6.891363184E-1,4.440257004E0
9.967076875E0,-1.703559968E-1,4.491504205E0,-8.030855414E-1,4.565914758E0
9.977043875E0,-3.984316134E-1,4.385431620E0,-7.508222508E-1,4.467045141E0
9.987009875E0,-6.471183729E-1,4.207440037E0,-6.022550261E-1,4.299305172E0
9.996976875E0,-9.710786784E-1,4.220941257E0,-3.761031434E-1,4.347504166E0
1.000694287E1,-1.245553998E0,4.267980938E0,-9.374577731E-2,4.447005095E0
1.001690987E1,-1.398088558E0,4.254910072E0,7.761652529E-2,4.479390099E0
1.002687687E1,-1.470542869E0,4.071586413E0,2.235150808E-1,4.334774647E0
1.003684287E1,-1.553426859E0,3.456835302E0,4.327033138E-1,3.814456379E0
1.004680987E1,-1.833155901E0,2.269410814E0,9.107506156E-1,3.056166338E0
1.005677587E1,-2.102237457E0,7.733053797E-1,1.790247864E0,2.867471176E0
1.006674287E1,-2.566989652E0,-9.448340356E-1,2.774142762E0,3.895897238E0
1.007670888E1,-3.002992550E0,-2.700626596E0,3.434779897E0,5.301797922E0
1.008667588E1,-2.795066730E0,-4.160178162E0,4.122949525E0,6.489853091E0
1.009664287E1,-2.002699428E0,-4.621294266E0,5.334283862E0,7.336330828E0
1.010660887E1,-1.767703631E0,-3.229587359E0,6.643611687E0,7.595563632E0
1.011657587E1,-1.760937818E0,-6.017258531E-1,5.851488798E0,6.140268492E0
1.012654187E1,-1.389788143E0,1.084353864E0,3.658306965E0,4.060855111E0
1.013650887E1,-5.160080105E-1,9.405567974E-1,1.938817573E0,2.215835043E0
1.014647487E1,9.226140314E-1,-8.946052837E-1,1.915060190E0,2.306293736E0
1.015644187E1,2.202108777E0,-4.416649904E0,2.018035359E0,5.331842660E0
1.016640887E1,4.068499375E0,-1.009940911E1,1.802549382E0,1.103630082E1
1.017637488E1,6.279293314E0,-1.728938521E1,3.423544765E-1,1.839754255E1
1.018634187E1,8.786851282E0,-2.420170511E1,-1.455749706E0,2.578857291E1
1.019630787E1,1.034928636E1,-2.731246126E1,-1.485812434E0,2.924527153E1
1.020627487E1,9.975604842E0,-2.445491761E1,-9.605243079E-1,2.642873993E1
1.021624087E1,7.627042608E0,-2.043787110E1,-4.534701388E-1,2.181934897E1
1.022620787E1,5.388439604E0,-1.854969173E1,-5.566981995E-1,1.932449890E1
1.023617487E1,4.735902324E0,-1.762438974E1,-1.808361368E0,1.833897640E1
1.024614087E1,4.989953027E0,-1.613381518E1,-2.484471113E0,1.706962859E1
1.025610787E1,5.019814757E0,-1.394693782E1,-1.992999920E0,1.495619147E1
1.026607388E1,4.572429085E0,-1.138334306E1,-1.195022287E0,1.232540812E1
1.027604088E1,3.353394841E0,-8.704430684E0,-1.213236218E0,9.406610049E0
1.028600787E1,2.257068804E0,-6.449325083E0,-1.850558238E0,7.079033790E0
1.029597387E1,1.413960825E0,-3.805294272E0,-1.629492702E0,4.374333798E0
1.030594087E1,1.456984053E0,-7.980806172E-1,-7.639690574E-1,1.828492254E0
1.031590687E1,1.040728372E0,2.356423815E0,-4.465401284E-1,2.614430498E0
1.032587387E1,7.142483555E-1,5.301115531E0,-7.681311786E-1,5.403887684E0
1.033583987E1,4.598946208E-1,7.556930984E0,-1.758833113E0,7.772528731E0
1.034580687E1,2.914866239E-1,9.771638757E0,-3.653944942E0,1.043653209E1
1.035577387E1,8.574854046E-1,1.182806825E1,-5.992385645E0,1.328710523E1
1.036573988E1,1.990524648E0,1.372235328E1,-8.785252653E0,1.641480527E1
1.037570687E1,2.950615531E0,1.586125775E1,-1.148852745E1,1.980585501E1
1.038567287E1,3.561484675E0,1.814729571E1,-1.267426443E1,2.241975677E1
1.039563987E1,2.826521827E0,1.979007211E1,-1.045259614E1,2.255865568E1
1.040560587E1,9.070693548E-1,2.058645353E1,-6.624895334E0,2.164518612E1
1.041557287E1,-7.545194453E-1,2.070862058E1,-3.521538252E0,2.101945521E1
1.042553987E1,-1.531515441E0,1.998307233E1,-2.038147588E0,2.014504318E1
1.043550587E1,-2.262229556E0,1.827570875E1,-1.462799109E0,1.847319664E1
1.044547287E1,-2.417847792E0,1.530302407E1,-1.476454697E0,1.556304765E1
1.045543888E1,-2.559453468E0,1.296692576E1,-1.504858131E0,1.330250216E1
1.046540588E1,-2.941635669E0,1.133987135E1,-1.403846312E0,1.179901212E1
1.047537187E1,-3.243816266E0,1.015623937E1,-9.235291207E-1,1.070160960E1
1.048533887E1,-3.403816551E0,9.336346296E0,-1.757171261E-1,9.939024388E0
1.049530587E1,-3.331373350E0,8.811170436E0,5.689644154E-1,9.437080765E0
1.050527187E1,-3.075736005E0,8.389613670E0,1.366833436E0,9.039579810E0
1.051523887E1,-2.867207338E0,7.937498769E0,2.083643603E0,8.692889928E0
1.052520487E1,-2.650565659E0,7.375151575E0,2.713298682E0,8.293391876E0
1.053517187E1,-2.381008433E0,6.732796344E0,3.746525077E0,8.064502335E0
1.054513787E1,-2.071106296E0,6.102013922E0,4.878774068E0,8.082480535E0
1.055510488E1,-1.711739638E0,5.838145452E0,5.513662405E0,8.210631402E0
1.056507187E1,-1.782929927E0,5.731489314E0,5.773958226E0,8.328709533E0
1.057503787E1,-2.232486524E0,6.112137791E0,4.717465761E0,8.037207703E0
1.058500487E1,-2.725083160E0,7.156172179E0,2.933258071E0,8.200053744E0
1.059497087E1,-2.868710657E0,8.230980463E0,1.799233718E0,8.900324836E0
1.060493787E1,-2.726813059E0,8.987196186E0,1.028033044E0,9.447859899E0
1.061490387E1,-2.213671061E0,9.637049886E0,2.874222243E-1,9.892203072E0
1.062487087E1,-1.494975752E0,1.013351241E1,-3.622022653E-1,1.024959593E1
1.063483787E1,-7.894163592E-1,1.054426060E1,-1.049801935E0,1.062575615E1
1.064480388E1,-2.532858869E-1,1.085270473E1,-1.862983572E0,1.101435706E1
1.065477088E1,-5.167199090E-2,1.089684302E1,-2.524502321E0,1.118556971E1
1.066473687E1,-3.495924523E-1,1.033294807E1,-2.874552026E0,1.073103350E1
1.067470362E1,-9.699732623E-1,9.159708343E0,-3.177668177E0,9.743648193E0
1.068466963E1,-9.685389403E-1,7.798648447E0,-4.140932636E0,8.882809712E0
1.069463663E1,3.782850319E-1,6.081946278E0,-6.199613307E0,8.693007261E0
1.070460362E1,2.562723816E0,2.940073586E0,-9.380667021E0,1.015915842E1
1.071456962E1,6.547172974E0,-3.363409660E0,-1.081869966E1,1.308519243E1
1.072453662E1,1.276999388E1,-1.767045878E1,-7.239197963E0,2.297224073E1
1.073450262E1,1.144592230E1,-4.565154213E1,1.825445178E-1,4.706491006E1
1.074446962E1,6.788625559E0,-5.011266829E1,3.405399393E-1,5.057154267E1
1.075443562E1,6.489357460E0,-3.434535659E1,1.220144630E0,3.497433391E1
1.076440262E1,6.151722271E0,-2.415934086E1,-1.859388704E0,2.499949528E1
1.077436962E1,3.752040755E0,-1.548926725E1,-4.288904030E0,1.650423908E1
1.078433563E1,2.169142760E0,-8.894586815E0,-8.415102267E-1,9.193856339E0
1.079430262E1,-2.727112144E-2,-4.445504159E0,2.214113842E0,4.966442494E0
1.080426862E1,-2.081220517E0,-1.040003318E0,3.268818083E0,4.012263376E0
1.081423562E1,-3.020684762E0,1.055073931E0,3.902471488E0,5.046484038E0
1.082420262E1,-3.734392689E0,3.721659207E-1,5.025948486E0,6.272507825E0
1.083416862E1,-3.777372940E0,-1.691273214E0,5.364165473E0,6.775191704E0
1.084413562E1,-2.536146174E0,-3.904735529E0,5.212838362E0,6.989469276E0
1.085410162E1,-4.143009567E-1,-5.592230272E0,4.261108121E0,7.042849361E0
1.086406862E1,1.351540336E0,-6.404337190E0,1.805482053E0,6.789842529E0
1.087403463E1,2.909276301E0,-6.537574185E0,2.804615526E-1,7.161174729E0
1.088400163E1,3.692547090E0,-6.267862592E0,-1.360902898E-1,7.275955336E0
1.089396862E1,4.015848414E0,-5.193648385E0,-2.781003007E-1,6.571024411E0
1.090393462E1,3.792805496E0,-3.564818757E0,-4.336368218E-2,5.205303710E0
1.091390162E1,2.638083901E0,-1.759662833E0,6.712866694E-2,3.171814340E0
1.092386762E1,1.073438574E0,-4.354246080E-1,1.863791218E-1,1.173286895E0
1.093383462E1,-5.990764797E-3,3.615473771E-1,5.871551764E-1,6.895676880E-1
1.094380062E1,-6.895165336E-1,8.024385470E-1,1.019248333E0,1.469084013E0
1.095376762E1,-1.016618840E0,9.278519672E-1,9.814051536E-1,1.690437581E0
1.096373462E1,-1.017276945E0,7.948786819E-1,5.708543086E-1,1.411580371E0
1.097370063E1,-1.046438471E0,6.197914106E-1,3.651141787E-1,1.269835906E0
1.098366762E1,-1.047703516E0,4.508197421E-1,2.614806135E-1,1.170168026E0
1.099363362E1,-9.741133833E-1,1.865016210E-1,8.682545140E-2,9.955995165E-1
1.100360062E1,-9.615357301E-1,8.299479425E-2,2.854376793E-2,9.655329320E-1
1.101356662E1,-9.705927747E-1,3.491331536E-1,1.686372077E-1,1.045171183E0
1.102353362E1,-9.144270524E-1,9.931402230E-1,2.512069094E-1,1.373174879E0
1.103350062E1,-7.073125345E-1,1.991713679E0,8.758661270E-2,2.115392591E0
1.104346662E1,-3.629115325E-1,3.031804705E0,-2.852409205E-1,3.066742071E0
1.105343362E1,3.221728116E-2,3.790872114E0,-9.613601674E-1,3.911005333E0
1.106339963E1,6.115886441E-1,4.067847118E0,-1.821164724E0,4.498673338E0
1.107336663E1,1.201869450E0,4.066903378E0,-2.792511205E0,5.077628589E0
1.108333262E1,1.715092139E0,3.967366226E0,-3.568993377E0,5.605287641E0
1.109329962E1,2.417679246E0,3.974071813E0,-3.952496756E0,6.104150254E0
1.110326662E1,3.190990473E0,4.122165413E0,-4.115873809E0,6.641918782E0
1.111323262E1,3.767591718E0,4.401315581E0,-4.148322055E0,7.125650993E0
1.112319962E1,3.862128623E0,4.201860623E0,-3.744596665E0,6.825955932E0
1.113316562E1,3.043654672E0,2.929136953E0,-2.225721588E0,4.774674192E0
1.114313262E1,1.740263525E0,6.664059985E-1,5.639823684E-1,1.946969492E0
1.115309863E1,2.125986215E-1,-1.347396122E0,2.905439065E0,3.209711926E0
1.116306563E1,-1.793473772E0,-1.893093955E0,3.922792024E0,4.710483007E0
1.117303262E1,-3.557404195E0,-1.276867007E0,3.783882937E0,5.348203815E0
1.118299862E1,-5.178096546E0,1.592378086E-1,3.080644450E0,6.027305430E0
1.119296562E1,-6.167339600E0,1.902385765E0,2.754601074E0,7.017333996E0
1.120293162E1,-6.480902971E0,3.788588777E0,4.482650643E0,8.743549910E0
1.121289862E1,-6.813705436E0,5.490803885E0,6.282569509E0,1.077247366E1
1.122286462E1,-7.152674375E0,6.999705951E0,7.627237905E0,1.258298026E1
1.123283162E1,-6.552720813E0,7.088950834E0,8.706326351E0,1.299967278E1
1.124279862E1,-6.289479164E0,4.989647802E0,9.522037493E0,1.245485172E1
1.125276463E1,-4.433302482E0,2.659115458E0,8.883519205E0,1.027822842E1
1.126273163E1,-1.307801117E0,5.279626429E-1,6.790001993E0,6.934927208E0
1.127269762E1,1.189967150E0,-2.985864301E0,4.784868077E0,5.764231949E0
1.128266462E1,4.534972406E0,-8.633237910E0,2.734849472E0,1.012808833E1
1.129263062E1,8.684329711E0,-1.848385092E1,-7.110863274E-1,2.043467570E1
1.130259762E1,1.046206278E1,-2.952163756E1,-4.815495501E0,3.168865474E1
1.131256462E1,1.203418611E1,-2.969852285E1,-8.001383693E0,3.302795840E1
1.132253062E1,1.284752913E1,-2.037673729E1,-6.053239957E0,2.483771611E1
1.133249762E1,1.076881590E1,-1.347033829E1,-3.233137203E0,1.754624135E1
1.134246363E1,5.208655264E0,-1.062353130E1,-1.841466841E0,1.197415997E1
1.135243063E1,3.906867132E0,-1.088088363E1,-1.062494048E0,1.160974302E1
1.136239762E1,5.177534044E0,-1.457924636E1,-2.285346816E0,1.563918455E1
1.137236362E1,5.779334157E0,-1.870624041E1,-3.861319661E0,1.995579923E1
1.138233062E1,5.943231027E0,-2.077402519E1,-4.101342309E0,2.199325184E1
1.139229662E1,5.870936637E0,-2.008080971E1,-3.081481479E0,2.114715924E1
1.140226362E1,5.044288863E0,-1.494744086E1,-1.778072645E0,1.587552773E1
1.141222962E1,2.708906254E0,-9.075182163E0,-1.275623743E0,9.556375899E0
1.142219662E1,1.247271910E0,-4.302970676E0,-1.457832484E0,4.711318224E0
1.143216362E1,3.801782142E-1,-8.996309656E-1,-1.804272849E0,2.051651009E0
1.144212963E1,6.538078800E-2,1.839669115E0,-1.797330888E0,2.572752499E0
1.145209662E1,-5.709022558E-1,4.464756117E0,-2.143143700E0,4.985282488E0
1.146206262E1,-1.515605021E0,6.585169351E0,-2.904556428E0,7.355131679E0
1.147202962E1,-1.775666223E0,8.613518760E0,-3.650741837E0,9.522269263E0
1.148199562E1,-1.633717754E0,1.053568156E1,-4.416891979E0,1.154030131E1
1.149196262E1,-1.026280926E0,1.201793904E1,-5.397806844E0,1.321440237E1
1.150192962E1,-7.013545141E-2,1.342675782E1,-6.145194440E0,1.476638613E1
1.151189562E1,7.320032796E-1,1.495497441E1,-6.848996891E0,1.646498851E1
1.152186262E1,1.499071288E0,1.658649259E1,-6.700389905E0,1.795143938E1
1.153182863E1,1.385011991E0,1.774352909E1,-5.596863606E0,1.865679408E1
1.154179563E1,8.642336762E-1,1.856282107E1,-4.047103536E0,1.901852447E1
1.155176162E1,7.329581299E-1,1.919907064E1,-2.718121465E0,1.940437387E1
1.156172862E1,2.452573675E-1,1.907438461E1,-2.114156713E0,1.919275796E1
1.157169562E1,-5.166623139E-1,1.809599224E1,-2.007239206E0,1.821430439E1
1.158166162E1,-1.243586264E0,1.574919937E1,-1.790365977E0,1.589934583E1
1.159162862E1,-1.561176466E0,1.339427771E1,-1.369899716E0,1.355435622E1
1.160159462E1,-1.857732626E0,1.175816829E1,-9.805172539E-1,1.194433365E1
1.161156162E1,-2.256590794E0,1.064410531E1,-5.451721680E-1,1.089432846E1
1.162152762E1,-2.575575703E0,9.840042994E0,-4.091528853E-2,1.017161297E1
1.163149463E1,-2.742644103E0,9.227016227E0,3.756193228E-1,9.633328345E0
1.164146162E1,-2.825933012E0,8.703467063E0,8.164502299E-1,9.187101136E0
1.165142762E1,-2.829350710E0,8.191268513E0,1.403228846E0,8.779017968E0
1.166139462E1,-2.696946651E0,7.791990808E0,2.145753897E0,8.520146816E0
1.167136062E1,-2.462799870E0,7.442840112E0,2.995942562E0,8.392670849E0
1.168132808E1,-2.206854962E0,7.197251793E0,3.829823341E0,8.446193759E0
1.169129408E1,-2.051737979E0,7.192671669E0,4.312246699E0,8.633633422E0
1.170126108E1,-1.845969636E0,7.219033840E0,4.273446915E0,8.589784748E0
1.171122808E1,-1.658465656E0,7.376868317E0,3.700180045E0,8.417839798E0
1.172119408E1,-1.611318241E0,7.892742426E0,2.636364527E0,8.475974717E0
1.173116108E1,-1.664990125E0,8.713392711E0,1.655910130E0,9.024269667E0
1.174112708E1,-1.477522398E0,9.415617583E0,8.826545982E-1,9.571625048E0
1.175109408E1,-1.240593512E0,9.948931013E0,1.558401377E-1,1.002719236E1
1.176106008E1,-9.889258423E-1,1.039427484E1,-5.735121605E-1,1.045695175E1
1.177102708E1,-7.588611491E-1,1.079523362E1,-1.381274890E0,1.090966816E1
1.178099408E1,-4.454745099E-1,1.112685378E1,-2.225489892E0,1.135597322E1
1.179096008E1,-2.851508734E-1,1.120482172E1,-2.976998752E0,1.159706266E1
1.180092708E1,-4.368405113E-1,1.083108757E1,-3.587307733E0,1.141805870E1
1.181089308E1,-2.973481652E-1,9.947093818E0,-4.292526380E0,1.083784453E1
1.182086008E1,4.985906169E-1,8.860972341E0,-5.861693358E0,1.063601770E1
1.183082608E1,2.366330168E0,7.033925611E0,-8.713071699E0,1.144522811E1
1.184079308E1,4.052760425E0,2.867750545E0,-1.230703941E1,1.327072264E1
1.185076008E1,6.620685339E0,-4.271129079E0,-1.219748598E1,1.452083614E1
1.186072608E1,1.453953207E1,-2.259482242E1,-1.475814865E0,2.690914385E1
1.187069308E1,9.354857996E0,-5.884070419E1,4.863503772E0,5.977788476E1
1.188065908E1,3.162226850E0,-5.943939826E1,-1.404971608E0,5.954003434E1
1.189062608E1,7.675366337E0,-3.910574559E1,-1.490293594E0,3.987971366E1
1.190059308E1,7.578194969E0,-2.206536172E1,-4.928303493E0,2.384528050E1
1.191055908E1,4.044940651E0,-9.691212645E0,-4.910959482E0,1.159304405E1
1.192052608E1,3.195163046E0,-2.945010974E0,-1.373805656E0,4.557356527E0
1.193049208E1,1.773475710E0,1.148498404E-1,1.150598578E0,2.117140446E0
1.194045908E1,7.237876493E-1,7.483535564E-1,2.934684792E0,3.113884460E0
1.195042508E1,4.380008912E-1,-4.403140497E-1,3.090449939E0,3.152237629E0
1.196039208E1,-7.150621417E-1,-2.694877029E0,4.541696412E0,5.329229059E0
1.197035908E1,-1.715778310E0,-4.324001942E0,5.390565652E0,7.120329069E0
1.198032508E1,-1.281255635E0,-4.928307002E0,4.786683930E0,6.988717261E0
1.199029208E1,-1.497229269E-1,-4.833834708E0,3.183813601E0,5.790081518E0
1.200025808E1,6.775192165E-1,-4.100472243E0,1.556001388E0,4.437797339E0
1.201022508E1,1.612847141E0,-3.456843488E0,3.616726537E-1,3.831690216E0
1.202019108E1,2.340250416E0,-2.931982208E0,-4.158536848E-1,3.774417302E0
1.203015808E1,2.454109738E0,-2.101881654E0,-8.052690379E-1,3.330017916E0
1.204012508E1,2.138979313E0,-1.125807699E0,-6.405041488E-1,2.500584140E0
1.205009108E1,1.702293169E0,-1.474936759E-1,-3.384954603E-1,1.741877032E0
1.206005808E1,1.126632156E0,6.152855462E-1,-1.394325583E-1,1.291246590E0
1.207002408E1,4.648665082E-1,1.142531320E0,2.191726461E-2,1.233677047E0
1.207999108E1,-2.214439970E-1,1.415323226E0,1.519223571E-2,1.432622799E0
1.208995708E1,-7.078162721E-1,1.527093923E0,1.844013011E-1,1.693228740E0
1.209992408E1,-1.069124498E0,1.436346890E0,5.277302161E-1,1.866713358E0
1.210989108E1,-1.276095175E0,1.324020123E0,8.969403693E-1,2.045959483E0
1.211985708E1,-1.507148778E0,1.227929320E0,1.129130525E0,2.248164495E0
1.212982408E1,-1.615450906E0,1.268063439E0,1.195787176E0,2.376462389E0
1.213979008E1,-1.651528812E0,1.344354401E0,1.097887244E0,2.395869899E0
1.214975708E1,-1.547656826E0,1.554658282E0,9.637401304E-1,2.396038202E0
1.215972308E1,-1.439395336E0,1.927622933E0,7.662647474E-1,2.524826879E0
1.216969008E1,-1.326872980E0,2.433546250E0,3.814527610E-1,2.797900189E0
1.217965708E1,-1.241647473E0,2.900714808E0,-1.843337658E-1,3.160666667E0
1.218962308E1,-1.223760840E0,3.048904302E0,-8.575102553E-1,3.395398633E0
1.219959008E1,-1.066096810E0,2.808366807E0,-1.527040713E0,3.369768519E0
1.220955608E1,-9.046885148E-1,2.341209944E0,-1.798981557E0,3.088051158E0
1.221952308E1,-7.442572895E-1,1.906107518E0,-1.406126433E0,2.482812182E0
1.222948908E1,-6.053268608E-1,1.459121795E0,-4.947104046E-1,1.655353559E0
1.223945608E1,-5.592589876E-1,1.112228125E0,4.496766114E-1,1.323643106E0
1.224942308E1,-4.741556874E-1,8.096259445E-1,1.084612018E0,1.434120293E0
1.225938908E1,-3.271186790E-1,6.404548860E-1,1.472674764E0,1.638889884E0
1.226935608E1,-2.150526980E-1,7.685551018E-1,1.756313547E0,1.929135009E0
1.227932208E1,-2.504061332E-1,1.159682958E0,1.808372478E0,2.162817332E0
1.228928908E1,-5.095304650E-1,1.806311919E0,1.488857810E0,2.395638041E0
1.229925508E1,-8.157854015E-1,2.436809582E0,1.088784007E0,2.790877527E0
1.230922208E1,-1.074845122E0,2.907612768E0,1.105327241E0,3.291086804E0
1.231918908E1,-1.288250659E0,3.219324911E0,1.430138901E0,3.750858557E0
1.232915508E1,-1.549965892E0,3.443899507E0,1.665296666E0,4.127475144E0
1.233912208E1,-1.688985783E0,3.542673597E0,1.652254744E0,4.258304232E0
1.234908808E1,-1.644522678E0,3.435499982E0,1.564985050E0,4.117801983E0
1.235905508E1,-1.732422701E0,2.833243201E0,1.890712676E0,3.821432961E0
1.236902108E1,-1.724878039E0,9.781345135E-1,2.801017734E0,3.431858348E0
1.237898808E1,-1.508962877E0,-2.866287571E0,4.232144230E0,5.329504498E0
1.238895508E1,-5.237953323E-1,-8.080687140E0,5.501783202E0,9.789866424E0
1.239892108E1,3.348700404E-1,-1.209914517E1,6.460417836E0,1.372000183E1
1.240888808E1,-6.447683769E-1,-1.093222803E1,6.520253563E0,1.274531453E1
1.241885408E1,-1.341398341E0,-6.794529492E0,2.954497789E0,7.529544323E0
1.242882108E1,-4.586272368E-1,-4.938347840E0,2.023488910E-1,4.963724751E0
1.243878808E1,3.268517536E-1,-3.962800135E0,-1.879775313E0,4.398201019E0
1.244875408E1,1.230173774E0,-5.199227214E0,-1.942315085E0,5.684881619E0
1.245872108E1,2.819111066E0,-9.480982438E0,-6.651767676E-1,9.913570261E0
1.246868708E1,6.261537659E0,-1.575615054E1,-7.688597417E-1,1.697216188E1
1.247865408E1,1.038267162E1,-2.393543928E1,-2.936680739E-1,2.609197893E1
1.248862008E1,1.328585513E1,-2.928910315E1,-7.099477284E-1,3.216938818E1
1.249858708E1,1.334916059E1,-2.870734028E1,-8.673689532E-1,3.167118254E1
1.250855408E1,1.023373369E1,-2.515683141E1,-4.815402822E-1,2.716297761E1
1.251852008E1,7.796507782E0,-1.856229716E1,-7.813540721E-1,2.014832310E1
1.252848708E1,5.669261491E0,-1.207665444E1,-1.067059554E0,1.338374852E1
1.253845308E1,3.942135198E0,-8.368313432E0,-3.192768319E-1,9.255865023E0
1.254842008E1,3.194462550E0,-6.032406912E0,6.750410935E-1,6.859315171E0
1.255838608E1,2.849227735E0,-4.682741486E0,5.664641460E-1,5.510630466E0
1.256835308E1,2.940223567E0,-3.006186883E0,-1.800099691E-1,4.208857064E0
1.257832008E1,2.452968362E0,-1.365032494E-1,-1.056847976E0,2.674437243E0
1.258828608E1,8.221252450E-1,3.143961902E0,-1.750565150E0,3.691187438E0
1.259825308E1,-5.260586433E-1,5.494895766E0,-1.823358307E0,5.813368447E0
1.260821908E1,-1.206906680E0,7.419576965E0,-1.800369394E0,7.729687964E0
1.261818608E1,-1.346113243E0,9.554742724E0,-3.098365899E0,1.013434757E1
1.262815308E1,-8.365852632E-1,1.144809045E1,-4.903537027E0,1.248212022E1
1.263811908E1,5.630576313E-3,1.328145568E1,-7.911791486E0,1.545941594E1
1.264808608E1,9.039010410E-1,1.557166504E1,-1.114641505E1,1.917123777E1
1.265805208E1,1.923055819E0,1.800930025E1,-1.323811378E1,2.243391842E1
1.266801908E1,1.668736437E0,1.956252655E1,-1.143550022E1,2.272108694E1
1.267798533E1,4.693008904E-1,2.033730601E1,-7.144078968E0,2.156070786E1
1.268795233E1,-1.106908036E0,2.027216569E1,-3.577693741E0,2.061518469E1
1.269791933E1,-2.172779874E0,1.931335564E1,-2.027152483E0,1.954062501E1
1.270788533E1,-2.706980765E0,1.737908618E1,-2.195070484E0,1.772508718E1
1.271785233E1,-1.712679432E0,1.527657361E1,-2.294556180E0,1.554258537E1
1.272781833E1,-1.127063242E0,1.329533112E1,-1.800947099E0,1.346400801E1
1.273778533E1,-1.364253499E0,1.177899842E1,-9.464303255E-1,1.189544962E1
1.274775133E1,-1.702345355E0,1.077325861E1,-4.765246868E-2,1.090703221E1
1.275771833E1,-1.990712489E0,9.949381249E0,8.120671570E-1,1.017902631E1
1.276768533E1,-2.133292896E0,9.254306352E0,1.531167094E0,9.619646423E0
1.277765133E1,-1.994983296E0,8.639486829E0,1.943690497E0,9.077368769E0
1.278761833E1,-1.811196391E0,8.235799738E0,2.241627184E0,8.725464006E0
1.279758433E1,-1.744886042E0,8.191763772E0,2.235675888E0,8.668786978E0
1.280755133E1,-1.733703388E0,8.354154400E0,1.770927494E0,8.714000652E0
1.281751733E1,-1.647963326E0,8.572625672E0,1.352990738E0,8.833814464E0
1.282748433E1,-1.676370123E0,9.037751212E0,8.817425057E-1,9.234101668E0
1.283745133E1,-1.793905297E0,9.702109516E0,2.738179462E-1,9.870359747E0
1.284741733E1,-1.770501085E0,1.012349730E1,-3.265119573E-1,1.028233834E1
1.285738433E1,-1.738866918E0,1.034388821E1,-1.035191059E0,1.053998586E1
1.286735033E1,-1.525264037E0,1.042405588E1,-1.655683551E0,1.066436399E1
1.287731733E1,-1.240949608E0,1.054824138E1,-2.100294135E0,1.082666096E1
1.288728333E1,-9.893980050E-1,1.066361630E1,-2.283562392E0,1.095017252E1
1.289725033E1,-8.100855356E-1,1.053542779E1,-2.102574549E0,1.077368540E1
1.290721733E1,-9.784162031E-1,1.051910821E1,-1.550030065E0,1.067761814E1
1.291718333E1,-1.215207679E0,1.064059464E1,-7.865485923E-1,1.073860525E1
1.292715033E1,-1.205421925E0,1.065135352E1,-4.424960844E-1,1.072847504E1
1.293711633E1,-1.017532175E0,1.022965233E1,-9.131548445E-1,1.032061094E1
1.294708333E1,-7.666129491E-1,9.400605442E0,-1.779894491E0,9.598286435E0
1.295704933E1,-6.108942872E-1,8.130821167E0,-3.089619634E0,8.719472127E0
1.296701633E1,-3.064458480E-1,6.244301237E0,-6.020474499E0,8.679361739E0
1.297698333E1,1.081195490E0,2.948384233E0,-9.118569088E0,9.644182469E0
1.298694933E1,6.008081326E0,-4.551588439E0,-9.911107714E0,1.245166875E1
1.299691633E1,1.540925395E1,-3.261293418E1,-5.428719903E0,3.647628795E1
1.300688233E1,1.348978847E1,-8.159211270E1,-1.886962272E0,8.272126616E1
1.301684933E1,9.730431089E0,-6.744711800E1,-7.933305146E0,6.860562911E1
1.302681633E1,9.416830881E0,-2.980527664E1,-7.051685359E0,3.204305675E1
1.303678233E1,3.810665816E0,-9.292006275E0,-2.144140943E0,1.026936682E1
1.304674933E1,1.945468050E-1,-9.097682834E-1,2.450046801E0,2.620735796E0
1.305671533E1,-1.976063021E0,3.859517257E0,2.734403330E0,5.126174021E0
1.306668233E1,-3.752906435E0,6.440140861E0,2.462985227E0,7.850224026E0
1.307664833E1,-3.772522967E0,6.611819206E0,3.468003776E0,8.365114042E0
1.308661533E1,-2.608321865E0,3.618855801E0,4.799612124E0,6.552536669E0
1.309658233E1,-1.054436000E0,-4.533077323E-1,5.351921403E0,5.473608123E0
1.310654833E1,5.904839963E-2,-3.952492079E0,4.052253471E0,5.660957387E0
1.311651533E1,6.615183109E-1,-7.372508633E0,2.841008011E0,7.928607478E0
1.312648133E1,1.570297830E0,-1.052776326E1,8.980416924E-1,1.068204632E1
1.313644833E1,3.454389412E0,-1.290509731E1,-1.789317279E0,1.347872394E1
1.314641433E1,5.435921919E0,-1.265622110E1,-3.344352122E0,1.417440901E1
1.315638133E1,5.892615774E0,-9.230740904E0,-2.564215733E0,1.124743084E1
1.316634833E1,4.792671479E0,-5.025705242E0,-1.168779179E0,7.042262268E0
1.317631433E1,2.500198954E0,-2.207691114E0,-5.055105042E-1,3.373490141E0
1.318628133E1,6.543253586E-1,-4.379962134E-1,4.013128290E-1,8.837614749E-1
1.319624733E1,-5.145842135E-1,5.343057024E-1,8.325370896E-1,1.115077352E0
1.320621433E1,-8.917363474E-1,8.139949840E-1,8.056466219E-1,1.451498545E0
1.321618033E1,-8.775597730E-1,3.660041249E-1,8.017927220E-1,1.243761128E0
1.322614733E1,-8.373949564E-1,-6.548378670E-1,1.079355956E0,1.514942977E0
1.323611433E1,-5.894920161E-1,-1.796175186E0,1.221607603E0,2.250793476E0
1.324608033E1,-5.039440352E-1,-2.342641343E0,8.011974755E-1,2.526627287E0
1.325604733E1,-6.719959366E-1,-1.995370528E0,1.317579415E-1,2.109607128E0
1.326601333E1,-1.001691776E0,-7.330607486E-1,-2.423498395E-1,1.264712584E0
1.327598033E1,-6.448256797E-1,9.567524153E-1,-1.954428908E-1,1.170202232E0
1.328594733E1,2.050384641E-2,2.260407856E0,-1.720829719E-1,2.267041383E0
1.329591333E1,1.227815884E-1,3.269199321E0,-2.065096235E-1,3.278015519E0
1.330588033E1,1.047242171E-1,3.932065415E0,-3.607585877E-1,3.949968652E0
1.331584633E1,9.672317952E-2,4.293874748E0,-4.963704291E-1,4.323551703E0
1.332581333E1,-1.148969105E-1,4.545726605E0,-4.491108933E-1,4.569303258E0
1.333577933E1,-4.984195858E-1,4.539306362E0,-1.860578173E-1,4.570376554E0
1.334574633E1,-9.915298998E-1,4.231927006E0,2.449132589E-1,4.353426264E0
1.335571333E1,-1.297324076E0,3.884788338E0,6.762094402E-1,4.151131098E0
1.336567933E1,-1.482853889E0,3.657515836E0,9.501959324E-1,4.059451941E0
1.337564633E1,-1.625853688E0,3.538247840E0,1.112451781E0,4.049709490E0
1.338561233E1,-1.651575589E0,3.354641760E0,1.128028764E0,3.905607783E0
1.339557933E1,-1.652791518E0,3.083313412E0,8.949338973E-1,3.611017596E0
1.340554533E1,-1.699426863E0,2.910908843E0,4.174584532E-1,3.396426581E0
1.341551233E1,-1.753714168E0,3.004596441E0,1.054010323E-1,3.480549171E0
1.342547933E1,-1.843623295E0,3.364735808E0,-8.090646118E-2,3.837569513E0
1.343544533E1,-1.931499052E0,3.849981033E0,-1.374165845E-1,4.309515733E0
1.344541233E1,-1.919400871E0,4.265888804E0,-1.513613167E-1,4.680258245E0
1.345537833E1,-1.681117185E0,4.535851243E0,-3.481286019E-2,4.837490405E0
1.346534533E1,-1.452084964E0,4.542315339E0,1.086017981E-1,4.770007729E0
1.347531133E1,-1.171142331E0,4.221924174E0,4.903293782E-1,4.408700602E0
1.348527833E1,-1.007241661E0,3.442145927E0,9.646739307E-1,3.713960169E0
1.349524533E1,-1.017002418E0,1.870562879E0,1.660707479E0,2.700231237E0
1.350521133E1,-1.318340723E0,-1.152886155E0,3.356450011E0,3.785885026E0
1.351517833E1,-2.316570655E0,-4.814326642E0,5.025964859E0,7.335159397E0
1.352514433E1,-3.185672138E0,-7.653432262E0,5.535283070E0,9.968093650E0
1.353511133E1,-3.169116916E0,-8.623096499E0,4.848731367E0,1.038803596E1
1.354507733E1,-2.479031156E0,-7.708312474E0,4.990563476E0,9.511540384E0
1.355504433E1,-1.540788102E0,-5.542244765E0,4.190141926E0,7.116726380E0
1.356501133E1,-3.315312803E-1,-4.261149636E0,2.255886643E0,4.832839099E0
1.357497733E1,1.550975706E0,-5.741518459E0,5.664329365E-1,5.974228496E0
1.358494433E1,4.104109211E0,-1.005805994E1,-8.271927345E-1,1.089461013E1
1.359491033E1,7.014431579E0,-1.688344343E1,-1.269153360E0,1.832658350E1
1.360487733E1,1.001430171E1,-2.437197837E1,-1.727117815E0,2.640572863E1
1.361484333E1,9.927959390E0,-2.861850938E1,-2.616873418E0,3.040446486E1
1.362481033E1,8.131561425E0,-2.614079151E1,-1.469068640E0,2.741571510E1
1.363477733E1,6.142467299E0,-2.180455251E1,-1.553802981E0,2.270644663E1
1.364474333E1,4.621155395E0,-1.822198453E1,-2.712887915E0,1.899356623E1
1.365471033E1,4.110260774E0,-1.530725746E1,-2.859161862E0,1.610531530E1
1.366467633E1,3.803730142E0,-1.302294911E1,-1.500849134E0,1.364983936E1
1.367464333E1,3.761070318E0,-1.139619875E1,-6.794745255E-1,1.202001171E1
1.368460996E1,4.060818765E0,-9.733459362E0,-6.091324481E-1,1.056416218E1
1.369457596E1,3.869795200E0,-8.231347668E0,-9.702682543E-1,9.147230171E0
1.370454296E1,3.823035309E0,-6.274691556E0,-1.386791153E0,7.477335273E0
1.371450896E1,3.405208481E0,-3.593461928E0,-1.268872694E0,5.110621424E0
1.372447596E1,1.739895882E0,-7.059401929E-2,-1.104892209E0,2.062282228E0
1.373444196E1,-2.316525047E-1,3.780424894E0,-1.053719789E0,3.931361171E0
1.374440896E1,-1.007365037E0,6.948660343E0,-1.312484736E0,7.142918245E0
1.375437596E1,-5.898805636E-1,9.189734380E0,-2.018636599E0,9.427304534E0
1.376434196E1,2.597110999E-1,1.096076478E1,-4.097929873E0,1.170465052E1
1.377430896E1,1.260291466E0,1.275331879E1,-7.196810328E0,1.469794386E1
1.378427496E1,2.561377494E0,1.503755814E1,-1.064253475E1,1.859979450E1
1.379424196E1,3.579508717E0,1.786475240E1,-1.373644858E1,2.281780622E1
1.380420796E1,3.347131011E0,1.999129819E1,-1.327116926E1,2.422765410E1
1.381417496E1,2.175461115E0,2.136232525E1,-8.720021700E0,2.317585704E1
1.382414196E1,8.870347475E-1,2.228596313E1,-4.122642546E0,2.268142775E1
1.383410796E1,-3.878501996E-2,2.187523365E1,-1.913494306E0,2.195879806E1
1.384407496E1,-7.097473150E-1,2.068206018E1,-1.000769670E0,2.071841921E1
1.385404096E1,-1.236660529E0,1.867583606E1,-6.688290846E-1,1.872868159E1
1.386400796E1,-1.932784124E0,1.596693799E1,-9.952896595E-1,1.611425967E1
1.387397396E1,-2.299877293E0,1.360994407E1,-1.026044260E0,1.384098190E1
1.388394096E1,-2.390761296E0,1.181405949E1,-7.803354871E-1,1.207876917E1
1.389390796E1,-2.417274180E0,1.056769858E1,-5.888461912E-1,1.085662045E1
1.390387396E1,-2.377895960E0,9.673178662E0,-2.669780195E-1,9.964740433E0
1.391384096E1,-2.358669584E0,8.983267441E0,2.986208117E-1,9.292555651E0
1.392380696E1,-2.555266569E0,8.178761904E0,1.191635653E0,8.651099875E0
1.393377396E1,-2.783542453E0,7.259258006E0,3.023223331E0,8.341751297E0
1.394373996E1,-2.804688031E0,6.553540007E0,4.707567594E0,8.542619870E0
1.395370696E1,-2.402984462E0,6.394089360E0,5.266596494E0,8.625297195E0
1.396367396E1,-1.710658634E0,6.719685717E0,4.613034489E0,8.328302125E0
1.397363996E1,-1.243117317E0,7.260168418E0,3.296564291E0,8.069865069E0
1.398360696E1,-8.380140303E-1,7.756533877E0,1.951917529E0,8.042143205E0
1.399357296E1,-7.508900785E-1,8.247885348E0,7.480438001E-1,8.315709119E0
1.400353996E1,-1.013705173E0,8.751133565E0,-3.018800497E-2,8.809701934E0
1.401350696E1,-1.173519371E0,9.106205735E0,-5.859564241E-1,9.200188886E0
1.402347296E1,-1.000243859E0,9.290144522E0,-1.016842423E0,9.399002156E0
1.403343996E1,-4.779074071E-1,9.249749617E0,-1.249740604E0,9.346021348E0
1.404340596E1,-1.101393235E-1,9.220628729E0,-1.316823370E0,9.314834868E0
1.405337296E1,1.236441989E-1,9.283692704E0,-1.440508208E0,9.395600141E0
1.406333896E1,2.737374008E-1,9.334702059E0,-1.579113092E0,9.471282535E0
1.407330596E1,4.398796016E-1,9.340490803E0,-1.860881059E0,9.534208977E0
1.408327296E1,6.875050914E-1,9.155667332E0,-2.398886880E0,9.489655727E0
1.409323896E1,7.602970791E-1,8.677616522E0,-3.617830199E0,9.432273083E0
1.410320596E1,1.079914073E0,7.649637419E0,-6.175621011E0,9.890473291E0
1.411317196E1,1.528343181E0,5.349539248E0,-1.097765388E1,1.230700158E1
1.412313896E1,2.202180406E0,8.940702635E-1,-1.400045154E1,1.420076066E1
1.413310496E1,5.580244650E0,-6.368386754E0,-1.152255591E1,1.429911798E1
1.414307196E1,1.093513410E1,-2.977198259E1,-1.633021205E0,3.175869745E1
1.415303896E1,6.781598375E0,-6.008537993E1,6.796487725E0,6.084763926E1
1.416300496E1,3.673062413E0,-5.846043403E1,4.701951636E0,5.876412242E1
1.417297196E1,6.230125247E0,-3.739537420E1,-5.762074345E0,3.834618590E1
1.418293796E1,7.527991945E0,-1.683805851E1,-1.128054433E1,2.162039680E1
1.419290496E1,3.937763819E0,-4.854767740E0,-6.479856319E0,9.003515515E0
1.420287096E1,2.488095218E0,-1.169826708E0,-9.246997333E-1,2.900720934E0
1.421283796E1,7.432767114E-1,-2.410426944E-1,1.046214230E0,1.305804758E0
1.422280496E1,-6.481591773E-1,-4.485907835E-1,2.045151675E0,2.191800489E0
1.423277096E1,-1.701856674E0,-2.291066562E0,4.182343787E0,5.063329111E0
1.424273796E1,-2.355450838E0,-4.360784436E0,4.810045896E0,6.906600544E0
1.425270396E1,-1.588791404E0,-4.708642897E0,3.013887959E0,5.811978724E0
1.426267096E1,2.374779394E-1,-4.133510181E0,1.639096023E0,4.452969566E0
1.427263796E1,1.239415883E0,-3.665889049E0,1.510522768E0,4.154103186E0
1.428260396E1,1.564307650E0,-3.372924834E0,1.832386554E0,4.145035687E0
1.429257096E1,1.879885095E0,-3.540903645E0,1.453196812E0,4.264240562E0
1.430253696E1,2.173151903E0,-3.668384056E0,9.621241061E-1,4.370962545E0
1.431250396E1,2.171381951E0,-3.203999943E0,7.815401597E-1,3.948584586E0
1.432246996E1,1.640985990E0,-2.537363564E0,7.855395091E-1,3.122198135E0
1.433243696E1,6.484874985E-1,-1.626646278E0,1.058132464E0,2.046010376E0
1.434240396E1,-2.035152644E-2,-6.957981974E-1,1.480094881E0,1.635613088E0
1.435236996E1,-1.058660029E0,2.181549382E-1,1.804074190E0,2.103101594E0
1.436233696E1,-2.031570347E0,9.119797003E-1,2.173094308E0,3.111482592E0
1.437230296E1,-2.603072235E0,1.527331320E0,2.400958841E0,3.856595568E0
1.438226996E1,-2.715156342E0,1.619298082E0,2.529293530E0,4.048644959E0
1.439223596E1,-2.710634691E0,1.492302990E0,2.344867086E0,3.882384614E0
1.440220296E1,-2.755348933E0,1.509578004E0,1.881292520E0,3.661971469E0
1.441216996E1,-2.522081866E0,1.830434607E0,1.247234780E0,3.356632596E0
1.442213596E1,-1.723598668E0,2.320885608E0,7.241001830E-1,2.980205269E0
1.443210296E1,-8.878877100E-1,2.462748415E0,3.782008320E-1,2.645091721E0
1.444206896E1,-2.323206952E-1,2.218858126E0,-9.790782541E-2,2.233134620E0
1.445203596E1,4.081631345E-1,1.932800642E0,-5.771117064E-1,2.058002281E0
1.446200196E1,9.434719267E-1,1.825993062E0,-8.041701999E-1,2.207052254E0
1.447196896E1,1.148341699E0,1.962628459E0,-7.486403623E-1,2.393963558E0
1.448193596E1,1.005810262E0,2.315041900E0,-5.100175381E-1,2.575109934E0
1.449190196E1,7.006861773E-1,2.690209782E0,-1.223652667E-1,2.782653957E0
1.450186896E1,1.210227460E-1,3.068539252E0,4.026462865E-1,3.097209015E0
1.451183496E1,-3.865474400E-1,3.466135883E0,8.430971611E-1,3.588081619E0
1.452180196E1,-7.917413583E-1,3.919881572E0,9.487928930E-1,4.110052782E0
1.453176896E1,-1.112280750E0,4.380574923E0,8.544369587E-1,4.599637772E0
1.454173496E1,-1.376181965E0,4.851048326E0,6.146490768E-1,5.079797255E0
1.455170196E1,-1.651977001E0,5.162958105E0,4.477952698E-1,5.439272470E0
1.456166796E1,-1.958311459E0,5.278173396E0,5.729025882E-1,5.658826340E0
1.457163496E1,-2.335351619E0,5.259015579E0,6.628082067E-1,5.792273022E0
1.458160096E1,-2.525531431E0,4.992817578E0,7.294992095E-1,5.642579682E0
1.459156796E1,-2.771488418E0,4.239040729E0,8.046251133E-1,5.128161067E0
1.460153496E1,-3.160343169E0,2.108924040E0,1.247183617E0,3.998849401E0
1.461150096E1,-3.310835590E0,-2.133636128E0,2.831893372E0,4.851149915E0
1.462146796E1,-3.340928870E0,-6.376993856E0,4.935852249E0,8.728716617E0
1.463143396E1,-3.181733161E0,-7.576701590E0,6.418556449E0,1.042725754E1
1.464140096E1,-2.715571202E0,-5.607366959E0,6.489391959E0,8.996060202E0
1.465136696E1,-1.922108131E0,-3.260085851E0,5.289822804E0,6.504220531E0
1.466133396E1,-9.562311360E-1,-1.568886897E0,3.206208436E0,3.695342558E0
1.467130096E1,8.402592149E-1,-1.144677249E0,7.467166284E-1,1.604340137E0
1.468126671E1,3.666542183E0,-2.432721208E0,-7.939115524E-1,4.471236922E0
1.469123371E1,7.050818217E0,-5.991087563E0,-6.729548800E-1,9.276854854E0
1.470119971E1,9.092399874E0,-1.204166938E1,-2.128724174E-1,1.509035624E1
1.471116671E1,8.408752191E0,-1.911871820E1,-1.674278720E0,2.095317896E1
1.472113371E1,7.718994752E0,-2.269275393E1,-2.865116959E0,2.414027456E1
1.473109971E1,7.528145726E0,-2.162660537E1,-1.844482981E0,2.297357515E1
1.474106671E1,6.506314970E0,-2.022056050E1,-1.665910185E0,2.130677025E1
1.475103271E1,5.324159993E0,-1.927536277E1,-2.721406431E0,2.018148514E1
1.476099971E1,4.775739112E0,-1.821770905E1,-3.080051250E0,1.908348298E1
1.477096571E1,4.213142534E0,-1.712713667E1,-2.825514936E0,1.786261222E1
1.478093271E1,3.515418263E0,-1.642494103E1,-2.350822475E0,1.696063737E1
1.479089971E1,3.267941878E0,-1.526010551E1,-2.033605324E0,1.573803720E1
1.480086571E1,3.576247433E0,-1.252658482E1,-1.729030585E0,1.314132488E1
1.481083271E1,3.406007503E0,-8.789240454E0,-1.992347225E0,9.634369846E0
1.482079871E1,2.243981858E0,-5.216839027E0,-2.862678670E0,6.359700715E0
1.483076571E1,2.282907357E0,-1.698154217E0,-3.807199295E0,4.752910710E0
1.484073171E1,2.742116100E0,1.503885155E0,-4.244851692E0,5.272536121E0
1.485069871E1,2.070798732E0,4.353270764E0,-4.354530255E0,6.496237948E0
1.486066571E1,7.119283265E-1,6.768143932E0,-4.312227988E0,8.056669563E0
1.487063171E1,-3.147027013E-1,8.973022535E0,-3.903740333E0,9.790472909E0
1.488059871E1,-6.487911151E-1,1.080957918E1,-3.551589432E0,1.139656612E1
1.489056471E1,-5.873259151E-1,1.216024857E1,-3.437019088E0,1.265028447E1
1.490053171E1,-1.409237444E-2,1.332260721E1,-3.645558865E0,1.381239158E1
1.491049871E1,7.715506303E-1,1.453438419E1,-4.035301516E0,1.510388269E1
1.492046471E1,1.325590101E0,1.595341572E1,-4.264297192E0,1.656661983E1
1.493043171E1,1.305514271E0,1.724554045E1,-3.799553475E0,1.770733293E1
1.494039771E1,-2.025729856E-1,1.775653213E1,-2.649794412E0,1.795429975E1
1.495036471E1,-1.413882619E0,1.793251461E1,-1.151797330E0,1.802500434E1
1.496033071E1,-1.614510382E0,1.802026378E1,1.366762539E-1,1.809296081E1
1.497029771E1,-2.205837254E0,1.726367734E1,8.196322116E-1,1.742331973E1
1.498026471E1,-3.229919481E0,1.479316090E1,9.598567021E-1,1.517205702E1
1.499023071E1,-3.498710429E0,1.244997109E1,6.873918016E-1,1.295049274E1
1.500019771E1,-3.276621777E0,1.101464805E1,5.138393513E-1,1.150316273E1
1.501016371E1,-3.044687583E0,1.005264308E1,5.181522576E-1,1.051637947E1
1.502013071E1,-2.725355641E0,9.417141368E0,7.564286343E-1,9.832715759E0
1.503009671E1,-2.524582428E0,9.019393879E0,9.610119657E-1,9.415228429E0
1.504006371E1,-2.523513265E0,8.558774788E0,1.102707543E0,8.990923701E0
1.505003071E1,-2.409636693E0,8.120142397E0,1.574673886E0,8.615257361E0
1.505999671E1,-2.156289703E0,7.754998983E0,2.198726163E0,8.344099187E0
1.506996371E1,-1.766195634E0,7.528838621E0,2.869905828E0,8.248588817E0
1.507992971E1,-1.310637893E0,7.417928635E0,3.434766741E0,8.278952801E0
1.508989671E1,-8.770675837E-1,7.424703804E0,3.839599886E0,8.404641658E0
1.509986271E1,-7.418765956E-1,7.418313382E0,3.915396173E0,8.420931154E0
1.510982971E1,-1.093541594E0,7.624662207E0,3.494410679E0,8.458263000E0
1.511979671E1,-1.954686770E0,8.306029476E0,2.629565384E0,8.928915955E0
1.512976271E1,-2.335602757E0,9.066476828E0,1.836268959E0,9.540855623E0
1.513972971E1,-2.246888509E0,9.646373856E0,1.236366706E0,9.981464781E0
1.514969571E1,-2.071987471E0,1.005569766E1,6.927536984E-1,1.029029131E1
1.515966271E1,-1.840463752E0,1.045737565E1,4.523888424E-2,1.061819471E1
1.516962871E1,-1.416400868E0,1.085198786E1,-6.726250970E-1,1.096468223E1
1.517959571E1,-8.720902875E-1,1.131629538E1,-1.585945125E0,1.146011800E1
1.518956271E1,-1.471837735E-1,1.192795390E1,-2.343933431E0,1.215696389E1
1.519952871E1,3.951387540E-1,1.254453460E1,-2.858920957E0,1.287225357E1
1.520949571E1,2.396150967E-1,1.281953383E1,-3.499736323E0,1.329082455E1
1.521946171E1,-7.758693838E-1,1.183621927E1,-4.220115631E0,1.258997362E1
1.522942871E1,-1.057356099E0,9.858428979E0,-5.653637731E0,1.141359906E1
1.523939471E1,8.031121463E-2,7.104749426E0,-8.657040170E0,1.119947583E1
1.524936171E1,4.653113936E0,2.067599428E0,-1.366802563E1,1.458565601E1
1.525932871E1,1.446965434E1,-1.706539943E1,-8.384523668E0,2.389349266E1
1.526929471E1,1.141163189E1,-5.737041947E1,2.228411892E0,5.853679349E1
1.527926171E1,4.706232090E0,-7.377989579E1,1.951460569E0,7.395559372E1
1.528922771E1,1.200376305E1,-4.543587811E1,-8.476543640E0,4.775312700E1
1.529919471E1,1.114144375E1,-1.568178331E1,-1.147298205E1,2.239820113E1
1.530916171E1,5.865385290E0,-1.740748844E0,-7.667479613E0,9.809342218E0
1.531912771E1,4.410449517E0,1.393972118E0,-3.630035092E0,5.879828057E0
1.532909471E1,1.068081647E0,1.031799674E-2,4.657924148E-1,1.165275693E0
1.533906071E1,-4.092218313E0,-2.807975628E0,6.847945561E0,8.457265295E0
1.534902771E1,-5.641824601E0,-4.373030845E0,9.596139257E0,1.195991105E1
1.535899371E1,-3.866231907E0,-4.281206170E0,6.950080047E0,9.032169622E0
1.536896071E1,-3.531338185E0,-4.163671288E0,3.842670844E0,6.676273451E0
1.537892771E1,-1.894025124E0,-4.438710279E0,1.964804792E0,5.210560237E0
1.538889371E1,-3.444235137E-1,-4.607422332E0,2.056586198E0,5.057322897E0
1.539886071E1,4.413466680E-1,-4.910543745E0,1.271471635E0,5.091646774E0
1.540882671E1,1.862992781E0,-5.413501940E0,-5.823263995E-1,5.754637208E0
1.541879371E1,3.385717080E0,-6.377277446E0,-1.591824647E0,7.393690112E0
1.542876071E1,4.887587869E0,-7.389937429E0,-1.705914057E0,9.022739781E0
1.543872671E1,6.044750969E0,-7.546931661E0,-1.492323748E0,9.783773400E0
1.544869371E1,5.761189077E0,-6.621323270E0,-1.177517843E0,8.855493758E0
1.545865971E1,3.954826872E0,-4.836926715E0,-5.904600227E-1,6.275759609E0
1.546862671E1,1.987427085E0,-2.925135119E0,1.324496672E-1,3.538901637E0
1.547859271E1,6.391743457E-1,-1.370098522E0,4.140375397E-1,1.567526997E0
1.548855971E1,-1.871149939E-1,-1.840919834E-1,4.774453309E-1,5.448448617E-1
1.549852671E1,-7.480781525E-1,7.115640450E-1,6.226536226E-1,1.205670704E0
1.550849271E1,-1.151822254E0,1.403321232E0,7.537552142E-1,1.965744619E0
1.551845971E1,-1.197177936E0,1.807885405E0,8.889606741E-1,2.343487941E0
1.552842571E1,-1.101296171E0,1.829026013E0,1.034421273E0,2.372386306E0
1.553839271E1,-9.529771605E-1,1.643519003E0,9.685436180E-1,2.132462643E0
1.554835871E1,-7.802743837E-1,1.353446236E0,7.836976361E-1,1.747806286E0
1.555832571E1,-7.472414160E-1,1.031539473E0,6.988162377E-1,1.452854966E0
1.556829271E1,-8.741599095E-1,8.230950058E-1,5.837272462E-1,1.335057465E0
1.557825871E1,-1.104247261E0,9.341371393E-1,5.366644692E-1,1.542719339E0
1.558822571E1,-1.171316578E0,1.277345309E0,6.060112774E-1,1.835985630E0
1.559819171E1,-1.144462071E0,1.745366975E0,4.447652426E-1,2.133990495E0
1.560815871E1,-1.049382252E0,2.206880690E0,1.199945131E-1,2.446614839E0
1.561812471E1,-9.904063573E-1,2.459695584E0,1.418856114E-2,2.651642591E0
1.562809171E1,-9.579303369E-1,2.596481254E0,9.982512742E-2,2.769351998E0
1.563805871E1,-8.855382988E-1,2.693491824E0,2.856388235E-1,2.849678196E0
1.564802471E1,-9.433207762E-1,2.747363391E0,6.550179613E-1,2.977735418E0
1.565799171E1,-1.087398509E0,2.828339142E0,9.936150169E-1,3.188919663E0
1.566795771E1,-1.215809796E0,2.936706759E0,1.214579835E0,3.402593749E0
1.567792471E1,-1.254214016E0,3.159455270E0,1.359393732E0,3.661032876E0
1.568789171E1,-1.227703618E0,3.526071013E0,1.447180027E0,4.004343016E0
1.569785771E1,-1.249657281E0,3.954575441E0,1.506130486E0,4.412339434E0
1.570782471E1,-1.352097868E0,4.370719441E0,1.589452724E0,4.843316739E0
1.571779071E1,-1.439387150E0,4.754064068E0,1.637909769E0,5.230268535E0
1.572775771E1,-1.545120304E0,5.087835417E0,1.572608650E0,5.544958426E0
1.573772371E1,-1.604961002E0,5.432037029E0,1.341929268E0,5.820970732E0
1.574769071E1,-1.553521291E0,5.826539898E0,1.074814131E0,6.125130284E0
1.575765771E1,-1.536013851E0,6.192866204E0,8.554540819E-1,6.437602975E0
1.576762371E1,-1.394038777E0,6.570317423E0,5.731721449E-1,6.740989650E0
1.577759071E1,-1.277595570E0,6.661555037E0,3.484320724E-1,6.791904804E0
1.578755671E1,-1.381204138E0,6.286409376E0,3.817734808E-2,6.436468381E0
1.579752371E1,-1.431090536E0,5.058606940E0,-5.302649841E-1,5.283815406E0
1.580748971E1,-1.458637061E0,2.339011391E0,-7.130574238E-1,2.847287701E0
1.581745671E1,-1.429140782E0,-3.849941272E0,1.641163453E0,4.422432435E0
1.582742371E1,-2.462150537E0,-1.048616968E1,5.347206209E0,1.202557916E1
1.583738971E1,-3.308874141E0,-1.360278006E1,7.653666151E0,1.595502676E1
1.584735671E1,-3.156017399E0,-1.316429034E1,7.594444381E0,1.552206724E1
1.585732271E1,-1.824483019E0,-9.551849522E0,5.756070424E0,1.130039443E1
1.586728971E1,-4.102798265E-1,-5.442093655E0,3.247138069E0,6.350481755E0
1.587725571E1,1.261492631E0,-4.052395266E0,1.240435345E0,4.421758801E0
1.588722271E1,3.144382025E0,-5.708457132E0,-1.563969389E-2,6.517197691E0
1.589718971E1,5.389851122E0,-1.030656309E1,-3.838416409E-1,1.163714193E1
1.590715571E1,8.235119122E0,-1.854606529E1,-9.938009584E-1,2.031652936E1
1.591712271E1,1.084940690E1,-2.978941431E1,-3.101470771E0,3.185495183E1
1.592708871E1,1.296816070E1,-3.561447603E1,-4.662401069E0,3.818772157E1
1.593705571E1,1.171262316E1,-3.335056745E1,-3.307969869E0,3.550195143E1
1.594702271E1,8.610784602E0,-2.645240132E1,-2.098573884E0,2.789765509E1
1.595698871E1,6.837210073E0,-1.789832477E1,-2.202671864E0,1.928598545E1
1.596695571E1,4.668909605E0,-1.290759524E1,-1.411312037E0,1.379842503E1
1.597692171E1,3.255783762E0,-1.052044606E1,-3.374883505E-1,1.101788598E1
1.598688871E1,2.191623550E0,-8.211747801E0,5.260871485E-2,8.499340175E0
1.599685471E1,1.562640024E0,-5.675229160E0,-3.095048189E-2,5.886512362E0
1.600682171E1,8.349490660E-1,-2.978298588E0,-5.118838962E-1,3.135191788E0
1.601678871E1,7.169320813E-1,3.460288668E-1,-1.367772499E0,1.582570439E0
1.602675471E1,1.232848144E0,3.837014247E0,-2.466163774E0,4.724886944E0
1.603672171E1,1.114602241E0,6.986266125E0,-3.070679333E0,7.712283974E0
1.604668771E1,9.727919126E-1,9.232424902E0,-3.756755365E0,1.001484920E1
1.605665471E1,1.337221382E0,1.109128282E1,-4.784925672E0,1.215319832E1
1.606662171E1,1.922203880E0,1.262720955E1,-5.897425109E0,1.406843672E1
1.607658771E1,2.446092767E0,1.428360295E1,-7.077754000E0,1.612759390E1
1.608655471E1,2.360261489E0,1.592924567E1,-7.683143719E0,1.784215231E1
1.609652071E1,2.324711733E0,1.790889420E1,-8.369840140E0,1.990444674E1
1.610648771E1,1.139797601E0,1.942217934E1,-7.905189979E0,2.100029089E1
1.611645371E1,-5.746987067E-1,2.018515912E1,-6.125758295E0,2.110203407E1
1.612642071E1,-1.458328036E0,2.005455571E1,-4.689139509E0,2.064703259E1
1.613638771E1,-1.804297553E0,1.946126096E1,-3.989849939E0,1.994780866E1
1.614635371E1,-2.280904393E0,1.774520374E1,-3.300219970E0,1.819302703E1
1.615632071E1,-2.070378171E0,1.494804663E1,-2.534514216E0,1.530210201E1
1.616628671E1,-1.908917398E0,1.282189026E1,-1.808319268E0,1.308873004E1
1.617625371E1,-2.189889851E0,1.132499019E1,-1.136582948E0,1.159063592E1
1.618621971E1,-2.386003856E0,1.035861384E1,-6.380282915E-1,1.064898940E1
1.619618671E1,-2.387545035E0,9.748325908E0,-3.295233464E-1,1.004185316E1
1.620615371E1,-2.265894299E0,9.358176876E0,-1.037085740E-1,9.629148814E0
1.621611971E1,-2.079725530E0,8.958184056E0,9.716904799E-2,9.196943062E0
1.622608671E1,-1.860905033E0,8.587772884E0,2.970233889E-1,8.792100633E0
1.623605271E1,-1.752076655E0,8.293031116E0,6.294691372E-1,8.499433457E0
1.624601971E1,-1.764950177E0,8.093506576E0,1.254704890E0,8.378196834E0
1.625598571E1,-1.770627239E0,8.052119983E0,1.882992890E0,8.456797223E0
1.626595271E1,-1.848919995E0,8.109625010E0,2.461367887E0,8.674263936E0
1.627591971E1,-1.903092109E0,8.207984533E0,2.937162842E0,8.922986901E0
1.628588571E1,-1.906306616E0,8.391226916E0,3.054388990E0,9.131045185E0
1.629585271E1,-1.842430024E0,8.611188059E0,2.738085029E0,9.221942193E0
1.630581871E1,-1.572004925E0,8.831065003E0,2.292567104E0,9.258227287E0
1.631578571E1,-1.292173848E0,9.089673318E0,1.833999216E0,9.362447725E0
1.632575171E1,-1.116146345E0,9.353185692E0,1.413629873E0,9.525030954E0
1.633571871E1,-1.200075231E0,9.664859244E0,9.947340278E-1,9.789748748E0
1.634568571E1,-1.464255651E0,9.976913449E0,5.409669967E-1,1.009829153E1
1.635565171E1,-1.788415346E0,1.022999614E1,2.695332527E-2,1.038518065E1
1.636561871E1,-2.220947337E0,1.035773442E1,-6.142337783E-1,1.061096379E1
1.637558471E1,-2.681328446E0,1.012715765E1,-1.527274017E0,1.058685082E1
1.638555171E1,-2.747194406E0,9.309908110E0,-2.757230860E0,1.009077738E1
1.639551871E1,-2.491716983E0,7.919202247E0,-4.967690338E0,9.674728164E0
1.640548471E1,-2.020067997E0,5.243166701E0,-9.975027137E0,1.144869591E1
1.641545171E1,7.425127727E-1,-7.519987106E-1,-1.522867790E1,1.526530241E1
1.642541771E1,8.187236273E0,-1.563622415E1,-1.666792208E1,2.427636649E1
1.643538471E1,1.866833876E1,-4.881896014E1,-1.123238666E1,5.345993127E1
1.644535071E1,1.850573587E1,-6.463120185E1,-5.583537217E0,6.745984287E1
1.645531771E1,1.035653925E1,-3.887298431E1,-3.709447590E0,4.039958930E1
1.646528471E1,8.162362218E0,-1.972466048E1,-3.091122661E0,2.156945589E1
1.647525071E1,3.524217738E0,-8.719570879E0,-4.089563677E0,1.025551354E1
1.648521771E1,4.198180971E-1,-2.331446264E0,-1.303168952E0,2.703726731E0
1.649518371E1,4.971156567E-1,1.571485984E-1,1.468470616E0,1.558276486E0
1.650515071E1,-9.085345209E-2,6.297767007E-1,2.871780153E0,2.941427254E0
1.651511771E1,-2.121361360E0,4.560664487E-1,4.584679294E0,5.072223857E0
1.652508371E1,-3.969554254E0,-5.305272317E-1,5.353593707E0,6.685789834E0
