"Time (s)","Linear Acceleration x (m/s^2)","Linear Acceleration y (m/s^2)","Linear Acceleration z (m/s^2)","Absolute acceleration (m/s^2)"
4.232083331E-3,-5.517856028E0,-5.083972746E0,1.559558541E0,7.663271943E0
1.419908332E-2,-5.567980700E0,-5.365213879E0,1.242463160E0,7.831452211E0
2.416608331E-2,-5.587292299E0,-5.834307339E0,9.914571020E-1,8.138793802E0
3.413308330E-2,-5.692907047E0,-6.402794695E0,7.668588245E-1,8.601920890E0
4.409908340E-2,-6.073724508E0,-7.061977043E0,4.897863181E-1,9.327461594E0
5.406608339E-2,-6.565691106E0,-7.607182540E0,2.429889402E-1,1.005169486E1
6.403308338E-2,-6.974749449E0,-7.670711954E0,2.276461387E-1,1.037009038E1
7.399908337E-2,-7.020420882E0,-7.952306843E0,2.998089659E-1,1.061203934E1
8.396608336E-2,-6.852185962E0,-8.054554764E0,6.474013782E-1,1.059468893E1
9.393308335E-2,-6.463772968E0,-7.952389289E0,8.973859271E-1,1.028718416E1
1.039000833E-1,-5.524965073E0,-8.346510919E0,1.318196297E0,1.009589645E1
1.138660833E-1,-4.542262130E0,-8.784827560E0,1.881666449E0,1.006707550E1
1.238330833E-1,-3.614719480E0,-8.986686893E0,2.530848889E0,1.001159000E1
1.338000833E-1,-2.828146768E0,-8.883592295E0,3.102426206E0,9.825562303E0
1.437660834E-1,-2.146663724E0,-8.424326835E0,3.353734564E0,9.317992450E0
1.537330834E-1,-1.238527983E0,-7.843044602E0,3.134906319E0,8.536681898E0
1.637000834E-1,-3.648510540E-1,-7.189669708E0,2.612794400E0,7.658404624E0
1.736660834E-1,3.645768195E-1,-6.471998246E0,2.137139633E0,6.825470194E0
1.836330834E-1,1.254280382E0,-5.939667149E0,1.664629937E0,6.294748441E0
1.936000834E-1,2.147870005E0,-5.315865133E0,1.299752132E0,5.878870918E0
2.035670833E-1,2.874180728E0,-4.792725273E0,9.911414985E-1,5.675693074E0
2.135330833E-1,3.033284635E0,-5.310011485E0,1.080753879E0,6.210077825E0
2.235000833E-1,3.133426389E0,-6.472192374E0,1.561933827E0,7.358483019E0
2.334670833E-1,2.924628750E0,-7.973548023E0,2.067767097E0,8.741085869E0
2.434330834E-1,1.707380539E0,-9.375537259E0,2.684814556E0,9.900710904E0
2.534000834E-1,3.880399418E-1,-1.012292427E1,3.385177674E0,1.068099240E1
2.633670834E-1,-2.520179182E-1,-1.023568198E1,4.104318541E0,1.103078099E1
2.733330834E-1,3.745790666E-1,-1.020498643E1,4.821459661E0,1.129285309E1
2.833000834E-1,1.538976635E0,-9.862206280E0,5.643609756E0,1.146655541E1
2.932670834E-1,2.274069875E0,-8.802096142E0,6.618072803E0,1.124487341E1
3.032340833E-1,2.307520042E0,-7.490980239E0,7.618815576E0,1.093095533E1
3.132000833E-1,1.867777850E0,-6.480043430E0,8.357677932E0,1.073919631E1
3.231670833E-1,1.261658984E0,-6.202405352E0,8.516343298E0,1.061083026E1
3.331340833E-1,3.615181410E-1,-6.597443241E0,8.621884371E0,1.086249708E1
3.431000834E-1,-5.748608208E-1,-6.621641943E0,8.691238781E0,1.094140021E1
3.530670834E-1,-1.149014128E0,-6.294236459E0,8.393261747E0,1.055388501E1
3.630340834E-1,-1.349537957E0,-6.224903099E0,7.911006789E0,1.015651021E1
3.730010834E-1,-1.354389392E0,-6.244033434E0,7.541778510E0,9.884368834E0
3.829670834E-1,-1.262448943E0,-5.965595457E0,7.181920978E0,9.421363777E0
3.929340834E-1,-1.052951977E0,-5.634474066E0,6.909223212E0,8.977381092E0
4.029010833E-1,-1.038437433E0,-5.669979529E0,6.839322088E0,8.944458999E0
4.128670833E-1,-1.393691452E0,-5.918639392E0,6.919155293E0,9.211263652E0
4.228340833E-1,-1.813932011E0,-6.166524498E0,7.039915498E0,9.532931551E0
4.328010833E-1,-2.214345830E0,-6.470850438E0,7.129952095E0,9.879850693E0
4.427670833E-1,-2.607176396E0,-6.842162665E0,7.254980768E0,1.030763332E1
4.527340834E-1,-2.896383775E0,-7.144839690E0,7.290471028E0,1.061078418E1
4.627010834E-1,-3.113484460E0,-7.473906369E0,7.297346184E0,1.089973959E1
4.726680834E-1,-3.319930934E0,-7.553319159E0,7.425339396E0,1.110001067E1
4.826340834E-1,-3.301748432E0,-7.365079161E0,7.514393660E0,1.102778517E1
4.926010834E-1,-2.956369776E0,-7.175825256E0,7.560134089E0,1.083458434E1
5.025680833E-1,-2.439959477E0,-6.946058332E0,7.697039627E0,1.065108199E1
5.125340833E-1,-1.813442599E0,-6.604963346E0,7.900353162E0,1.045608411E1
5.225010833E-1,-1.182443245E0,-6.209884526E0,8.122366678E0,1.029240877E1
5.324680833E-1,-6.217315167E-1,-5.777717986E0,8.398919513E0,1.021324749E1
5.424350833E-1,-7.754752815E-2,-5.364485316E0,8.679359577E0,1.020367576E1
5.524010834E-1,4.689782703E-1,-5.102694361E0,8.844534649E0,1.022170355E1
5.623680834E-1,9.658039051E-1,-4.775506393E0,8.947148606E0,1.018772333E1
5.723356251E-1,1.427676639E0,-4.399880674E0,8.976312763E0,1.009808900E1
5.823016251E-1,1.869670594E0,-4.141395151E0,8.968144788E0,1.005357861E1
5.922686250E-1,2.189707417E0,-3.940874246E0,9.035074942E0,1.009741985E1
6.022356250E-1,2.438898207E0,-3.650247163E0,9.062106035E0,1.006947340E1
6.122016250E-1,2.860587705E0,-3.441807958E0,8.997900099E0,1.004943830E1
6.221686250E-1,3.441795094E0,-3.511856432E0,8.911478251E0,1.017809087E1
6.321356250E-1,4.048524702E0,-3.655211449E0,8.904466270E0,1.044225275E1
6.421026250E-1,4.554242782E0,-3.653238013E0,9.079992667E0,1.079507027E1
6.520686250E-1,4.789902530E0,-3.349350615E0,9.475134637E0,1.113281151E1
6.620356250E-1,4.782130703E0,-2.845793080E0,9.855184944E0,1.131777286E1
6.720026251E-1,4.854198513E0,-2.530655054E0,9.976582496E0,1.137979158E1
6.819686251E-1,5.056401370E0,-2.497546949E0,1.008952147E1,1.155869279E1
6.919356250E-1,4.916255305E0,-2.270391392E0,1.027932559E1,1.161846711E1
7.019026250E-1,4.237846435E0,-1.595181241E0,1.038109288E1,1.132568033E1
7.118696250E-1,3.456370448E0,-1.081546031E0,1.059243932E1,1.119446333E1
7.218356250E-1,3.406676717E0,-9.065499759E-1,1.109602609E1,1.164255444E1
7.318026250E-1,4.537787256E0,-6.104639322E-1,1.170914056E1,1.257251574E1
7.417696250E-1,6.771270438E0,3.193047523E-1,1.191248567E1,1.370618013E1
7.517356250E-1,9.523719152E0,1.938466594E0,1.174020565E1,1.524110586E1
7.617026250E-1,1.195174505E1,3.674327751E0,1.103988463E1,1.668004636E1
7.716696251E-1,1.325899652E1,4.860223777E0,9.976846790E0,1.729046662E1
7.816366251E-1,1.392120422E1,5.172120692E0,8.993994743E0,1.736210531E1
7.916026250E-1,1.405459091E1,4.715336205E0,8.789705892E0,1.723440892E1
8.015696250E-1,1.346680072E1,4.024538546E0,9.013125663E0,1.669694782E1
8.115366250E-1,1.271698770E1,3.400661101E0,9.140347627E0,1.602598599E1
8.215026250E-1,1.218724633E1,2.902997561E0,9.125365891E0,1.549931194E1
8.314696250E-1,1.171200336E1,2.523323815E0,8.845162640E0,1.489211496E1
8.414366250E-1,1.119257999E1,2.300815040E0,8.416902040E0,1.419196380E1
8.514036250E-1,1.067467690E1,2.103457478E0,7.922647426E0,1.345888563E1
8.613696250E-1,1.023744550E1,1.901256083E0,7.359298019E0,1.275066007E1
8.713366251E-1,9.867478130E0,1.644774401E0,6.655535914E0,1.201534709E1
8.813036251E-1,9.602077689E0,1.345824975E0,5.847422644E0,1.132269811E1
8.912696250E-1,9.401307693E0,1.107929837E0,5.016975349E0,1.071364254E1
9.012366250E-1,9.164468561E0,8.854269093E-1,4.069365348E0,1.006633991E1
9.112036250E-1,8.913609561E0,6.219326609E-1,3.120261091E0,9.464421003E0
9.211696250E-1,8.576549154E0,3.692785656E-1,2.257818124E0,8.876446628E0
9.311366250E-1,8.182700003E0,-4.680930018E-2,1.563706849E0,8.330903286E0
9.411036250E-1,7.791279786E0,-5.530413508E-1,1.084465399E0,7.885807546E0
9.510706250E-1,7.327416660E0,-1.041097916E0,6.375921623E-1,7.428421336E0
9.610366250E-1,6.823126470E0,-1.613721592E0,1.678735614E-1,7.013368216E0
9.710036251E-1,6.303197901E0,-2.208355358E0,-1.470772811E-1,6.680476697E0
9.809706251E-1,5.687243434E0,-2.832413481E0,-3.656087435E-1,6.364037536E0
9.909366251E-1,4.975960055E0,-3.388322892E0,-5.673775176E-1,6.046720411E0
1.000903625E0,4.231239374E0,-3.761594521E0,-6.451349974E-1,5.698173316E0
1.010870625E0,3.548039002E0,-4.114726585E0,-6.308268607E-1,5.469689037E0
1.020837625E0,2.947124743E0,-4.357332240E0,-4.312871182E-1,5.278058079E0
1.030803625E0,2.428370295E0,-4.447406259E0,-1.423025179E-1,5.069186791E0
1.040770625E0,1.923855572E0,-4.658304217E0,-1.818980899E-1,5.043223707E0
1.050737625E0,1.458272195E0,-4.965449100E0,-4.471511990E-1,5.194438060E0
1.060703625E0,9.749355018E-1,-5.224238094E0,-7.376373643E-1,5.365377133E0
1.070670625E0,4.822128582E-1,-5.454883854E0,-9.637941440E-1,5.560322496E0
1.080637625E0,-3.065695167E-3,-5.716140373E0,-1.159981824E0,5.832651884E0
1.090604625E0,-5.415024555E-1,-6.034213117E0,-1.362655016E0,6.209813326E0
1.100570625E0,-1.062578248E0,-6.209548311E0,-1.489640168E0,6.473529994E0
1.110537625E0,-1.475637841E0,-6.220918221E0,-1.597997845E0,6.590214539E0
1.120504625E0,-1.802542219E0,-6.115227460E0,-1.710091308E0,6.600725537E0
1.130470625E0,-2.058912805E0,-6.006389726E0,-1.782421804E0,6.594912203E0
1.140437625E0,-2.243038117E0,-5.887888885E0,-1.819794575E0,6.558209192E0
1.150404625E0,-2.561355860E0,-5.750881605E0,-1.778378747E0,6.541850965E0
1.160371625E0,-3.001005666E0,-5.590169713E0,-1.773682117E0,6.588017963E0
1.170337625E0,-3.466381466E0,-5.378736734E0,-1.917476990E0,6.680069411E0
1.180304625E0,-3.994316043E0,-5.172202553E0,-2.134360452E0,6.874717044E0
1.190271625E0,-4.576270121E0,-5.005613624E0,-2.407929745E0,7.196981425E0
1.200237625E0,-5.142202243E0,-4.856569267E0,-2.797922511E0,7.606370970E0
1.210204625E0,-5.635687364E0,-4.662315115E0,-3.178746403E0,7.975122757E0
1.220171625E0,-5.993125318E0,-4.400700454E0,-3.494508620E0,8.215552693E0
1.230137625E0,-6.213074766E0,-4.182871498E0,-3.716241762E0,8.361170065E0
1.240104625E0,-6.364500110E0,-3.994212839E0,-3.839395526E0,8.438101437E0
1.250071625E0,-6.505124477E0,-3.732873875E0,-3.909382019E0,8.457792833E0
1.260038625E0,-6.645264110E0,-3.517635235E0,-3.943513094E0,8.490264322E0
1.270004625E0,-6.836731187E0,-3.382135368E0,-3.948009018E0,8.588743108E0
1.279971625E0,-7.013937489E0,-3.321054769E0,-4.010330689E0,8.735415051E0
1.289938625E0,-7.071420296E0,-3.394824995E0,-4.184991991E0,8.890668126E0
1.299904625E0,-7.026966839E0,-3.563056406E0,-4.354590773E0,9.002005039E0
1.309871625E0,-6.916218236E0,-3.702761591E0,-4.463269755E0,9.025812705E0
1.319838625E0,-6.718244378E0,-3.819942716E0,-4.530815036E0,8.958518559E0
1.329805625E0,-6.548530698E0,-3.992124506E0,-4.505756208E0,8.895063315E0
1.339771625E0,-6.387328225E0,-4.093071130E0,-4.359834556E0,8.749820026E0
1.349738625E0,-6.203926798E0,-4.146231383E0,-4.204774876E0,8.565049571E0
1.359705625E0,-5.939219252E0,-4.358817141E0,-4.063980355E0,8.413652507E0
1.369671625E0,-5.660505871E0,-4.812278363E0,-3.925744575E0,8.403024469E0
1.379638625E0,-5.470432770E0,-5.397751880E0,-3.761415596E0,8.556261294E0
1.389605625E0,-5.338257045E0,-5.910049832E0,-3.539151235E0,8.715002510E0
1.399572625E0,-5.092589788E0,-6.507787299E0,-3.355142866E0,8.918674225E0
1.409538625E0,-4.649679574E0,-7.342245784E0,-3.132579712E0,9.238027330E0
1.419505625E0,-4.277780871E0,-8.186496601E0,-2.866749501E0,9.671421223E0
1.429472625E0,-4.079675451E0,-8.907471739E0,-2.579226120E0,1.013110122E1
1.439438625E0,-3.976374446E0,-9.411001207E0,-2.332325100E0,1.047941973E1
1.449405625E0,-3.907726965E0,-9.594273995E0,-1.951023051E0,1.054167513E1
1.459372625E0,-3.691914421E0,-9.347143764E0,-1.527069950E0,1.016519903E1
1.469339625E0,-3.177551233E0,-8.718392081E0,-1.255354662E0,9.363925867E0
1.479305625E0,-2.535216467E0,-7.676167991E0,-1.123601106E0,8.161700619E0
1.489272625E0,-1.822070750E0,-6.519251350E0,-1.144216634E0,6.865115563E0
1.499239625E0,-1.114987426E0,-5.601313337E0,-1.179474175E0,5.831729365E0
1.509205625E0,-5.647527391E-1,-4.841375277E0,-1.180695512E0,5.015167208E0
1.519172625E0,-1.980867094E-1,-4.038787626E0,-1.162715763E0,4.207487585E0
1.529139625E0,5.238754392E-2,-3.262067472E0,-1.127102273E0,3.451693524E0
1.539105625E0,3.741937351E-1,-2.820584564E0,-1.112219355E0,3.054955012E0
1.549072625E0,7.704952079E-1,-2.704813203E0,-1.066090232E0,3.007694417E0
1.559039625E0,1.177508780E0,-2.756868040E0,-1.090913124E0,3.190131621E0
1.569006333E0,1.621424130E0,-2.891953924E0,-1.190669693E0,3.522798323E0
1.578972333E0,2.044898783E0,-3.052927186E0,-1.244465246E0,3.879519195E0
1.588939333E0,2.360388227E0,-3.239172115E0,-1.314299127E0,4.217943903E0
1.598906333E0,2.576061607E0,-3.358854094E0,-1.418191286E0,4.464220061E0
1.608872333E0,2.715779656E0,-3.446890942E0,-1.455937986E0,4.623448034E0
1.618839333E0,2.727368837E0,-3.469831908E0,-9.917046585E-1,4.523466854E0
1.628806333E0,2.666595216E0,-3.293903807E0,-1.351226852E-1,4.240140385E0
1.638773333E0,2.576070378E0,-3.055198245E0,7.114757520E-1,4.059134471E0
1.648739333E0,2.476206366E0,-2.827736294E0,1.334735731E0,3.988635103E0
1.658706333E0,2.404869166E0,-2.596542649E0,1.924288266E0,4.028438254E0
1.668673333E0,2.611468252E0,-2.454189845E0,2.400187300E0,4.313202210E0
1.678639333E0,3.140322595E0,-2.367569777E0,2.782369502E0,4.817529730E0
1.688606333E0,3.849712061E0,-2.160556709E0,3.126071177E0,5.409307649E0
1.698573333E0,4.623672621E0,-1.769639937E0,3.326732415E0,5.964656115E0
1.708540333E0,5.424099433E0,-1.267945910E0,3.370129280E0,6.510477161E0
1.718506333E0,6.230573144E0,-7.752560109E-1,3.262718267E0,7.075761025E0
1.728473333E0,6.905435386E0,-2.708547235E-1,3.139947789E0,7.590630558E0
1.738440333E0,7.467606579E0,2.365882856E-1,3.001855266E0,8.051848053E0
1.748406333E0,7.869511439E0,7.436091256E-1,2.845621172E0,8.401174005E0
1.758373333E0,8.185693778E0,1.292788391E0,2.693418149E0,8.713861703E0
1.768340333E0,8.416510862E0,1.832535512E0,2.580631206E0,8.991968578E0
1.778306333E0,8.577015177E0,2.244553131E0,2.439231498E0,9.195273699E0
1.788273333E0,8.624492814E0,2.642410548E0,2.324654138E0,9.314946412E0
1.798240333E0,8.617811201E0,2.914071018E0,2.191254737E0,9.357354172E0
1.808207333E0,8.514334195E0,3.097271885E0,2.055806179E0,9.290496163E0
1.818173333E0,8.308626809E0,3.198119983E0,1.949562271E0,9.113838046E0
1.828140333E0,8.031641280E0,3.259314018E0,1.902783376E0,8.874174559E0
1.838107333E0,7.774955530E0,3.252383898E0,1.887952498E0,8.636683342E0
1.848073333E0,7.629482651E0,3.235823999E0,1.987573850E0,8.522324348E0
1.858040333E0,7.562379420E0,3.234810677E0,2.091055534E0,8.486818948E0
1.868007333E0,7.636964749E0,3.193810000E0,2.186640991E0,8.561836936E0
1.877974333E0,7.695663777E0,3.079628497E0,2.340427587E0,8.613068787E0
1.887940333E0,7.781583349E0,3.010141940E0,2.562688440E0,8.728193739E0
1.897907333E0,7.868598104E0,2.984924653E0,2.811444197E0,8.872926787E0
1.907874333E0,7.857058623E0,3.141132435E0,3.075053051E0,9.003112487E0
1.917840333E0,7.880686637E0,3.376544845E0,3.264132417E0,9.173921593E0
1.927807333E0,7.967180405E0,3.540880841E0,3.379469622E0,9.350647874E0
1.937774333E0,8.206520391E0,3.632830646E0,3.476676074E0,9.624536973E0
1.947740333E0,8.742755089E0,3.363837676E0,3.400988545E0,9.965836320E0
1.957707333E0,9.377471518E0,2.587041509E0,3.341469737E0,1.028567819E1
1.967674333E0,9.737529609E0,1.868851984E0,3.491190033E0,1.051192173E1
1.977641333E0,1.011474752E1,1.325179042E0,3.539399157E0,1.079775733E1
1.987607333E0,1.043061879E1,8.349180758E-1,3.626655986E0,1.107463454E1
1.997574333E0,1.056292374E1,5.298325825E-1,3.736618724E0,1.121688014E1
2.007541333E0,1.047175512E1,6.691658843E-1,3.872776988E0,1.118498279E1
2.017507333E0,1.013175474E1,1.116676102E0,3.949181385E0,1.093139758E1
2.027474333E0,9.758615838E0,1.568915548E0,3.970334272E0,1.065155544E1
2.037441333E0,9.228263438E0,1.918518233E0,3.906385614E0,1.020300970E1
2.047407333E0,8.485208044E0,2.128009937E0,3.723863608E0,9.507593913E0
2.057374333E0,7.648345769E0,2.040361928E0,3.345575652E0,8.593785327E0
2.067341333E0,6.821221447E0,1.627372502E0,2.775741098E0,7.542025055E0
2.077308333E0,5.992675667E0,1.073599080E0,2.201756190E0,6.473986944E0
2.087274333E0,5.088144150E0,4.299521989E-1,1.663210087E0,5.370320063E0
2.097241333E0,4.164591640E0,-2.057869077E-1,1.076118133E0,4.306297948E0
2.107208333E0,3.275477184E0,-7.758705533E-1,5.143691090E-1,3.405187437E0
2.117174333E0,2.540203557E0,-1.370874447E0,1.796966314E-2,2.886564354E0
2.127141333E0,1.913320059E0,-1.938580615E0,-2.839302671E-1,2.738522383E0
2.137108333E0,1.497087767E0,-2.468632468E0,-4.037174964E-1,2.915202542E0
2.147075333E0,1.323102111E0,-2.985562584E0,-3.349308515E-1,3.282736940E0
2.157041333E0,1.265020548E0,-3.442509039E0,-1.168449104E-1,3.669441130E0
2.167008333E0,1.290001023E0,-3.817966357E0,6.441526651E-2,4.030523424E0
2.176975333E0,1.289896942E0,-4.136177096E0,9.698718131E-2,4.333728372E0
2.186941333E0,1.262623774E0,-4.408233422E0,1.374797116E-2,4.585513025E0
2.196908333E0,1.281973965E0,-4.676496075E0,-1.849591484E-2,4.849063300E0
2.206875333E0,1.299103383E0,-4.983093073E0,3.399922013E-2,5.149761366E0
2.216841333E0,1.347254620E0,-5.298675488E0,2.370566475E-1,5.472408318E0
2.226808333E0,1.288987116E0,-5.516427553E0,5.294794106E-1,5.689710817E0
2.236775333E0,1.183883999E0,-5.502245132E0,8.911624432E-1,5.698285120E0
2.246742333E0,1.109865265E0,-5.276245569E0,1.181512953E0,5.519650448E0
2.256708333E0,1.012417324E0,-4.938609211E0,1.439854635E0,5.242902931E0
2.266675333E0,8.413669699E-1,-4.581953614E0,1.557823380E0,4.912128967E0
2.276642333E0,6.129378891E-1,-4.295298545E0,1.595792860E0,4.622968451E0
2.286608333E0,3.023852491E-1,-4.219265445E0,1.641021073E0,4.537244527E0
2.296575333E0,-1.704574460E-1,-4.160389831E0,1.647771099E0,4.478063072E0
2.306542333E0,-5.830808365E-1,-4.040665752E0,1.648296179E0,4.402708629E0
2.316508333E0,-1.015949627E0,-4.049705547E0,1.567647872E0,4.459796914E0
2.326475333E0,-1.505497232E0,-4.189348751E0,1.498899819E0,4.697218916E0
2.336442333E0,-2.077548466E0,-4.318688577E0,1.366158668E0,4.983339057E0
2.346409333E0,-2.618729909E0,-4.400235600E0,1.159582386E0,5.250185805E0
2.356375333E0,-3.047980442E0,-4.526334022E0,9.291377699E-1,5.535447719E0
2.366342333E0,-3.477248517E0,-4.638438010E0,7.869592130E-1,5.850270867E0
2.376309333E0,-3.851911783E0,-4.703533600E0,6.299439311E-1,6.112060378E0
2.386275333E0,-4.219029803E0,-4.779046882E0,3.985052884E-1,6.387355324E0
2.396242333E0,-4.605748274E0,-4.880288205E0,1.650131035E-1,6.712477892E0
2.406209333E0,-4.975940759E0,-4.946893546E0,-3.052831292E-3,7.016534153E0
2.416176333E0,-5.408766865E0,-5.043085506E0,-1.946298172E-1,7.397658493E0
2.426142333E0,-5.887380177E0,-5.276639671E0,-4.852393770E-1,7.920835109E0
2.436109333E0,-6.297124983E0,-5.661523871E0,-7.858143282E-1,8.504360044E0
2.446076333E0,-6.609138258E0,-6.123192537E0,-1.075590641E0,9.073648141E0
2.456042333E0,-6.959412788E0,-6.554773770E0,-1.355850611E0,9.655921313E0
2.466009333E0,-7.359237208E0,-6.821099240E0,-1.617131104E0,1.016370406E1
2.475976333E0,-7.798833219E0,-6.976077352E0,-1.905826852E0,1.063577128E1
2.485942333E0,-8.252143875E0,-6.986734487E0,-2.127302424E0,1.101987990E1
2.495909333E0,-8.673415883E0,-6.870997624E0,-2.173799483E0,1.127670855E1
2.505876333E0,-9.030235201E0,-6.594200960E0,-2.109843807E0,1.137893119E1
2.515843333E0,-9.155718203E0,-6.184205893E0,-2.019123087E0,1.123158210E1
2.525809333E0,-8.839152287E0,-5.864281336E0,-1.947463120E0,1.078485148E1
2.535776333E0,-7.965349642E0,-6.018086497E0,-2.079129553E0,1.019739867E1
2.545743333E0,-7.094186431E0,-6.755188841E0,-2.392450265E0,1.008384231E1
2.555709333E0,-6.725411895E0,-7.430283802E0,-2.714236575E0,1.038303244E1
2.565676333E0,-6.361025695E0,-7.791472160E0,-2.976442682E0,1.048946602E1
2.575643625E0,-5.891704777E0,-8.231235402E0,-3.120820377E0,1.059268338E1
2.585609625E0,-5.556657566E0,-8.662564035E0,-3.046888182E0,1.073312567E1
2.595576625E0,-5.411946580E0,-8.801555859E0,-2.663769257E0,1.067015548E1
2.605543625E0,-5.459002633E0,-8.513579904E0,-1.990154811E0,1.030739874E1
2.615510625E0,-5.460565009E0,-7.882113358E0,-1.199859762E0,9.663598949E0
2.625476625E0,-5.276853679E0,-7.044576899E0,-4.500555475E-1,8.813273991E0
2.635443625E0,-4.876043419E0,-6.057963338E0,3.585646759E-1,7.784811356E0
2.645410625E0,-4.356563916E0,-5.079512490E0,1.008057640E0,6.767368506E0
2.655376625E0,-3.732225711E0,-4.396242245E0,1.409527466E0,5.936600231E0
2.665343625E0,-3.054492486E0,-4.010692340E0,1.588651655E0,5.285772552E0
2.675310625E0,-2.415212891E0,-3.848156117E0,1.493044417E0,4.782336295E0
2.685277625E0,-1.854372523E0,-3.782089596E0,1.201098202E0,4.380129685E0
2.695243625E0,-1.329960895E0,-3.796310610E0,7.337226534E-1,4.088901950E0
2.705210625E0,-8.136616927E-1,-4.006339672E0,2.121714824E-1,4.093631598E0
2.715177625E0,-2.938553309E-1,-4.319111331E0,-3.199450225E-1,4.340902954E0
2.725143625E0,1.825260991E-1,-4.520187721E0,-7.537721711E-1,4.586238687E0
2.735110625E0,6.321664578E-1,-4.687040359E0,-1.071573020E0,4.849355678E0
2.745077625E0,9.183350390E-1,-4.795877507E0,-1.286784469E0,5.049712326E0
2.755043625E0,1.151805589E0,-4.782551118E0,-1.421193246E0,5.120472786E0
2.765010625E0,1.363775927E0,-4.623333775E0,-1.416017876E0,5.023963236E0
2.774977625E0,1.580255638E0,-4.376998765E0,-1.222448140E0,4.811414089E0
2.784944625E0,1.901649601E0,-4.050110759E0,-8.701709390E-1,4.558164743E0
2.794910625E0,2.212620317E0,-3.564248654E0,-3.683570445E-1,4.211323313E0
2.804877625E0,2.421916139E0,-2.997963944E0,1.197135909E-1,3.855878231E0
2.814844625E0,2.643374754E0,-2.515996669E0,4.842078916E-1,3.681321313E0
2.824810625E0,2.891564500E0,-2.028396186E0,7.377899766E-1,3.608305751E0
2.834777625E0,3.103861697E0,-1.579549295E0,8.632162607E-1,3.588046226E0
2.844744625E0,3.293646530E0,-1.238333271E0,8.711345601E-1,3.624976162E0
2.854710625E0,3.380061945E0,-9.779608512E-1,8.043909323E-1,3.609469622E0
2.864677625E0,3.440266047E0,-7.461199200E-1,6.368506622E-1,3.577387898E0
2.874644625E0,3.463090653E0,-5.624401653E-1,4.559319627E-1,3.537966898E0
2.884611625E0,3.528037432E0,-4.614061260E-1,2.569184697E-1,3.567345068E0
2.894577625E0,3.611774822E0,-4.396462977E-1,7.232534330E-2,3.639153362E0
2.904544625E0,3.765881699E0,-4.514681983E-1,2.685041428E-2,3.792942058E0
2.914511625E0,4.111667322E0,-4.807767820E-1,1.233633864E-1,4.141518201E0
2.924477625E0,4.492975949E0,-3.700837272E-1,3.435484779E-1,4.521263142E0
2.934444625E0,4.906675227E0,-9.482488096E-2,6.024047514E-1,4.944425652E0
2.944411625E0,5.447389478E0,3.127102625E-1,7.973906457E-1,5.514315159E0
2.954377625E0,6.035714682E0,7.789976442E-1,7.963930377E-1,6.137664941E0
2.964344625E0,6.429381400E0,1.343312427E0,6.270215658E-1,6.598074682E0
2.974311625E0,6.837717612E0,1.817029281E0,3.781804033E-1,7.085125120E0
2.984278625E0,7.279060771E0,2.068050833E0,7.342933416E-2,7.567493101E0
2.994244625E0,7.647393258E0,2.280281373E0,-2.434628570E-1,7.983832472E0
3.004211625E0,8.178083627E0,2.401871883E0,-5.770488854E-1,8.543010346E0
3.014178625E0,8.799171950E0,2.583937806E0,-8.757257938E-1,9.212440353E0
3.024144625E0,9.327800006E0,2.740883507E0,-1.155634346E0,9.790596820E0
3.034111625E0,9.803377444E0,2.832850853E0,-1.474077219E0,1.031039073E1
3.044078625E0,1.015497988E1,3.030304894E0,-1.660735545E0,1.072680785E1
3.054044625E0,1.045395971E1,3.125985222E0,-1.722870398E0,1.104650803E1
3.064011625E0,1.062726065E1,3.237798604E0,-1.779146340E0,1.125110530E1
3.073978625E0,1.082671269E1,3.283579379E0,-1.873438540E0,1.146775362E1
3.083945625E0,1.091560440E1,3.415363340E0,-1.961206416E0,1.160437231E1
3.093911625E0,1.074429735E1,3.831468748E0,-2.114968892E0,1.160142973E1
3.103878625E0,1.042247830E1,4.293501111E0,-2.285484225E0,1.150154963E1
3.113845625E0,1.027677738E1,4.626295974E0,-2.516135248E0,1.154754105E1
3.123811625E0,1.039155939E1,4.339326909E0,-3.059377250E0,1.166936390E1
3.133778625E0,1.050295002E1,3.190912120E0,-3.586531223E0,1.154803384E1
3.143745625E0,1.036533697E1,2.131670879E0,-3.465743535E0,1.113533158E1
3.153711625E0,1.021082312E1,1.613364912E0,-3.132450489E0,1.080167123E1
3.163678625E0,1.004201986E1,1.310729987E0,-3.013535079E0,1.056605743E1
3.173645625E0,9.600803581E0,1.444139475E0,-2.660167372E0,1.006665082E1
3.183612625E0,9.088755305E0,1.747791231E0,-2.095519883E0,9.489544286E0
3.193578625E0,8.577272455E0,1.998805767E0,-1.361375061E0,8.911687231E0
3.203545625E0,8.163246317E0,2.068519780E0,-6.076151687E-1,8.443136900E0
3.213512625E0,7.652860989E0,2.055660583E0,8.310879668E-2,7.924577517E0
3.223478625E0,7.065010579E0,2.012779443E0,6.231003499E-1,7.372510401E0
3.233445625E0,6.562610793E0,1.627566630E0,7.885718751E-1,6.807251953E0
3.243412625E0,6.038381013E0,9.782573050E-1,8.558721578E-1,6.176694080E0
3.253378625E0,5.475897578E0,2.733666873E-1,9.277741992E-1,5.560660806E0
3.263345625E0,4.871230575E0,-4.672615278E-1,9.250599217E-1,4.980256671E0
3.273312625E0,4.286815697E0,-1.239751806E0,8.200860286E-1,4.537214393E0
3.283279625E0,3.734656983E0,-1.860009824E0,7.147554553E-1,4.232986497E0
3.293245625E0,3.239329990E0,-2.401071984E0,6.022457071E-1,4.076898986E0
3.303212625E0,2.833910369E0,-3.026753295E0,5.655602761E-1,4.184751117E0
3.313179625E0,2.438236887E0,-3.538465941E0,5.884731388E-1,4.337284976E0
3.323145625E0,2.136891857E0,-4.102119403E0,7.641316831E-1,4.688025985E0
3.333112625E0,1.694243014E0,-4.374202042E0,1.067586973E0,4.810805010E0
3.343079625E0,1.378277607E0,-4.410212705E0,1.306953270E0,4.801848822E0
3.353045625E0,1.257632006E0,-4.446007605E0,1.511105297E0,4.861281837E0
3.363012625E0,1.256162016E0,-4.550624233E0,1.756426399E0,5.036979017E0
3.372979625E0,1.333197913E0,-4.641294082E0,1.999766464E0,5.226671345E0
3.382946625E0,1.414278914E0,-4.684254161E0,2.215777959E0,5.371414511E0
3.392912625E0,1.375206065E0,-4.592287983E0,2.441361054E0,5.379641665E0
3.402879625E0,1.265023472E0,-4.521429670E0,2.587623014E0,5.360914428E0
3.412846625E0,1.060935180E0,-4.543943204E0,2.679011779E0,5.380530402E0
3.422812625E0,6.671848476E-1,-4.567453104E0,2.695944146E0,5.345547523E0
3.432779625E0,2.472448361E-1,-4.563846542E0,2.667449495E0,5.291985645E0
3.442746625E0,-1.866156417E-1,-4.576273629E0,2.754183583E0,5.344402019E0
3.452712625E0,-5.753011161E-1,-4.703241239E0,2.968963509E0,5.591618178E0
3.462679625E0,-9.477944809E-1,-4.858291857E0,3.233980372E0,5.912693395E0
3.472646625E0,-1.371483142E0,-4.709652711E0,3.430941492E0,5.986080036E0
3.482613625E0,-1.650621032E0,-4.534864817E0,3.479544718E0,5.949519321E0
3.492579625E0,-1.885201383E0,-4.501504698E0,3.407601746E0,5.952249865E0
3.502546625E0,-2.168537573E0,-4.595080613E0,3.239647493E0,6.025996758E0
3.512513625E0,-2.566590287E0,-4.711483474E0,2.978665209E0,6.136604000E0
3.522479625E0,-2.953025753E0,-4.782076324E0,2.627888403E0,6.204386555E0
3.532446625E0,-3.256776327E0,-4.838233860E0,2.183403973E0,6.227547819E0
3.542413625E0,-3.538240823E0,-4.833824767E0,1.783905973E0,6.250386430E0
3.552380625E0,-3.784861761E0,-4.785696920E0,1.459014791E0,6.273499639E0
3.562346625E0,-4.018156895E0,-4.732867619E0,1.206838560E0,6.324719760E0
3.572313125E0,-4.360057628E0,-4.730273210E0,1.035247339E0,6.515928499E0
3.582280125E0,-4.709242237E0,-4.765963737E0,8.975265527E-1,6.759950199E0
3.592246125E0,-5.046369302E0,-4.901876417E0,7.695978065E-1,7.077182796E0
3.602213125E0,-5.339335856E0,-5.013843580E0,6.406127608E-1,7.352381896E0
3.612180125E0,-5.610855408E0,-5.149387302E0,4.968250501E-1,7.631823054E0
3.622146125E0,-5.880083436E0,-5.430700940E0,4.379609840E-1,8.016215051E0
3.632113125E0,-6.280702493E0,-5.508556616E0,5.254762606E-1,8.370635884E0
3.642080125E0,-6.439174317E0,-5.469649243E0,5.055278997E-1,8.463780903E0
3.652046125E0,-6.422925489E0,-5.549156758E0,4.684670775E-1,8.500974883E0
3.662013125E0,-6.446136596E0,-5.370058882E0,4.555285048E-1,8.402244678E0
3.671980125E0,-6.352598103E0,-4.858250049E0,3.919843273E-1,8.006981198E0
3.681947125E0,-6.300140392E0,-4.321487639E0,2.383463971E-1,7.643548481E0
3.691913125E0,-6.278934295E0,-3.873246227E0,1.067291542E-1,7.378241208E0
3.701880125E0,-6.213490503E0,-3.658659844E0,1.244486296E-1,7.211708782E0
3.711847125E0,-6.100662045E0,-3.646551138E0,9.266777001E-2,7.108023629E0
3.721813125E0,-5.875859408E0,-3.781857462E0,-1.820694315E-1,6.990087190E0
3.731780125E0,-5.637959007E0,-4.254304885E0,-6.377406085E-1,7.091713820E0
3.741747125E0,-5.694044330E0,-4.926398470E0,-1.039900334E0,7.600850967E0
3.751714125E0,-5.836143365E0,-5.503914512E0,-1.382976429E0,8.140409580E0
3.761680125E0,-5.818779473E0,-6.073078390E0,-1.615614921E0,8.564501577E0
3.771647125E0,-5.752880768E0,-6.665490798E0,-1.654235780E0,8.958844832E0
3.781614125E0,-5.779033025E0,-7.050066265E0,-1.448461736E0,9.230314103E0
3.791580125E0,-5.863020676E0,-7.113378162E0,-1.017492634E0,9.274181990E0
3.801547125E0,-5.830496124E0,-6.847265530E0,-4.597243937E-1,9.005058401E0
3.811514125E0,-5.475192404E0,-6.395297395E0,6.975852527E-2,8.419170201E0
3.821480125E0,-4.911876910E0,-5.888634405E0,5.219376719E-1,7.686024256E0
3.831447125E0,-4.238599849E0,-5.219538102E0,9.037631929E-1,6.784253429E0
3.841414125E0,-3.579174256E0,-4.453039759E0,1.137996732E0,5.825383078E0
3.851380125E0,-2.970623533E0,-3.831328415E0,1.143365718E0,4.981060807E0
3.861347125E0,-2.322885940E0,-3.426474804E0,9.643203934E-1,4.250463798E0
3.871314125E0,-1.808339149E0,-3.230275576E0,6.462729386E-1,3.757983433E0
3.881281125E0,-1.429761756E0,-3.185577121E0,1.903046501E-1,3.496903792E0
3.891247125E0,-1.129056412E0,-3.317938203E0,-2.706022699E-1,3.515210931E0
3.901214125E0,-8.485923743E-1,-3.621252867E0,-6.516521578E-1,3.776007399E0
3.911181125E0,-6.763772553E-1,-4.028355901E0,-9.078690346E-1,4.184419152E0
3.921147125E0,-5.411463600E-1,-4.450119951E0,-1.103384943E0,4.616694196E0
3.931114125E0,-4.416115469E-1,-4.852117782E0,-1.139927702E0,5.003748884E0
3.941081125E0,-4.032058650E-1,-5.124132008E0,-1.078260626E0,5.251852034E0
3.951047125E0,-3.561995137E-1,-5.141591209E0,-8.812220304E-1,5.228708303E0
3.961014125E0,-2.193395841E-1,-5.006521697E0,-5.139959836E-1,5.037614637E0
3.970981125E0,-5.904986143E-2,-4.706722671E0,1.570693687E-2,4.707119278E0
3.980948125E0,8.486999631E-2,-4.228699928E0,4.749436728E-1,4.256134101E0
3.990914125E0,2.212346667E-1,-3.812565869E0,8.764497522E-1,3.918260769E0
4.000881125E0,2.725235188E-1,-3.368774480E0,1.274225235E0,3.612002286E0
4.010848125E0,3.264196444E-1,-2.904436560E0,1.564352235E0,3.315041392E0
4.020814125E0,4.010190064E-1,-2.537020918E0,1.693178090E0,3.076384798E0
4.030781125E0,4.974232203E-1,-2.254929600E0,1.740238821E0,2.891464769E0
4.040748125E0,6.011908329E-1,-2.061721807E0,1.608266140E0,2.683029483E0
4.050714125E0,7.480074012E-1,-1.952397001E0,1.399086678E0,2.515713150E0
4.060681125E0,9.928694969E-1,-1.880406666E0,1.140336787E0,2.412900134E0
4.070648125E0,1.299981050E0,-1.873816854E0,8.587466490E-1,2.436921448E0
4.080615125E0,1.741566285E0,-1.867837492E0,5.442610987E-1,2.611147289E0
4.090581125E0,2.138337289E0,-1.752210556E0,1.396981680E-1,2.768075825E0
4.100548125E0,2.553455102E0,-1.509635307E0,-2.507614247E-1,2.976913336E0
4.110515125E0,3.102532040E0,-1.114057134E0,-4.649249804E-1,3.329111533E0
4.120481125E0,3.736765489E0,-6.879138118E-1,-6.165840666E-1,3.849261961E0
4.130448125E0,4.265760750E0,-2.493147504E-1,-8.947047595E-1,4.365703750E0
4.140415125E0,4.696787960E0,1.004393774E-1,-1.070609910E0,4.818309951E0
4.150381125E0,5.147592791E0,4.396030283E-1,-1.021036119E0,5.266258361E0
4.160348125E0,5.548760317E0,7.382291025E-1,-8.440736461E-1,5.660934868E0
4.170315125E0,5.854817033E0,9.787777072E-1,-6.317307671E-1,5.969587260E0
4.180282125E0,6.216280210E0,1.121529291E0,-4.031315323E-1,6.329493079E0
4.190248125E0,6.522380195E0,1.214570187E0,-1.254438257E-1,6.635688382E0
4.200215125E0,6.719592161E0,1.277817180E0,2.095163349E-1,6.843218004E0
4.210182125E0,6.881248963E0,1.350971695E0,5.528004456E-1,7.034365653E0
4.220148125E0,7.041998861E0,1.432780674E0,8.609111421E-1,7.237663740E0
4.230115125E0,7.148442160E0,1.584403653E0,1.094624498E0,7.403294067E0
4.240082125E0,7.193478584E0,1.764955148E0,1.276898582E0,7.516094119E0
4.250048125E0,7.318358154E0,1.918760893E0,1.432925831E0,7.700213365E0
4.260015125E0,7.394177245E0,2.169428104E0,1.519374429E0,7.854220145E0
4.269982125E0,7.411178024E0,2.451888381E0,1.476479255E0,7.944640164E0
4.279949125E0,7.439991934E0,2.660802380E0,1.296821069E0,8.007190154E0
4.289915125E0,7.580087128E0,2.665418757E0,1.000094024E0,8.097059100E0
4.299882125E0,7.845056044E0,2.288401401E0,6.789589472E-1,8.200162837E0
4.309849125E0,8.024310626E0,1.892951868E0,5.004783905E-1,8.259740093E0
4.319815125E0,8.215902833E0,1.711515105E0,3.352104945E-1,8.398970734E0
4.329782125E0,8.395065029E0,1.699941711E0,1.831442960E-1,8.567406871E0
4.339749125E0,8.549623895E0,1.950139976E0,1.406397159E-1,8.770341738E0
4.349715125E0,8.616977388E0,2.447895318E0,2.102600276E-1,8.960396200E0
4.359682125E0,8.702775922E0,3.152514040E0,3.648136318E-1,9.263354819E0
4.369649125E0,8.867392584E0,3.955258981E0,5.396161437E-1,9.724500523E0
4.379615125E0,9.006414814E0,4.764682027E0,6.974946208E-1,1.021294284E1
4.389582125E0,9.022815084E0,5.399848107E0,7.592422414E-1,1.054258035E1
4.399549125E0,8.870341920E0,5.775020666E0,7.886913045E-1,1.061394665E1
4.409516125E0,8.507842616E0,5.913592075E0,8.417008460E-1,1.039530748E1
4.419482125E0,7.888689137E0,5.805143766E0,8.396287389E-1,9.830365551E0
4.429449125E0,7.090705583E0,5.405218189E0,6.654856467E-1,8.940769569E0
4.439416125E0,6.401166830E0,4.845134452E0,4.146963016E-1,8.038795785E0
4.449382125E0,5.833694551E0,4.129469755E0,2.082966788E-1,7.150377618E0
4.459349125E0,5.267437323E0,3.211788434E0,-3.998910785E-2,6.169528348E0
4.469316125E0,4.873800427E0,2.117190249E0,-3.486625989E-1,5.325222132E0
4.479282125E0,4.562047061E0,9.506555235E-1,-6.160016839E-1,4.700582665E0
4.489249125E0,4.119413421E0,-6.403285861E-3,-7.485125276E-1,4.186869826E0
4.499216125E0,3.860584373E0,-7.850810874E-1,-7.957883625E-1,4.019171947E0
4.509183125E0,3.709396719E0,-1.444696714E0,-7.486445285E-1,4.050585297E0
4.519149125E0,3.819863194E0,-2.042722449E0,-6.002260423E-1,4.373138590E0
4.529116125E0,3.960503933E0,-2.418426520E0,-3.775125416E-1,4.655845139E0
4.539083125E0,4.244089800E0,-2.635395643E0,-2.133999094E-1,5.000314784E0
4.549049125E0,4.665598034E0,-2.792681651E0,-7.904024921E-2,5.438117614E0
4.559016125E0,5.047065706E0,-2.892726926E0,7.278964877E-2,5.817734923E0
4.568983125E0,5.297584983E0,-2.761204335E0,2.171280210E-1,5.977942841E0
4.578949208E0,5.552681460E0,-2.663201492E0,3.309966986E-1,6.167209450E0
4.588916208E0,5.591867745E0,-2.705252329E0,4.239722514E-1,6.226325362E0
4.598883208E0,5.242541049E0,-3.026254528E0,5.601503956E-1,6.079162901E0
4.608849208E0,4.738186539E0,-3.549755160E0,6.374694438E-1,5.954623470E0
4.618816208E0,4.197103913E0,-4.169907929E0,7.875975828E-1,5.968594755E0
4.628783208E0,3.659602708E0,-4.828932987E0,1.001287879E0,6.141161387E0
4.638750208E0,3.198321712E0,-5.286613852E0,1.293904770E0,6.312823247E0
4.648716208E0,2.822745695E0,-5.468120196E0,1.624617733E0,6.364559256E0
4.658683208E0,2.550463082E0,-5.515535268E0,1.840380721E0,6.349251328E0
4.668650208E0,2.362888497E0,-5.630111459E0,2.087274432E0,6.452760002E0
4.678616208E0,2.150086684E0,-5.878156194E0,2.307353104E0,6.670792407E0
4.688583208E0,1.797621787E0,-6.183082643E0,2.480688257E0,6.900418052E0
4.698550208E0,1.331930822E0,-6.527788285E0,2.685995986E0,7.183358131E0
4.708516208E0,7.834684253E-1,-6.866981757E0,2.822926082E0,7.465800217E0
4.718483208E0,1.693552458E-1,-7.160744702E0,2.857123815E0,7.711556417E0
4.728450208E0,-4.556495422E-1,-7.427046198E0,2.840171567E0,7.964622167E0
4.738417208E0,-1.050658114E0,-7.689842874E0,2.811572543E0,8.254847428E0
4.748383208E0,-1.659626328E0,-7.877736132E0,2.745694303E0,8.505993377E0
4.758350208E0,-2.311097369E0,-7.990698491E0,2.652906592E0,8.730999188E0
4.768317208E0,-3.019829607E0,-7.993372423E0,2.487561659E0,8.899513276E0
4.778283208E0,-3.820811613E0,-8.012471768E0,2.290376883E0,9.167558643E0
4.788250208E0,-4.637783999E0,-8.042683747E0,2.131835185E0,9.525677064E0
4.798217208E0,-5.382668402E0,-8.018759864E0,1.897284070E0,9.842424281E0
4.808183208E0,-6.054413493E0,-7.945940979E0,1.681518888E0,1.013022243E1
4.818150208E0,-6.654323201E0,-7.783685423E0,1.488119600E0,1.034795999E1
4.828117208E0,-7.051195362E0,-7.502266535E0,1.393055275E0,1.038960838E1
4.838084208E0,-7.280576370E0,-7.239825954E0,1.334080258E0,1.035382259E1
4.848050208E0,-7.356931066E0,-7.063962173E0,1.391159900E0,1.029365446E1
4.858017208E0,-7.311668939E0,-6.936962988E0,1.594845611E0,1.020418986E1
4.867984208E0,-7.186894035E0,-6.790876152E0,1.859023691E0,1.006098474E1
4.877950208E0,-7.018623447E0,-6.675707638E0,2.034302751E0,9.897703534E0
4.887917208E0,-6.894821520E0,-6.581742298E0,2.086528912E0,9.757637950E0
4.897884208E0,-6.848227982E0,-6.493213699E0,2.066577920E0,9.660786455E0
4.907850208E0,-6.688658051E0,-6.376875157E0,1.901719183E0,9.434999690E0
4.917817208E0,-6.267811722E0,-6.200571080E0,1.534145665E0,8.949086457E0
4.927784208E0,-5.967601052E0,-5.999014049E0,1.129474196E0,8.536752534E0
4.937750208E0,-5.846429202E0,-5.894234868E0,7.232027815E-1,8.333412347E0
4.947717208E0,-5.673532882E0,-6.066321933E0,2.612607582E-1,8.310083895E0
4.957684208E0,-5.531425661E0,-6.513669598E0,-2.396759078E-1,8.548801438E0
4.967651208E0,-5.203953518E0,-7.154957128E0,-7.048885712E-1,8.875326001E0
4.977617208E0,-4.880811238E0,-7.809737692E0,-1.066690302E0,9.271038203E0
4.987584208E0,-4.634366886E0,-8.307203597E0,-1.219489742E0,9.590315076E0
4.997551208E0,-4.449656267E0,-8.498046775E0,-1.073568674E0,9.652398126E0
5.007517208E0,-4.315451558E0,-8.323384597E0,-6.327143419E-1,9.396924004E0
5.017484208E0,-4.035642409E0,-8.086865893E0,-1.213463894E-1,9.038724167E0
5.027451208E0,-3.620748544E0,-7.826229179E0,3.651365443E-1,8.630933199E0
5.037417208E0,-3.208853132E0,-7.518054602E0,8.990959454E-1,8.223518525E0
5.047384208E0,-2.819412197E0,-7.279208706E0,1.344240088E0,7.921044498E0
5.057351208E0,-2.408772767E0,-7.103730841E0,1.561209064E0,7.661759057E0
5.067318208E0,-2.120157711E0,-6.946871679E0,1.511138918E0,7.418735450E0
5.077284208E0,-1.985781679E0,-6.787291224E0,1.244378269E0,7.180468530E0
5.087251208E0,-1.947880027E0,-6.627679778E0,8.593443806E-1,6.961239014E0
5.097218208E0,-2.085087281E0,-6.400761033E0,6.838152060E-1,6.766456533E0
5.107184208E0,-2.272835528E0,-6.080355835E0,6.780805492E-1,6.526584225E0
5.117151208E0,-2.458208637E0,-5.661792843E0,7.329003887E-1,6.215772750E0
5.127118208E0,-2.748117097E0,-5.200160429E0,9.179776280E-1,5.952856373E0
5.137084208E0,-2.869231060E0,-5.020195411E0,1.178458368E0,5.901153528E0
5.147051208E0,-2.609060953E0,-5.539015347E0,1.966537030E0,6.430797615E0
5.157018208E0,-2.416187621E0,-6.356936152E0,3.114170923E0,7.479750023E0
5.166984208E0,-2.519343615E0,-6.645498583E0,4.151165264E0,8.230547778E0
5.176951208E0,-2.764727283E0,-6.268301718E0,4.664987877E0,8.288391597E0
5.186918208E0,-2.732257109E0,-5.631448717E0,4.543553195E0,7.734488942E0
5.196885208E0,-2.383739668E0,-5.163698362E0,3.960645436E0,6.930563314E0
5.206851208E0,-1.813986390E0,-5.059240193E0,3.367101592E0,6.342226036E0
5.216818208E0,-1.122751944E0,-5.136949105E0,3.010529026E0,6.059051332E0
5.226785208E0,-4.664125121E-1,-5.505857542E0,2.786340930E0,6.188352259E0
5.236751208E0,-3.183165729E-2,-6.088261271E0,2.788165262E0,6.696402324E0
5.246718208E0,1.982194412E-1,-6.754170256E0,3.074902192E0,7.423821811E0
5.256685208E0,3.112502128E-1,-7.483254313E0,3.668380548E0,8.339843383E0
5.266651208E0,2.960714257E-1,-8.322361334E0,4.367431551E0,9.403393792E0
5.276618208E0,1.937293643E-1,-8.925798082E0,5.184227936E0,1.032393441E1
5.286585208E0,2.276139790E-1,-9.087357236E0,6.306745992E0,1.106376584E1
5.296552208E0,4.995673943E-1,-9.026040993E0,7.144287128E0,1.152214486E1
5.306518208E0,8.704632998E-1,-9.062964991E0,7.388345232E0,1.172530111E1
5.316485208E0,1.042178482E0,-9.233287366E0,7.033612200E0,1.165381621E1
5.326452208E0,9.749822795E-1,-9.225864910E0,6.252815952E0,1.118771117E1
5.336418208E0,9.770095092E-1,-9.067332861E0,5.653938863E0,1.073024219E1
5.346385208E0,1.059403794E0,-8.866039538E0,5.656283011E0,1.056988794E1
5.356352208E0,1.182871261E0,-8.814843657E0,6.173731191E0,1.082661581E1
5.366318208E0,1.142401512E0,-8.757135147E0,6.937044264E0,1.123009708E1
5.376285208E0,8.753691137E-1,-8.711946695E0,7.779799948E0,1.171279529E1
5.386252208E0,4.320466715E-1,-8.744006394E0,8.423797662E0,1.214926661E1
5.396219208E0,-2.403071147E-1,-8.688545553E0,8.989332758E0,1.250426626E1
5.406185208E0,-1.004792554E0,-8.658603716E0,9.520520725E0,1.290818892E1
5.416152208E0,-1.598393701E0,-8.696630498E0,1.025989179E1,1.354443147E1
5.426119208E0,-1.875765731E0,-8.571312388E0,1.103726858E1,1.409990039E1
5.436085208E0,-1.931104950E0,-8.272497448E0,1.169961077E1,1.445836341E1
5.446052208E0,-1.739050228E0,-7.780550146E0,1.225663173E1,1.462143214E1
5.456019208E0,-1.427117645E0,-7.226408349E0,1.262175878E1,1.461391245E1
5.465985208E0,-8.774396127E-1,-6.772300133E0,1.279788627E1,1.450585545E1
5.475952208E0,-2.866053683E-1,-6.262499526E0,1.286697580E1,1.431293503E1
5.485919208E0,1.100405055E-1,-5.703244924E0,1.262295746E1,1.385200948E1
5.495885208E0,3.964733809E-1,-5.266605265E0,1.196544390E1,1.307922666E1
5.505852208E0,6.963718092E-1,-4.820594857E0,1.101044390E1,1.203964050E1
5.515819208E0,9.295576000E-1,-4.363792244E0,9.997810228E0,1.094819480E1
5.525786208E0,1.164505742E0,-3.968543270E0,9.034275627E0,9.935972293E0
5.535752208E0,1.458991402E0,-3.617407445E0,8.166472811E0,9.050169650E0
5.545719208E0,1.771550807E0,-3.220462779E0,7.437535518E0,8.296186314E0
5.555686208E0,2.119995743E0,-2.838010436E0,6.771248803E0,7.641890835E0
5.565652208E0,2.470060358E0,-2.503599402E0,6.268399951E0,7.187631466E0
5.575619375E0,2.681427848E0,-2.175366536E0,5.825671002E0,6.772054156E0
5.585586375E0,2.775913591E0,-1.888574642E0,5.402579341E0,6.360839094E0
5.595552375E0,2.746345975E0,-1.604284186E0,5.164518142E0,6.065343486E0
5.605519375E0,2.683990098E0,-1.192563021E0,5.022938340E0,5.818583932E0
5.615486375E0,2.655891888E0,-8.577590543E-1,4.986080416E0,5.714062498E0
5.625452375E0,2.664524133E0,-5.640235913E-1,5.128453685E0,5.806793320E0
5.635419375E0,2.801183503E0,-2.793051195E-1,5.383619159E0,6.075195110E0
5.645386375E0,2.956566827E0,-2.195044756E-2,5.710974358E0,6.430940627E0
5.655353375E0,3.057827738E0,2.365613884E-1,6.066592659E0,6.797780392E0
5.665319375E0,3.273757226E0,3.769530362E-1,6.441357667E0,7.235376186E0
5.675286375E0,3.659422613E0,3.586594373E-1,6.684724045E0,7.629255928E0
5.685253375E0,4.268769727E0,4.728754395E-1,6.849091616E0,8.084309626E0
5.695219375E0,5.151611583E0,7.746531630E-1,6.838835599E0,8.597026333E0
5.705186375E0,6.109947424E0,1.174792163E0,6.741836139E0,9.174091163E0
5.715153375E0,7.213742695E0,1.478683071E0,6.463436168E0,9.797989304E0
5.725119375E0,8.278970901E0,1.630958599E0,6.074978735E0,1.039743967E1
5.735086375E0,9.166882877E0,1.683522729E0,5.662484568E0,1.090549045E1
5.745053375E0,9.819751986E0,1.768568142E0,5.250990275E0,1.127511690E1
5.755020375E0,1.031235652E1,2.034409463E0,4.815333533E0,1.156161562E1
5.764986375E0,1.068980949E1,2.420905155E0,4.422998226E0,1.181929448E1
5.774953375E0,1.090841349E1,2.987164721E0,4.213795960E0,1.206949520E1
5.784920375E0,1.100022647E1,3.629930427E0,4.244458466E0,1.233680692E1
5.794886375E0,1.090757734E1,4.020426199E0,4.413940305E0,1.243470705E1
5.804853375E0,1.089160509E1,4.033429822E0,4.570810575E0,1.248150339E1
5.814820375E0,1.074505749E1,3.797612200E0,4.630263018E0,1.230111599E1
5.824786375E0,1.036946744E1,3.457808864E0,4.552434238E0,1.184090177E1
5.834753375E0,9.913682828E0,3.095151100E0,4.367386235E0,1.126654916E1
5.844720375E0,9.350186656E0,2.777485322E0,4.127405103E0,1.059131192E1
5.854686375E0,8.739502868E0,2.570820748E0,3.915106443E0,9.915446947E0
5.864653375E0,8.285480606E0,2.413316638E0,3.886095775E0,9.464408404E0
5.874620375E0,8.055600246E0,2.290886468E0,3.808897326E0,9.200464933E0
5.884587375E0,7.900432100E0,2.216943163E0,3.589330578E0,8.956280386E0
5.894553375E0,7.740403748E0,2.098863906E0,3.228149821E0,8.645231699E0
5.904520375E0,7.485061103E0,1.778436488E0,2.697675214E0,8.152694500E0
5.914487375E0,7.088003000E0,1.360277538E0,2.129155991E0,7.524855264E0
5.924453375E0,6.624807041E0,9.028779244E-1,1.584281008E0,6.871186447E0
5.934420375E0,6.098169962E0,3.986502993E-1,1.040425487E0,6.199119626E0
5.944387375E0,5.503135663E0,-7.672424018E-2,5.174950305E-1,5.527946259E0
5.954353375E0,4.792824091E0,-3.805742168E-1,9.513295613E-2,4.808851192E0
5.964320375E0,4.114620166E0,-5.866090465E-1,-2.169727043E-1,4.161884962E0
5.974287375E0,3.541061520E0,-7.818809062E-1,-3.660462248E-1,3.644783159E0
5.984253375E0,3.023274786E0,-9.623505396E-1,-4.039256573E-1,3.198353472E0
5.994220375E0,2.479687799E0,-1.085095875E0,1.243539047E-1,2.709566115E0
6.004187375E0,2.089296691E0,-1.178314526E0,-2.472331417E-1,2.411370982E0
6.014154375E0,1.987268625E0,-1.443693917E0,-8.668298399E-1,2.604780737E0
6.024120375E0,1.723818231E0,-1.486581489E0,-4.437885018E-1,2.319142525E0
6.034087375E0,1.369158289E0,-1.687625721E0,-3.474590957E-1,2.200773232E0
6.044054375E0,1.168659604E0,-2.087967035E0,-3.966704321E-1,2.425431722E0
6.054020375E0,1.009945706E0,-2.526594747E0,-4.518201276E-1,2.758226382E0
6.063987375E0,7.621331048E-1,-2.955473982E0,-4.438714957E-1,3.084265753E0
6.073954375E0,5.083656996E-1,-3.215410200E0,-4.547666126E-1,3.286960771E0
6.083920375E0,3.246245492E-1,-3.428285687E0,-5.886317445E-1,3.493567114E0
6.093887375E0,1.150012833E-1,-3.670241717E0,-8.020334812E-1,3.758611081E0
6.103854375E0,-1.406395698E-1,-3.893168567E0,-9.787953950E-1,4.016787449E0
6.113820375E0,-4.779952615E-1,-3.948060474E0,-1.092537773E0,4.124233233E0
6.123787375E0,-8.227658075E-1,-3.923252492E0,-1.144199677E0,4.168698429E0
6.133754375E0,-1.189375119E0,-3.889503533E0,-1.092215445E0,4.211387596E0
6.143721375E0,-1.471601508E0,-3.873604953E0,-9.845367761E-1,4.259077247E0
6.153687375E0,-1.686162747E0,-3.871324539E0,-8.724612933E-1,4.311784689E0
6.163654375E0,-1.951245684E0,-3.783009363E0,-7.907055241E-1,4.329403514E0
6.173621375E0,-2.183177247E0,-3.651585006E0,-6.980610698E-1,4.311336823E0
6.183587375E0,-2.344893106E0,-3.636567602E0,-6.280557190E-1,4.372367961E0
6.193554375E0,-2.488594862E0,-3.712888969E0,-8.142429060E-1,4.543307209E0
6.203521375E0,-2.663576884E0,-3.676364628E0,-9.892722899E-1,4.646391972E0
6.213487375E0,-2.954272964E0,-3.551148844E0,-1.137462369E0,4.757331973E0
6.223454375E0,-3.158309215E0,-3.539890907E0,-1.308225040E0,4.921097184E0
6.233421375E0,-3.477902820E0,-3.564760577E0,-1.456767852E0,5.188978568E0
6.243388375E0,-3.803206816E0,-3.487658607E0,-1.552305363E0,5.388672989E0
6.253354375E0,-4.157179125E0,-3.329373895E0,-1.564043648E0,5.550954994E0
6.263321375E0,-4.420403232E0,-3.192942858E0,-1.557415829E0,5.671013392E0
6.273288375E0,-4.573657000E0,-3.116068345E0,-1.558097907E0,5.749425134E0
6.283254375E0,-4.740495020E0,-3.095092336E0,-1.580931284E0,5.878029714E0
6.293221375E0,-4.874533083E0,-3.123682881E0,-1.550774123E0,5.993610590E0
6.303188375E0,-4.993333302E0,-3.150415767E0,-1.514542875E0,6.095271699E0
6.313154375E0,-5.101119121E0,-3.123039395E0,-1.559744191E0,6.181229109E0
6.323121375E0,-5.193215691E0,-3.088978779E0,-1.633267665E0,6.259300471E0
6.333088375E0,-5.276284161E0,-3.145677768E0,-1.755493183E0,6.388757272E0
6.343054375E0,-5.367553934E0,-3.226228718E0,-1.862669722E0,6.533660955E0
6.353021375E0,-5.401013457E0,-3.197813881E0,-1.931933500E0,6.567292214E0
6.362988375E0,-5.363067366E0,-3.206056994E0,-2.026840681E0,6.568818475E0
6.372954375E0,-5.291877515E0,-3.320988987E0,-2.248520321E0,6.639938187E0
6.382921375E0,-5.208126091E0,-3.450892192E0,-2.365260712E0,6.680396136E0
6.392888375E0,-5.119719699E0,-3.532996748E0,-2.383477274E0,6.661423251E0
6.402855375E0,-5.043883066E0,-3.617684019E0,-2.319661347E0,6.626403459E0
6.412821375E0,-4.973893649E0,-3.685944706E0,-2.164856312E0,6.558384654E0
6.422788375E0,-4.889477981E0,-3.743607608E0,-2.006565607E0,6.476719724E0
6.432755375E0,-4.806728185E0,-3.786987809E0,-1.840133530E0,6.389992482E0
6.442721375E0,-4.704762685E0,-3.806312272E0,-1.661683379E0,6.275667031E0
6.452688375E0,-4.382544265E0,-3.947855529E0,-1.585702320E0,6.107921853E0
6.462655375E0,-3.751873525E0,-4.417989209E0,-1.690641714E0,6.037669501E0
6.472621375E0,-3.448581372E0,-5.099526924E0,-1.852667037E0,6.428861757E0
6.482588375E0,-3.370819836E0,-5.601772928E0,-1.855185579E0,6.795881094E0
6.492555375E0,-3.185951927E0,-6.009750706E0,-1.680828332E0,7.006609531E0
6.502521375E0,-2.938041093E0,-6.456986690E0,-1.489868794E0,7.248756555E0
6.512488375E0,-2.598154727E0,-6.938274518E0,-1.278389622E0,7.518267174E0
6.522455375E0,-2.471798735E0,-7.164199237E0,-8.899860565E-1,7.630702122E0
6.532422375E0,-2.475512302E0,-6.967103630E0,-3.207764965E-1,7.400783182E0
6.542388375E0,-2.442225273E0,-6.498021280E0,2.941523695E-1,6.948040763E0
6.552355375E0,-2.385578032E0,-5.788393248E0,8.452588036E-1,6.317510695E0
6.562322375E0,-2.240347229E0,-4.936068011E0,1.313750659E0,5.577621707E0
6.572288833E0,-2.120839496E0,-3.940118201E0,1.810907831E0,4.827201961E0
6.582255833E0,-1.829264579E0,-3.009429165E0,2.045524435E0,4.072719363E0
6.592222833E0,-1.301124181E0,-2.356509769E0,2.103283816E0,3.416118446E0
6.602188833E0,-6.150493187E-1,-1.977999035E0,2.040291762E0,2.907500012E0
6.612155833E0,5.408908367E-2,-1.752232776E0,1.847697342E0,2.547004279E0
6.622122833E0,5.635505515E-1,-1.690664518E0,1.632197040E0,2.416609798E0
6.632088833E0,9.361538440E-1,-1.719467318E0,1.401395743E0,2.407667317E0
6.642055833E0,1.250703641E0,-1.815779731E0,1.093149830E0,2.460953510E0
6.652022833E0,1.623515094E0,-2.013368842E0,8.594833982E-1,2.725466394E0
6.661989833E0,2.034677850E0,-2.286445507E0,6.215122461E-1,3.123143366E0
6.671955833E0,2.428169151E0,-2.528594495E0,4.136998630E-1,3.530006108E0
6.681922833E0,2.852671160E0,-2.787983998E0,2.999387741E-1,4.000068848E0
6.691889833E0,3.182040725E0,-3.034462849E0,3.834931469E-1,4.413662306E0
6.701855833E0,3.242607354E0,-3.135826086E0,5.752186704E-1,4.547393123E0
6.711822833E0,3.109897193E0,-2.992770447E0,8.737400794E-1,4.403584589E0
6.721789833E0,2.993179752E0,-2.666487043E0,1.142030214E0,4.168154410E0
6.731755833E0,2.979301386E0,-2.222029656E0,1.353440974E0,3.955433606E0
6.741722833E0,3.111527397E0,-1.643328969E0,1.426587303E0,3.797009899E0
6.751689833E0,3.266278052E0,-9.546801621E-1,1.419640810E0,3.687189520E0
6.761655833E0,3.404457114E0,-2.361140764E-1,1.403316554E0,3.689901821E0
6.771622833E0,3.676592962E0,4.159715062E-1,1.389277389E0,3.952272734E0
6.781589833E0,4.003832094E0,9.921245617E-1,1.381091287E0,4.349988014E0
6.791556833E0,4.362527491E0,1.447763579E0,1.352104300E0,4.791226517E0
6.801522833E0,4.672602414E0,1.765798901E0,1.404885947E0,5.188927018E0
6.811489833E0,4.884982057E0,1.958209718E0,1.441756150E0,5.456766056E0
6.821456833E0,5.217216758E0,1.887854265E0,1.503831360E0,5.748465289E0
6.831422833E0,5.530129334E0,1.742235206E0,1.643916614E0,6.026622254E0
6.841389833E0,5.813978325E0,1.696355613E0,1.799990494E0,6.318222227E0
6.851356833E0,5.931978060E0,1.805624871E0,1.881027056E0,6.479730524E0
6.861322833E0,6.014569981E0,2.030209408E0,1.879620216E0,6.620405913E0
6.871289833E0,5.873999408E0,2.411823260E0,1.700653317E0,6.573658205E0
6.881256833E0,5.578488731E0,2.803869129E0,1.406113862E0,6.399873030E0
6.891222833E0,5.240941835E0,3.019385219E0,1.205776486E0,6.167499927E0
6.901189833E0,4.952984591E0,2.972756013E0,1.123462965E0,5.884853753E0
6.911156833E0,4.693208294E0,2.822556830E0,1.164055579E0,5.598933518E0
6.921123833E0,4.513593524E0,2.759232069E0,1.365654638E0,5.463597780E0
6.931089833E0,4.411022252E0,2.701702484E0,1.491533496E0,5.383399092E0
6.941056833E0,4.423873847E0,2.669803584E0,1.494474646E0,5.378844249E0
6.951023833E0,4.629201163E0,2.616857631E0,1.438818655E0,5.508869792E0
6.960989833E0,4.983365554E0,2.544336369E0,1.424327939E0,5.773758730E0
6.970956833E0,5.175075874E0,2.675454918E0,1.349643792E0,5.980050810E0
6.980923833E0,5.373800515E0,2.846045680E0,1.133237171E0,6.185623208E0
6.990889833E0,5.507519320E0,2.949573557E0,9.683095101E-1,6.322212946E0
7.000856833E0,5.678909397E0,2.947389622E0,7.744496799E-1,6.444911933E0
7.010823833E0,5.856761817E0,2.889334372E0,6.823210231E-1,6.566237436E0
7.020789833E0,6.028469982E0,2.848758203E0,6.124619257E-1,6.695743666E0
7.030756833E0,6.304195436E0,2.837734448E0,5.382725266E-1,6.934360404E0
7.040723833E0,6.589137272E0,2.854089695E0,4.944288977E-1,7.197709212E0
7.050689833E0,6.896400268E0,2.984810048E0,5.181100845E-1,7.532454164E0
7.060656833E0,7.217669685E0,3.181606861E0,5.335841560E-1,7.905826329E0
7.070623833E0,7.575331002E0,3.334830809E0,5.880309797E-1,8.297741666E0
7.080590833E0,7.804999108E0,3.549472740E0,6.447338784E-1,8.598398082E0
7.090556833E0,8.205879536E0,3.494594867E0,5.100268936E-1,8.933575973E0
7.100523833E0,8.896488329E0,2.742512541E0,1.811069798E-1,9.311373656E0
7.110490833E0,9.395238867E0,1.652832448E0,2.161400243E-1,9.541964420E0
7.120456833E0,9.688559763E0,1.002712115E0,3.835469778E-1,9.747857721E0
7.130423833E0,9.951067586E0,6.470791966E-1,4.061967524E-1,9.980353370E0
7.140390833E0,1.014187744E1,3.629401839E-1,3.964832846E-1,1.015611158E1
7.150356833E0,1.016852437E1,1.079530495E-1,4.704330941E-1,1.017997293E1
7.160323833E0,9.847530938E0,2.681673431E-1,6.964279425E-1,9.875767878E0
7.170290833E0,9.286590584E0,7.624745822E-1,1.005881306E0,9.371975745E0
7.180256833E0,8.663128291E0,1.235831248E0,1.428965950E0,8.866736398E0
7.190223833E0,7.944616585E0,1.519305432E0,1.830097808E0,8.293038024E0
7.200190833E0,7.230246461E0,1.639926474E0,2.041070026E0,7.689719733E0
7.210156833E0,6.338257806E0,1.461525001E0,2.129881046E0,6.844410904E0
7.220123833E0,5.601568276E0,8.847071171E-1,2.089914157E0,6.043841081E0
7.230090833E0,4.917612444E0,1.528111339E-2,2.062157425E0,5.332507750E0
7.240057833E0,4.127509183E0,-8.865115678E-1,1.989836723E0,4.667085279E0
7.250023833E0,3.357676465E0,-1.674643732E0,1.844220003E0,4.180857602E0
7.259990833E0,2.676744229E0,-2.409711245E0,1.629782724E0,3.953208783E0
7.269957833E0,2.116079863E0,-3.172646003E0,1.376918714E0,4.054550751E0
7.279923833E0,1.655918024E0,-3.787572531E0,1.165284591E0,4.294840900E0
7.289890833E0,1.419746060E0,-4.239603816E0,9.421571803E-1,4.569199004E0
7.299857833E0,1.374966329E0,-4.590480609E0,7.244419527E-1,4.846427630E0
7.309823833E0,1.526458915E0,-4.713870308E0,5.215353835E-1,4.982233360E0
7.319790833E0,1.476504398E0,-4.574300194E0,1.475638425E-1,4.808956497E0
7.329757833E0,1.350112739E0,-4.450042183E0,-3.070279384E-1,4.660466285E0
7.339723833E0,1.132225603E0,-4.261061928E0,-5.286695713E-1,4.440503922E0
7.349690833E0,8.814554805E-1,-4.216083391E0,-4.150119781E-1,4.327188217E0
7.359657833E0,5.863944536E-1,-4.441996999E0,-2.250887493E-2,4.480591752E0
7.369624833E0,2.145208937E-1,-4.763680399E0,4.378213817E-1,4.788565309E0
7.379590833E0,-1.670479345E-1,-5.043118835E0,8.014562148E-1,5.109137370E0
7.389557833E0,-6.258345079E-1,-5.180717268E0,1.120120697E0,5.337243729E0
7.399524833E0,-1.076257809E0,-5.307265633E0,1.390825147E0,5.591045873E0
7.409490833E0,-1.594246271E0,-5.377945606E0,1.602539962E0,5.833699893E0
7.419457833E0,-2.125048907E0,-5.478107241E0,1.762879971E0,6.134593515E0
7.429424833E0,-2.574581092E0,-5.668676770E0,1.844231113E0,6.493346788E0
7.439390833E0,-3.064370772E0,-5.785278436E0,1.759076942E0,6.778950250E0
7.449357833E0,-3.529644831E0,-5.852459435E0,1.627833117E0,7.025632693E0
7.459324833E0,-3.882833614E0,-6.028968165E0,1.469264229E0,7.320081378E0
7.469290833E0,-4.180846315E0,-6.170909325E0,1.198590916E0,7.549583961E0
7.479257833E0,-4.408141621E0,-6.258784790E0,8.339250724E-1,7.700618847E0
7.489224833E0,-4.557984708E0,-6.348932483E0,4.743651639E-1,7.830018556E0
7.499191833E0,-4.766832048E0,-6.399641291E0,1.407331252E-1,7.981096557E0
7.509157833E0,-4.936329381E0,-6.330809623E0,-1.331007546E-1,8.028960957E0
7.519124833E0,-5.159027606E0,-6.271991311E0,-3.560159111E-1,8.128972148E0
7.529091833E0,-5.389478654E0,-6.215901310E0,-5.838512072E-1,8.247714320E0
7.539057833E0,-5.603581472E0,-6.131142996E0,-7.550766850E-1,8.340334559E0
7.549024833E0,-5.711855534E0,-6.017984170E0,-8.399133521E-1,8.339477295E0
7.558991833E0,-5.706281383E0,-5.908476346E0,-8.726153675E-1,8.260338827E0
7.568957833E0,-5.710481438E0,-5.804228092E0,-9.395990235E-1,8.196432659E0
7.578924625E0,-5.751076902E0,-5.683864912E0,-1.080182606E0,8.157695774E0
7.588891625E0,-5.809074849E0,-5.596613345E0,-1.210821098E0,8.156808155E0
7.598857625E0,-5.878635666E0,-5.550081788E0,-1.442565404E0,8.212354114E0
7.608824625E0,-5.911995201E0,-5.544865487E0,-1.740519049E0,8.290152416E0
7.618791625E0,-5.960675025E0,-5.597881606E0,-2.017945019E0,8.422471569E0
7.628757625E0,-6.031321084E0,-5.644603783E0,-2.186773431E0,8.545195371E0
7.638724625E0,-6.113144097E0,-5.723334203E0,-2.348013326E0,8.697140434E0
7.648691625E0,-6.206627626E0,-5.853372771E0,-2.558524638E0,8.906752922E0
7.658658625E0,-6.210801369E0,-5.844334145E0,-2.692868510E0,8.943256457E0
7.668624625E0,-6.092498748E0,-5.736634279E0,-2.825616093E0,8.832418704E0
7.678591625E0,-5.739778912E0,-5.801891545E0,-3.054160364E0,8.714063518E0
7.688558625E0,-5.239876472E0,-6.103840592E0,-3.386406759E0,8.728168545E0
7.698524625E0,-4.935382717E0,-6.558380333E0,-3.731238701E0,9.016235212E0
7.708491625E0,-4.786492726E0,-7.060491850E0,-4.024998137E0,9.431949310E0
7.718458625E0,-4.748996286E0,-7.485542913E0,-4.198136532E0,9.808703725E0
7.728424625E0,-4.859990473E0,-7.826336768E0,-4.151461133E0,1.010473573E1
7.738391625E0,-5.198543090E0,-7.995313114E0,-3.791324104E0,1.026274917E1
7.748358625E0,-5.536286452E0,-7.907628268E0,-3.184666709E0,1.016479978E1
7.758324625E0,-5.554361365E0,-7.450759581E0,-2.401993505E0,9.598662475E0
7.768291625E0,-5.177739866E0,-6.630484103E0,-1.610858942E0,8.565464149E0
7.778258625E0,-4.629002650E0,-5.639002735E0,-9.357674892E-1,7.355384298E0
7.788224625E0,-3.952802566E0,-4.536864857E0,-5.112764436E-1,6.038972964E0
7.798191625E0,-2.971852618E0,-3.519564816E0,-3.500749938E-1,4.619718279E0
7.808158625E0,-1.877849094E0,-2.598008254E0,-4.419255424E-1,3.235932986E0
7.818125625E0,-1.022858112E0,-1.788960307E0,-8.320951863E-1,2.222386126E0
7.828091625E0,-4.477476150E-1,-1.290120891E0,-1.375549881E0,1.938305269E0
7.838058625E0,-2.438698232E-2,-1.220466227E0,-2.001279139E0,2.344195113E0
7.848025625E0,2.171077019E-1,-1.545011838E0,-2.727983379E0,3.142624803E0
7.857991625E0,2.381015450E-1,-2.114412822E0,-3.345216048E0,3.964581231E0
7.867958625E0,6.410594881E-2,-2.645804272E0,-3.739927663E0,4.581642581E0
7.877925625E0,-6.253947973E-2,-3.181174167E0,-3.929296759E0,5.056001710E0
7.887891625E0,-1.446530986E-1,-3.834252023E0,-3.865925220E0,5.446814748E0
7.897858625E0,-1.310109597E-1,-4.562384153E0,-3.536605357E0,5.774087848E0
7.907825625E0,-1.163239235E-1,-5.245909045E0,-2.997362266E0,6.042952384E0
7.917791625E0,-1.511639732E-1,-5.763845467E0,-2.284951544E0,6.202077771E0
7.927758625E0,-2.419554448E-1,-6.091214699E0,-1.483493575E0,6.273929561E0
7.937725625E0,-3.381573451E-1,-6.208057855E0,-6.947743499E-1,6.255960687E0
7.947691625E0,-5.160623896E-1,-6.032064850E0,4.170932215E-2,6.054243670E0
7.957658625E0,-6.976266217E-1,-5.595215276E0,7.592773247E-1,5.689430459E0
7.967625625E0,-7.242571807E-1,-5.157445350E0,1.313272941E0,5.371077808E0
7.977592625E0,-5.945250070E-1,-4.691290700E0,1.718465105E0,5.031380599E0
7.987558625E0,-2.923619521E-1,-4.203503106E0,1.988252712E0,4.659191209E0
7.997525625E0,1.357477891E-1,-3.707994264E0,2.187169726E0,4.307129013E0
8.007492625E0,6.724607903E-1,-3.308817131E0,2.228382071E0,4.045511213E0
8.017458625E0,1.226462839E0,-2.984380862E0,2.107041821E0,3.853617192E0
8.027425625E0,1.722688549E0,-2.687808330E0,1.856015006E0,3.692798554E0
8.037392625E0,2.139088072E0,-2.467872330E0,1.578916626E0,3.627543153E0
8.047358625E0,2.501970953E0,-2.277561833E0,1.396980511E0,3.660423623E0
8.057325625E0,2.892176118E0,-2.156333849E0,1.233879447E0,3.812730893E0
8.067292625E0,3.287753121E0,-2.126109592E0,1.074135927E0,4.059979135E0
8.077258625E0,3.740305978E0,-2.056141809E0,9.675212324E-1,4.376494634E0
8.087225625E0,4.221326589E0,-1.977575696E0,9.811475837E-1,4.763722744E0
8.097192625E0,4.767389288E0,-1.815226584E0,1.126877739E0,5.224260868E0
8.107158625E0,5.385645220E0,-1.610098658E0,1.342034225E0,5.779156338E0
8.117125625E0,6.059925663E0,-1.377232710E0,1.703298597E0,6.443655414E0
8.127092625E0,6.676456082E0,-1.143081543E0,2.044922172E0,7.075550008E0
8.137059625E0,7.226339936E0,-7.356650984E-1,2.439995145E0,7.662556252E0
8.147025625E0,7.816473684E0,-4.057757163E-1,2.650698391E0,8.263662430E0
8.156992625E0,8.371130036E0,-7.432512760E-2,2.912473558E0,8.863624797E0
8.166959625E0,8.837836663E0,2.492095006E-1,3.289103243E0,9.433327218E0
8.176925625E0,9.205778555E0,5.165699279E-1,3.682945962E0,9.928609885E0
8.186892625E0,9.504246755E0,7.747420406E-1,4.078773226E0,1.037146675E1
8.196859625E0,9.720011936E0,1.090182368E0,4.359146047E0,1.070837447E1
8.206825625E0,9.806694569E0,1.458280966E0,4.484417964E0,1.088153694E1
8.216792625E0,9.847467788E0,1.811740474E0,4.433040527E0,1.095019971E1
8.226759625E0,9.713304010E0,2.149994298E0,4.301693937E0,1.083860328E1
8.236725625E0,9.515029020E0,2.505861690E0,4.241757345E0,1.071483203E1
8.246692625E0,9.334627215E0,2.829060688E0,4.296872030E0,1.065842197E1
8.256659625E0,9.191516612E0,3.158757697E0,4.375733428E0,1.065874152E1
8.266626625E0,9.171170640E0,3.414233658E0,4.435965596E0,1.074454062E1
8.276592625E0,9.144321395E0,3.642832893E0,4.587188627E0,1.085961071E1
8.286559625E0,9.309479510E0,3.673378748E0,4.620531789E0,1.102313178E1
8.296526625E0,9.709965250E0,3.053388532E0,4.560896621E0,1.115385067E1
8.306492625E0,9.911727519E0,2.373369046E0,4.661971299E0,1.120755100E1
8.316459625E0,1.014203414E1,2.088433642E0,4.741048459E0,1.138858868E1
8.326426625E0,1.035928627E1,2.063009949E0,4.838021022E0,1.161797183E1
8.336392625E0,1.042305951E1,2.307321821E0,4.906567054E0,1.174897033E1
8.346359625E0,1.050318040E1,2.673011951E0,4.918413513E0,1.190178906E1
8.356326625E0,1.051961575E1,2.981609867E0,5.058547883E0,1.204745698E1
8.366292625E0,1.039725458E1,3.241263079E0,5.325825280E0,1.212324643E1
8.376259625E0,1.020431400E1,3.431641989E0,5.467380524E0,1.207461970E1
8.386226625E0,9.804518235E0,3.381898556E0,5.215401782E0,1.160888588E1
8.396192625E0,9.170896990E0,2.979583222E0,4.576145575E0,1.067353625E1
8.406159625E0,8.594556239E0,2.375150108E0,3.972890967E0,9.761741526E0
8.416126625E0,7.914834377E0,1.805996169E0,3.428907831E0,8.812697333E0
8.426092625E0,7.143887179E0,1.186009462E0,2.916997549E0,7.807087624E0
8.436059625E0,6.452290206E0,4.569341755E-1,2.417451058E0,6.905425936E0
8.446026625E0,5.769927156E0,-2.881811929E-1,1.962245905E0,6.101271734E0
8.455993625E0,5.192353812E0,-1.008745272E0,1.575010686E0,5.518945895E0
8.465959625E0,4.802353299E0,-1.744643090E0,1.302876592E0,5.272936955E0
8.475926625E0,4.480341578E0,-2.464848150E0,1.256564159E0,5.265727921E0
8.485893625E0,4.277637030E0,-3.012188466E0,1.415711482E0,5.419935139E0
8.495859625E0,4.200839992E0,-3.392887228E0,1.668055236E0,5.651650082E0
8.505826625E0,4.073288245E0,-3.625753176E0,1.958968102E0,5.794421390E0
8.515793625E0,3.786980792E0,-3.746153778E0,2.019290317E0,5.696702997E0
8.525759625E0,3.580298676E0,-4.017113167E0,2.206947348E0,5.816042761E0
8.535726625E0,3.518347426E0,-4.336201572E0,2.791914496E0,6.243092122E0
8.545693625E0,3.414911351E0,-4.529004153E0,3.528518658E0,6.680115423E0
8.555659625E0,3.327447529E0,-4.656369374E0,4.102801774E0,7.041779974E0
8.565626625E0,3.171257874E0,-4.753741302E0,4.241448612E0,7.116517351E0
8.575593458E0,2.960848158E0,-4.872418145E0,4.123792108E0,7.036529098E0
8.585559458E0,2.500121478E0,-5.064457664E0,3.857001200E0,6.839283376E0
8.595526458E0,1.938747261E0,-5.281899827E0,3.495850264E0,6.624060370E0
8.605493458E0,1.438865286E0,-5.521655549E0,3.231715161E0,6.557666978E0
8.615460458E0,8.373698133E-1,-5.809535610E0,3.025949303E0,6.603655154E0
8.625426458E0,6.451993167E-2,-5.981944272E0,2.523510926E0,6.492759620E0
8.635393458E0,-7.263569158E-1,-5.942132335E0,1.874879586E0,6.273093696E0
8.645360458E0,-1.469263791E0,-5.770139995E0,1.234423530E0,6.080876014E0
8.655326458E0,-2.187649198E0,-5.526561947E0,7.552823608E-1,5.991589724E0
8.665293458E0,-2.765145943E0,-5.206971266E0,4.593337266E-1,5.913507363E0
8.675260458E0,-3.155991964E0,-4.856775089E0,3.393243031E-1,5.802041927E0
8.685226458E0,-3.348588722E0,-4.581616815E0,3.117103887E-1,5.683434035E0
8.695193458E0,-3.402934499E0,-4.322398050E0,3.587861757E-1,5.512877255E0
8.705160458E0,-3.427236696E0,-4.126944050E0,5.061279702E-1,5.388300668E0
8.715126458E0,-3.394933169E0,-3.963255048E0,7.370007487E-1,5.270306623E0
8.725093458E0,-3.294069868E0,-3.893101909E0,1.088992752E0,5.214695004E0
8.735060458E0,-3.124640948E0,-3.897854526E0,1.474244741E0,5.208651314E0
8.745026458E0,-3.087285426E0,-3.946948918E0,1.816615298E0,5.330087073E0
8.754993458E0,-3.088258402E0,-4.101908904E0,2.151298227E0,5.566963326E0
8.764960458E0,-3.094074628E0,-4.398841332E0,2.477769327E0,5.921354888E0
8.774926458E0,-3.211343461E0,-4.886141852E0,2.762822260E0,6.466861361E0
8.784893458E0,-3.402111796E0,-5.432767346E0,3.018331258E0,7.085171084E0
8.794860458E0,-3.575949517E0,-6.026889480E0,3.243883801E0,7.722279059E0
8.804827458E0,-3.803528997E0,-6.595445833E0,3.473357195E0,8.368449603E0
8.814793458E0,-4.179113200E0,-7.037728640E0,3.751911824E0,9.003968785E0
8.824760458E0,-4.590885236E0,-7.337265126E0,4.045895501E0,9.554106823E0
8.834727458E0,-4.885639869E0,-7.666982015E0,4.176936574E0,1.000494324E1
8.844693458E0,-5.007874158E0,-8.131553239E0,4.119932946E0,1.040071195E1
8.854660458E0,-5.118595864E0,-8.603772036E0,3.996587686E0,1.077950045E1
8.864627458E0,-5.255554027E0,-8.984700009E0,3.794722506E0,1.107906139E1
8.874593458E0,-5.437595977E0,-9.283032553E0,3.553596489E0,1.133005699E1
8.884560458E0,-5.719695480E0,-9.505642485E0,3.335276366E0,1.158430938E1
8.894527458E0,-6.033841819E0,-9.538641247E0,3.188683162E0,1.172862414E1
8.904493458E0,-6.359966764E0,-9.366404493E0,3.184078187E0,1.176082753E1
8.914460458E0,-6.661894761E0,-9.030180237E0,3.315901033E0,1.170129038E1
8.924427458E0,-6.828602387E0,-8.449289183E0,3.580667343E0,1.143859593E1
8.934393458E0,-6.833128132E0,-7.581687511E0,3.813417224E0,1.089567696E1
8.944360458E0,-6.612257162E0,-6.698977218E0,3.891864638E0,1.018552163E1
8.954327458E0,-6.354630595E0,-5.833109245E0,3.885065496E0,9.460455981E0
8.964294458E0,-6.013312245E0,-5.040912681E0,3.628804253E0,8.645168889E0
8.974260458E0,-5.464905397E0,-4.532898106E0,3.060435011E0,7.731663385E0
8.984227458E0,-4.904872531E0,-4.209987668E0,2.353933340E0,6.879154954E0
8.994194458E0,-4.389286689E0,-4.085178266E0,1.544096457E0,6.191829533E0
9.004160458E0,-3.956948826E0,-4.166790778E0,7.840940773E-1,5.799516611E0
9.014127458E0,-3.676761947E0,-4.392077858E0,5.751306698E-2,5.728196407E0
9.024094458E0,-3.656799552E0,-4.735723107E0,-5.836011656E-1,6.011642590E0
9.034060458E0,-3.838669009E0,-5.134128408E0,-1.087854519E0,6.502159774E0
9.044027458E0,-4.122833750E0,-5.587395794E0,-1.364437248E0,7.076612106E0
9.053994458E0,-4.332764579E0,-5.979785480E0,-1.482858567E0,7.531902337E0
9.063960458E0,-4.381315180E0,-6.263712823E0,-1.418676020E0,7.774487938E0
9.073927458E0,-4.249485610E0,-6.373670298E0,-1.282713053E0,7.767055671E0
9.083894458E0,-3.935328746E0,-6.268234475E0,-9.949937904E-1,7.467769977E0
9.093860458E0,-3.501347816E0,-6.010912548E0,-5.535102975E-1,6.978314971E0
9.103827458E0,-3.062259343E0,-5.746132497E0,-4.536744989E-2,6.511338507E0
9.113794458E0,-2.703102892E0,-5.512221651E0,3.061437663E-1,6.146956709E0
9.123760458E0,-2.239896993E0,-5.261148058E0,4.227571269E-1,5.733719649E0
9.133727458E0,-1.521042055E0,-5.039421641E0,4.612692281E-1,5.284137461E0
9.143694458E0,-6.447093201E-1,-4.665875777E0,4.085812469E-1,4.727894405E0
9.153661458E0,2.337909776E-1,-4.177404059E0,1.413576444E-1,4.186328329E0
9.163627458E0,9.584691578E-1,-3.791171492E0,-2.791940224E-1,3.920407340E0
9.173594458E0,1.584139944E0,-3.633981378E0,-9.460432398E-1,4.075575767E0
9.183561458E0,2.141143953E0,-3.577336476E0,-1.689874560E0,4.498611977E0
9.193527458E0,2.518782282E0,-3.477473050E0,-2.203181741E0,4.826084622E0
9.203494458E0,2.975949177E0,-3.481201234E0,-2.557435302E0,5.245522935E0
9.213461458E0,3.542156703E0,-3.508879030E0,-2.671917937E0,5.656699711E0
9.223427458E0,4.026048297E0,-3.464114501E0,-2.614005359E0,5.919643417E0
9.233394458E0,4.452336046E0,-3.234660403E0,-2.482816059E0,6.037441492E0
9.243361458E0,4.994519702E0,-2.966987150E0,-2.189364186E0,6.208184545E0
9.253327458E0,5.697869579E0,-2.595836890E0,-1.778744636E0,6.509072083E0
9.263294458E0,6.437970960E0,-2.146970118E0,-1.440250491E0,6.937670520E0
9.273261458E0,7.032502398E0,-1.594342166E0,-1.202458849E0,7.310535152E0
9.283227458E0,7.463982475E0,-1.050016674E0,-1.156316131E0,7.625656457E0
9.293194458E0,7.802567836E0,-6.634566629E-1,-1.197277046E0,7.921724049E0
9.303161458E0,8.312087776E0,-5.280614609E-1,-1.108152031E0,8.402240953E0
9.313127458E0,9.148852403E0,-3.574724525E-1,-1.038826273E0,9.214577954E0
9.323094458E0,1.009930503E1,-2.410807014E-2,-1.235892643E0,1.017467316E1
9.333061458E0,1.059402508E1,7.235941064E-1,-1.719524036E0,1.075703113E1
9.343028458E0,1.064792238E1,1.567388256E0,-2.387968959E0,1.102439806E1
9.352994458E0,1.033342637E1,2.072309945E0,-3.309567329E0,1.104660151E1
9.362961458E0,9.867700324E0,2.207073648E0,-4.192904443E0,1.094637527E1
9.372928458E0,9.188902906E0,2.256152837E0,-4.857087330E0,1.063566921E1
9.382894458E0,8.426008494E0,2.271059144E0,-5.399979669E0,1.026231500E1
9.392861458E0,7.797063267E0,2.297138895E0,-5.751575085E0,9.957492589E0
9.402828458E0,7.410281646E0,2.455142357E0,-5.845739815E0,9.752572587E0
9.412794458E0,7.340247205E0,2.755307418E0,-5.794476691E0,9.749200384E0
9.422761458E0,7.514214735E0,3.221334599E0,-5.427864456E0,9.813364980E0
9.432728458E0,7.784796978E0,3.658819765E0,-4.779840349E0,9.840574162E0
9.442694458E0,8.068029673E0,3.860790195E0,-4.117760121E0,9.846560422E0
9.452661458E0,8.491507834E0,3.651323635E0,-3.794299167E0,9.991725364E0
9.462628458E0,9.160614077E0,2.659142940E0,-3.829692364E0,1.027883432E1
9.472594458E0,9.404662240E0,1.480924893E0,-3.500112299E0,1.014354950E1
9.482561458E0,9.573819850E0,8.307811707E-1,-3.096877783E0,1.009647839E1
9.492528458E0,9.845456346E0,6.066918933E-1,-2.746841819E0,1.023944460E1
9.502494458E0,1.027881104E1,4.788349217E-1,-2.544281405E0,1.059983996E1
9.512461458E0,1.063169986E1,2.808394289E-1,-2.335047125E0,1.088872618E1
9.522428458E0,1.086615684E1,4.353930330E-1,-1.877055627E0,1.103568164E1
9.532395458E0,1.096929353E1,7.753127289E-1,-1.154575342E0,1.105710426E1
9.542361458E0,1.071987821E1,1.161660486E0,-3.835358316E-1,1.078945521E1
9.552328458E0,1.008157861E1,1.854959584E0,2.947108517E-1,1.025504543E1
9.562295458E0,9.363734654E0,2.345203593E0,7.891115731E-1,9.685153775E0
9.572261458E0,8.473577932E0,2.346630898E0,1.006716288E0,8.849953516E0
9.582228708E0,7.409478239E0,2.005759860E0,1.112652048E0,7.756380275E0
9.592195708E0,6.344564028E0,1.430622466E0,1.079020618E0,6.592758061E0
9.602161708E0,5.321545118E0,7.178544796E-1,9.245102835E-1,5.448750018E0
9.612128708E0,4.288237740E0,1.541676879E-2,6.988288093E-1,4.344833977E0
9.622095708E0,3.275852868E0,-5.868569684E-1,4.170233838E-1,3.354030652E0
9.632061708E0,2.453157227E0,-1.088859728E0,5.932351112E-2,2.684607079E0
9.642028708E0,1.876338174E0,-1.671487405E0,-2.484575486E-1,2.525123015E0
9.651995708E0,1.506655566E0,-2.404404897E0,-2.806640124E-1,2.851306050E0
9.661961708E0,1.161442970E0,-2.992785650E0,-1.089078999E-1,3.212098481E0
9.671928708E0,9.389008659E-1,-3.467868998E0,1.057188284E-1,3.594276936E0
9.681895708E0,8.123554248E-1,-3.970944722E0,3.726044619E-1,4.070277313E0
9.691861708E0,7.594439703E-1,-4.584389564E0,6.935465077E-1,4.698339024E0
9.701828708E0,6.959917402E-1,-5.205767909E0,1.032336375E0,5.352582780E0
9.711795708E0,5.772266042E-1,-5.748608208E0,1.378030854E0,5.939583817E0
9.721761708E0,3.145848799E-1,-6.304368514E0,1.660831439E0,6.527050412E0
9.731728708E0,1.148042321E-2,-6.867815570E0,1.900432649E0,7.125915152E0
9.741695708E0,-1.558160180E-1,-7.191515674E0,2.111389811E0,7.496675480E0
9.751662708E0,-1.689406782E-1,-7.296335201E0,2.323263670E0,7.659151545E0
9.761628708E0,-4.250107169E-2,-7.266098079E0,2.537185224E0,7.696447005E0
9.771595708E0,1.567480642E-1,-7.192531335E0,2.761970905E0,7.706202712E0
9.781562708E0,2.439505148E-1,-7.086019624E0,2.947290219E0,7.678392124E0
9.791528708E0,1.935381603E-1,-6.977894082E0,3.071469877E0,7.626427082E0
9.801495708E0,-2.344733477E-4,-6.903650815E0,3.052734228E0,7.548482027E0
9.811462708E0,-3.081137663E-1,-6.889949035E0,2.988090920E0,7.516316860E0
9.821428708E0,-7.008531153E-1,-6.659855837E0,2.987979823E0,7.333000633E0
9.831395708E0,-1.127462461E0,-6.349218997E0,2.896878157E0,7.069346259E0
9.841362708E0,-1.514751620E0,-6.114503574E0,2.704318528E0,6.855287385E0
9.851328708E0,-1.919317548E0,-5.934626264E0,2.517291827E0,6.726092988E0
9.861295708E0,-2.384533135E0,-5.782283492E0,2.333884845E0,6.675913355E0
9.871262708E0,-2.920740936E0,-5.654470375E0,2.133822215E0,6.712448144E0
9.881228708E0,-3.409602664E0,-5.590749757E0,1.937563930E0,6.829057560E0
9.891195708E0,-3.867741365E0,-5.512254395E0,1.749691722E0,6.957427176E0
9.901162708E0,-4.303855360E0,-5.408592618E0,1.520122726E0,7.077204121E0
9.911128708E0,-4.634120134E0,-5.297717130E0,1.365500564E0,7.169760665E0
9.921095708E0,-4.976140734E0,-5.272192279E0,1.225793771E0,7.352588551E0
9.931062708E0,-5.370512041E0,-5.312339846E0,1.092003776E0,7.632550457E0
9.941029708E0,-5.785252123E0,-5.364001751E0,9.268270234E-1,7.943592717E0
9.950995708E0,-6.188262107E0,-5.401513978E0,7.675137857E-1,8.249849609E0
9.960962708E0,-6.558384426E0,-5.427370951E0,5.935929608E-1,8.533528831E0
9.970929708E0,-6.944677804E0,-5.451291325E0,4.188125221E-1,8.838581947E0
9.980895708E0,-7.436025767E0,-5.391401803E0,2.943428425E-1,9.189577266E0
9.990862708E0,-7.921849281E0,-5.197263719E0,2.049870086E-1,9.476775078E0
1.000082971E1,-8.357368614E0,-5.078991503E0,1.380993931E-1,9.780635781E0
1.001079571E1,-8.634286315E0,-5.307845677E0,2.151564129E-1,1.013757457E1
1.002076271E1,-8.880689152E0,-5.842218622E0,5.597772702E-1,1.064478787E1
1.003072971E1,-9.066788485E0,-6.397821638E0,1.164318631E0,1.115770644E1
1.004069571E1,-9.182789057E0,-6.773271940E0,1.852904288E0,1.156002085E1
1.005066271E1,-9.263295861E0,-6.939243987E0,2.462947805E0,1.183333720E1
1.006062971E1,-9.346940866E0,-6.977541495E0,2.876203279E0,1.201348968E1
1.007059571E1,-9.283891509E0,-6.922969431E0,2.982279958E0,1.195876837E1
1.008056271E1,-8.924187174E0,-6.797713301E0,2.765355273E0,1.155409939E1
1.009052971E1,-7.847190278E0,-6.649764127E0,2.089783180E0,1.049594931E1
1.010049571E1,-6.900264693E0,-6.177393887E0,1.242233803E0,9.344356205E0
1.011046271E1,-6.431708007E0,-5.621079850E0,5.384231655E-1,8.558814525E0
1.012042971E1,-5.944346675E0,-5.341844897E0,-1.342389151E-2,7.991917448E0
1.013039571E1,-5.435596229E0,-5.397598683E0,-4.764027724E-1,7.675072475E0
1.014036271E1,-5.008693353E0,-5.628692340E0,-8.231591789E-1,7.579365250E0
1.015032971E1,-4.558365362E0,-6.008819829E0,-1.173650641E0,7.632959212E0
1.016029671E1,-4.056831549E0,-6.431275313E0,-1.392743472E0,7.730389301E0
1.017026271E1,-3.618455851E0,-6.967274369E0,-1.482905199E0,7.989689775E0
1.018022971E1,-3.176784663E0,-7.478567770E0,-1.441079334E0,8.252129805E0
1.019019671E1,-2.673104337E0,-7.839476631E0,-1.256868214E0,8.377505497E0
1.020016271E1,-2.047562774E0,-8.053690546E0,-9.720526783E-1,8.366560293E0
1.021012971E1,-1.285036737E0,-8.011197075E0,-5.116535890E-1,8.129722467E0
1.022009671E1,-4.015698141E-1,-7.689552852E0,9.066239432E-2,7.700564982E0
1.023006271E1,5.269960982E-1,-7.274496435E0,6.076344645E-1,7.318827974E0
1.024002971E1,1.123796842E0,-6.756116794E0,1.198011603E0,6.952932135E0
1.024999671E1,1.491455144E0,-6.106200528E0,1.670135968E0,6.503804847E0
1.025996271E1,1.935697353E0,-5.352457593E0,1.851289287E0,5.985231704E0
1.026992971E1,2.494594105E0,-4.679394832E0,1.791841668E0,5.597359405E0
1.027989671E1,3.130858877E0,-4.507577616E0,1.564694005E0,5.706908147E0
1.028986271E1,3.449907521E0,-4.835778907E0,1.386705930E0,6.099964990E0
1.029982971E1,3.269130909E0,-5.452221617E0,1.953229644E0,6.650491975E0
1.030979671E1,3.266547609E0,-6.273877038E0,3.219708196E0,7.771639932E0
1.031976271E1,3.312527774E0,-6.789614323E0,4.804674351E0,8.953021754E0
1.032972971E1,3.187839409E0,-6.959051430E0,6.308459226E0,9.919041017E0
1.033969671E1,3.007247568E0,-6.936846043E0,7.168440807E0,1.041872903E1
1.034966271E1,2.716703516E0,-6.672892204E0,7.066046705E0,1.009143124E1
1.035962971E1,2.530017707E0,-6.387601874E0,6.181104530E0,9.241671955E0
1.036959671E1,2.551196907E0,-6.018153740E0,5.368611696E0,8.458650698E0
1.037956271E1,2.682864509E0,-5.395192553E0,4.945067461E0,7.794841682E0
1.038952971E1,2.825199772E0,-4.774974881E0,4.865183385E0,7.379169888E0
1.039949671E1,2.753749135E0,-4.353052078E0,5.031850666E0,7.200813692E0
1.040946371E1,2.498414676E0,-4.234904408E0,5.143753510E0,7.115805746E0
1.041942971E1,2.231541322E0,-4.380524637E0,5.410473082E0,7.310402980E0
1.042939671E1,1.888796251E0,-4.490856918E0,6.006657529E0,7.734033993E0
1.043936371E1,1.417195505E0,-4.550238901E0,6.653850746E0,8.184549280E0
1.044932971E1,1.074956803E0,-4.682495903E0,7.299655250E0,8.738779478E0
1.045929671E1,7.529588234E-1,-4.886052682E0,7.968676123E0,9.377646664E0
1.046926371E1,4.245359230E-1,-4.949893752E0,8.578850033E0,9.913543605E0
1.047922971E1,1.976867598E-1,-5.009775673E0,8.899513679E0,1.021461091E1
1.048919671E1,-4.701629162E-2,-5.198513269E0,9.145538785E0,1.051986836E1
1.049916371E1,-2.783467609E-1,-5.357474504E0,9.222727879E0,1.066952293E1
1.050912971E1,-5.424766016E-1,-5.397323864E0,9.159768569E0,1.064550356E1
1.051909671E1,-7.871393073E-1,-5.352507294E0,9.096340313E0,1.058358775E1
1.052906371E1,-1.063719624E0,-5.251179725E0,9.051564674E0,1.051842246E1
1.053902971E1,-1.311835696E0,-5.204295580E0,8.950203191E0,1.043607889E1
1.054899671E1,-1.581604591E0,-4.966195790E0,8.820805478E0,1.024554454E1
1.055896371E1,-1.717086917E0,-4.657142376E0,8.594997119E0,9.925287808E0
1.056892971E1,-1.636290675E0,-4.458151102E0,8.227550486E0,9.499744493E0
1.057889608E1,-1.476292144E0,-4.394500651E0,7.815936910E0,9.087350783E0
1.058886308E1,-1.206701004E0,-4.352229375E0,7.481056345E0,8.738663049E0
1.059882908E1,-9.756675732E-1,-4.168782340E0,7.345434855E0,8.502122477E0
1.060879608E1,-7.645924437E-1,-4.012137187E0,7.259472599E0,8.329573148E0
1.061876308E1,-5.992349392E-1,-3.953214794E0,7.207970324E0,8.242683174E0
1.062873008E1,-5.052970809E-1,-3.921702395E0,7.181830931E0,8.198400474E0
1.063869608E1,-4.120965564E-1,-3.819057448E0,7.220780988E0,8.178918110E0
1.064866308E1,-3.658047348E-1,-3.780550025E0,7.119172168E0,8.069013815E0
1.065863008E1,-3.030839914E-1,-3.749764434E0,6.958724570E0,7.910527218E0
1.066859608E1,-1.921786827E-1,-3.605852762E0,6.926328657E0,7.811090542E0
1.067856308E1,-7.215464115E-2,-3.393427511E0,6.945780589E0,7.730745407E0
1.068853008E1,1.202433121E-1,-3.175172585E0,7.015012207E0,7.701076267E0
1.069849608E1,3.681804585E-1,-2.971083124E0,7.096877904E0,7.702503993E0
1.070846308E1,6.538116807E-1,-2.781246251E0,7.130161425E0,7.681276090E0
1.071843008E1,1.052176636E0,-2.586205357E0,7.118683341E0,7.646645429E0
1.072839608E1,1.528669163E0,-2.468015587E0,6.978506870E0,7.558272851E0
1.073836308E1,2.048558555E0,-2.336651455E0,6.793180540E0,7.470196384E0
1.074833008E1,2.577995866E0,-2.114074852E0,6.599189805E0,7.393556739E0
1.075829608E1,3.326964257E0,-1.899512444E0,6.311279923E0,7.383027357E0
1.076826308E1,4.249242951E0,-1.540130875E0,6.028476999E0,7.534626978E0
1.077823008E1,5.151099951E0,-9.530107820E-1,5.721650205E0,7.757534487E0
1.078819608E1,6.091849122E0,-2.272584683E-1,5.334104937E0,8.100305403E0
1.079816308E1,7.133980826E0,5.065361059E-1,4.898995787E0,8.668934247E0
1.080813008E1,8.095494044E0,1.179991508E0,4.443497103E0,9.309890992E0
1.081809608E1,9.068347937E0,1.869293448E0,4.105945237E0,1.012857239E1
1.082806308E1,9.756778058E0,2.574711485E0,3.806881206E0,1.078499893E1
1.083803008E1,1.008180197E1,3.011389736E0,3.601956178E0,1.112138874E1
1.084799608E1,1.010506220E1,3.102832003E0,3.613350062E0,1.117121959E1
1.085796308E1,9.922970545E0,3.002862157E0,3.802306052E0,1.104264719E1
1.086793008E1,9.573827451E0,2.834447728E0,4.147837029E0,1.081188319E1
1.087789608E1,9.203829094E0,2.761679714E0,4.336888036E0,1.054257761E1
1.088786308E1,9.064277106E0,2.788329569E0,4.307910112E0,1.041604487E1
1.089783008E1,9.037652979E0,2.928191459E0,4.117027172E0,1.035390696E1
1.090779608E1,9.210649286E0,3.212916362E0,3.676591500E0,1.042478858E1
1.091776308E1,9.526532832E0,3.506965236E0,3.090818313E0,1.061163469E1
1.092773008E1,9.613379188E0,3.941193504E0,2.515030709E0,1.068996937E1
1.093769708E1,9.637362127E0,4.334071432E0,1.637954793E0,1.069326049E1
1.094766308E1,9.666825662E0,4.722089739E0,9.006258693E-1,1.079614639E1
1.095763008E1,9.530763878E0,5.154669092E0,2.864893010E-1,1.083919506E1
1.096759708E1,9.548828266E0,5.451687182E0,-2.966897687E-1,1.099950177E1
1.097756308E1,9.627080383E0,5.501173337E0,-8.405404660E-1,1.111980634E1
1.098753008E1,9.630715013E0,5.166222605E0,-1.324527662E0,1.100885558E1
1.099749708E1,9.757235895E0,4.292693610E0,-1.753533196E0,1.080304353E1
1.100746308E1,1.001390878E1,3.208996389E0,-2.040581199E0,1.071167580E1
1.101743008E1,1.003946579E1,2.562151666E0,-2.220157232E0,1.059644245E1
1.102739708E1,9.803511930E0,2.490929071E0,-2.284087179E0,1.036969759E1
1.103736308E1,9.627325382E0,2.574312705E0,-2.318176593E0,1.023163832E1
1.104733008E1,9.578402313E0,2.550099385E0,-2.354251574E0,1.018780144E1
1.105729708E1,9.210859786E0,2.418358693E0,-2.295596985E0,9.795823716E0
1.106726308E1,8.804351998E0,2.200948105E0,-2.065345327E0,9.307332485E0
1.107723008E1,8.260788399E0,1.950420057E0,-1.796247107E0,8.675901512E0
1.108719708E1,7.439090878E0,1.711794017E0,-1.506036930E0,7.780646444E0
1.109716308E1,6.681897501E0,1.404082539E0,-1.148486710E0,6.923743475E0
1.110713008E1,5.996747668E0,1.020615120E0,-6.705832493E-1,6.119830039E0
1.111709708E1,5.382169050E0,5.326790071E-1,-1.766971560E-1,5.411350339E0
1.112706308E1,4.863042135E0,5.524800181E-2,1.661696827E-1,4.866193945E0
1.113703008E1,4.312431471E0,-2.046326673E-1,3.004276013E-1,4.327724167E0
1.114699708E1,3.692924235E0,-3.121565312E-1,2.448148064E-1,3.714170890E0
1.115696308E1,2.854877899E0,-2.854791945E-1,1.753942502E-1,2.874472009E0
1.116693008E1,2.211012917E0,-2.054910386E-1,1.279967201E-1,2.224227472E0
1.117689708E1,2.176382782E0,-1.094142687E-1,1.245374342E-1,2.182687122E0
1.118686308E1,2.331702372E0,-3.460323751E-2,7.595876656E-2,2.333195892E0
1.119683008E1,2.206214107E0,-1.374019665E-1,-3.272204205E-2,2.210730811E0
1.120679708E1,1.685649946E0,-1.468645155E-1,-2.024026123E-1,1.704098514E0
1.121676308E1,1.048765955E0,-4.028380752E-2,-3.590903771E-1,1.109269450E0
1.122673008E1,4.781180531E-1,-7.911925972E-2,-5.397331611E-1,7.253748101E-1
1.123669708E1,1.045558172E-1,-4.984324497E-1,-4.866754166E-1,7.044286955E-1
1.124666408E1,-1.029583579E-1,-1.124383317E0,-1.788487121E-1,1.143164524E0
1.125663008E1,-2.565781617E-1,-1.757378910E0,3.668250740E-1,1.813497621E0
1.126659708E1,-4.841254824E-1,-2.296661763E0,9.006641686E-1,2.514006499E0
1.127656408E1,-7.784754878E-1,-2.929686592E0,1.304801495E0,3.300241590E0
1.128653008E1,-1.139464456E0,-3.482754255E0,1.635201924E0,4.012710029E0
1.129649708E1,-1.510300135E0,-3.866032809E0,1.891989416E0,4.561451537E0
1.130646408E1,-1.782743547E0,-4.056567255E0,2.077328610E0,4.893792660E0
1.131643008E1,-1.964080322E0,-4.038473631E0,2.105265437E0,4.959740249E0
1.132639708E1,-2.099825773E0,-3.835424389E0,2.001213065E0,4.808804660E0
1.133636408E1,-2.238072662E0,-3.703702116E0,1.822680030E0,4.695587407E0
1.134633008E1,-2.600979517E0,-3.569067052E0,1.683784100E0,4.726358319E0
1.135629708E1,-3.033967590E0,-3.319334518E0,1.614118034E0,4.777898911E0
1.136626408E1,-3.361875350E0,-3.217667517E0,1.610937148E0,4.924500850E0
1.137623008E1,-3.690771291E0,-3.224253236E0,1.740582783E0,5.200695153E0
1.138619708E1,-3.936515146E0,-2.949856270E0,1.858369095E0,5.258454070E0
1.139616408E1,-4.050351664E0,-2.691596741E0,1.763202152E0,5.172902807E0
1.140613008E1,-4.031700216E0,-2.648022121E0,1.483359089E0,5.046482138E0
1.141609708E1,-3.791347493E0,-2.626599677E0,1.110262291E0,4.744051436E0
1.142606408E1,-3.723962426E0,-2.424799108E0,7.177451366E-1,4.501411439E0
1.143603008E1,-3.822607293E0,-2.332515135E0,3.518427533E-1,4.491853369E0
1.144599708E1,-4.070189513E0,-2.425530303E0,4.152104180E-2,4.738287023E0
1.145596408E1,-4.311184260E0,-2.732942988E0,-3.182499146E-1,5.114349432E0
1.146593008E1,-4.723071486E0,-3.039150562E0,-6.528574151E-1,5.654207567E0
1.147589708E1,-5.170243735E0,-3.162249069E0,-9.075393248E-1,6.128202598E0
1.148586408E1,-5.492984896E0,-3.229001175E0,-1.064865094E0,6.460129204E0
1.149583008E1,-5.592432586E0,-3.371714753E0,-1.187463591E0,6.637306109E0
1.150579708E1,-5.573453693E0,-3.692607901E0,-1.286255881E0,6.808317955E0
1.151576408E1,-5.621670418E0,-3.989274866E0,-1.289690536E0,7.012901962E0
1.152573008E1,-5.769652922E0,-4.165173438E0,-1.275584713E0,7.229431580E0
1.153569708E1,-5.970929872E0,-4.312280028E0,-1.283055700E0,7.476228629E0
1.154566408E1,-6.085915952E0,-4.363383231E0,-1.282472733E0,7.597514233E0
1.155563008E1,-5.959061193E0,-4.444139712E0,-1.270374843E0,7.541527718E0
1.156559708E1,-5.460756798E0,-4.694004100E0,-1.302723979E0,7.317829532E0
1.157556408E1,-4.763761675E0,-5.071506482E0,-1.422726971E0,7.101954332E0
1.158553146E1,-4.158252674E0,-5.506729946E0,-1.678147969E0,7.101501292E0
1.159549746E1,-3.522332888E0,-6.089049475E0,-2.097227855E0,7.340416689E0
1.160546446E1,-2.967416920E0,-6.853252494E0,-2.473130731E0,7.866956752E0
1.161543146E1,-2.747103775E0,-7.551981901E0,-2.784651085E0,8.504898086E0
1.162539746E1,-2.869326369E0,-8.004907225E0,-3.133842126E0,9.062700479E0
1.163536446E1,-3.037347865E0,-8.383307447E0,-3.415615940E0,9.548390339E0
1.164533146E1,-3.122397956E0,-8.830523551E0,-3.322239999E0,9.938047785E0
1.165529746E1,-3.287601094E0,-9.031130995E0,-2.879494677E0,1.003300242E1
1.166526446E1,-3.590096270E0,-8.642337931E0,-2.191690062E0,9.611571228E0
1.167523146E1,-3.640689889E0,-7.854947194E0,-1.445000185E0,8.777405301E0
1.168519746E1,-3.445312779E0,-7.095317867E0,-7.786678612E-1,7.925909375E0
1.169516446E1,-3.067201994E0,-6.296219834E0,-2.354423044E-1,7.007534898E0
1.170513146E1,-2.584569306E0,-5.410036295E0,2.488680962E-1,6.000868815E0
1.171509746E1,-1.923933924E0,-4.625670907E0,6.261017988E-1,5.048797535E0
1.172506446E1,-1.234261270E0,-3.955027431E0,7.361480784E-1,4.208034798E0
1.173503146E1,-4.313450056E-1,-3.463364303E0,5.136925131E-1,3.527723176E0
1.174499746E1,3.725892591E-1,-3.044753948E0,1.247901070E-1,3.070003572E0
1.175496446E1,1.037589002E0,-2.728961619E0,-3.330959952E-1,2.938498834E0
1.176493146E1,1.524793628E0,-2.538724211E0,-8.413120061E-1,3.078623414E0
1.177489746E1,1.803089519E0,-2.330307811E0,-1.410148441E0,3.266494287E0
1.178486446E1,1.987453398E0,-2.083158284E0,-1.870436579E0,3.433373333E0
1.179483146E1,2.087159534E0,-1.784294813E0,-2.185757039E0,3.509626295E0
1.180479746E1,2.160022858E0,-1.406340734E0,-2.376692019E0,3.506017392E0
1.181476446E1,2.194153640E0,-1.013968005E0,-2.452473103E0,3.443409013E0
1.182473146E1,2.206558508E0,-6.140634781E-1,-2.401007665E0,3.318254392E0
1.183469746E1,2.269714285E0,-1.735447758E-1,-2.202618654E0,3.167530530E0
1.184466446E1,2.472201024E0,2.901096046E-1,-1.967704427E0,3.172980018E0
1.185463146E1,2.784862170E0,7.097584248E-1,-1.693571754E0,3.335775714E0
1.186459746E1,3.076144141E0,1.100371726E0,-1.444944636E0,3.572302579E0
1.187456446E1,3.308788480E0,1.412744604E0,-1.261862467E0,3.812640214E0
1.188453146E1,3.434550394E0,1.576794087E0,-1.118938390E0,3.941375283E0
1.189449746E1,3.446046020E0,1.673101237E0,-9.263416314E-1,3.941143202E0
1.190446446E1,3.430321687E0,1.763012118E0,-7.093327475E-1,3.921539437E0
1.191443146E1,3.416726911E0,1.611112565E0,-5.774447054E-1,3.821406661E0
1.192439846E1,3.356369905E0,1.295603240E0,-4.724725664E-1,3.628641208E0
1.193436446E1,3.273526846E0,1.031369319E0,-2.405076925E-1,3.440573300E0
1.194433146E1,3.212836548E0,8.164929146E-1,6.466437617E-2,3.315593588E0
1.195429846E1,3.225272698E0,5.889958799E-1,4.381786100E-1,3.307763689E0
1.196426446E1,3.316959086E0,3.949127591E-1,8.670637286E-1,3.451082899E0
1.197423146E1,3.495067322E0,2.525424135E-1,1.339156226E0,3.751348111E0
1.198419846E1,3.703243402E0,3.429304272E-1,1.790164833E0,4.127505675E0
1.199416446E1,3.976263934E0,6.044816458E-1,2.218966738E0,4.593461257E0
1.200413146E1,4.335958913E0,8.580110693E-1,2.538735906E0,5.097244617E0
1.201409846E1,4.755815894E0,1.160962914E0,2.767164402E0,5.623416980E0
1.202406446E1,5.197778274E0,1.445362127E0,2.994874860E0,6.170514248E0
1.203403146E1,5.602461730E0,1.716705093E0,3.225015421E0,6.688451112E0
1.204399846E1,5.979954464E0,2.020866727E0,3.521221333E0,7.227915149E0
1.205396446E1,6.358593253E0,2.253466626E0,3.814933991E0,7.750067184E0
1.206393146E1,6.735376135E0,2.414741020E0,4.121024036E0,8.257063945E0
1.207389846E1,7.148142198E0,2.518950098E0,4.477643673E0,8.802859725E0
1.208386446E1,7.447961104E0,2.628999374E0,4.718960309E0,9.200671101E0
1.209383146E1,7.683751245E0,2.764388729E0,4.843476766E0,9.494269083E0
1.210379846E1,7.899179041E0,2.747903674E0,4.846210047E0,9.666113798E0
1.211376446E1,8.013486260E0,2.777360777E0,4.671898701E0,9.682785364E0
1.212373146E1,7.965999852E0,2.892763179E0,4.314193822E0,9.509863343E0
1.213369846E1,7.937157876E0,2.922979251E0,3.824985355E0,9.282930347E0
1.214366446E1,7.856786728E0,2.988838195E0,3.388579584E0,9.063372609E0
1.215363146E1,7.733046781E0,3.161241594E0,2.979117783E0,8.869532327E0
1.216359846E1,7.578618307E0,3.383103667E0,2.562791351E0,8.686123726E0
1.217356446E1,7.358807437E0,3.535141799E0,2.191687285E0,8.452973890E0
1.218353146E1,7.163591126E0,3.609969787E0,1.837010678E0,8.229430595E0
1.219349846E1,7.467077991E0,3.158816754E0,1.281302705E0,8.208356329E0
1.220346446E1,7.781361154E0,2.116111438E0,8.945408182E-1,8.113427901E0
1.221343146E1,7.818630722E0,1.415613833E0,8.471000187E-1,7.990777643E0
1.222339846E1,7.922434587E0,1.082304415E0,9.442456596E-1,8.051580746E0
1.223336446E1,7.943539528E0,1.078494369E0,9.796789093E-1,8.076059751E0
1.224333146E1,8.127988776E0,1.206533774E0,6.773345176E-1,8.244920093E0
1.225329846E1,8.214297772E0,1.161428352E0,4.182525782E-1,8.306535916E0
1.226326446E1,8.130239954E0,1.061393602E0,4.016943598E-1,8.209063068E0
1.227323146E1,8.013677464E0,1.019608229E0,6.895748596E-1,8.107659399E0
1.228319846E1,7.755134638E0,1.000243421E0,1.057382266E0,7.890542276E0
1.229316546E1,7.417762574E0,9.858768117E-1,1.347543472E0,7.603356371E0
1.230313146E1,6.943300200E0,9.369350320E-1,1.585425893E0,7.183372480E0
1.231309846E1,6.296652528E0,8.755094469E-1,1.781569426E0,6.602146580E0
1.232306546E1,5.586594726E0,6.818028867E-1,1.892644304E0,5.937760375E0
1.233303146E1,4.860503566E0,3.571222043E-1,1.907626040E0,5.233647704E0
1.234299846E1,4.129798368E0,-1.542846322E-2,1.831271929E0,4.517635385E0
1.235296546E1,3.423996754E0,-5.208956981E-1,1.755958622E0,3.883101439E0
1.236293146E1,2.807158188E0,-1.122080684E0,1.640679595E0,3.439626678E0
1.237289846E1,2.222738339E0,-1.672002545E0,1.547115959E0,3.182723052E0
1.238286546E1,1.726131390E0,-2.143167089E0,1.451981760E0,3.111421826E0
1.239283146E1,1.356355811E0,-2.664444610E0,1.328482718E0,3.271671209E0
1.240279846E1,1.106370969E0,-3.272020018E0,1.225358884E0,3.664925117E0
1.241276546E1,9.038164026E-1,-3.782228175E0,1.119414353E0,4.046631013E0
1.242273146E1,7.504263943E-1,-4.228786467E0,1.001537994E0,4.410085386E0
1.243269846E1,6.384943146E-1,-4.594343280E0,9.457801151E-1,4.733937599E0
1.244266546E1,5.311809504E-1,-4.903236480E0,9.162365464E-1,5.016310456E0
1.245263146E1,4.031210804E-1,-5.087167080E0,8.969277978E-1,5.181337181E0
1.246259846E1,3.040692472E-1,-5.111657558E0,9.058272600E-1,5.200194624E0
1.247256546E1,2.947353369E-1,-5.040987525E0,9.516179752E-1,5.138482355E0
1.248253146E1,2.996130842E-1,-4.873795749E0,1.052956070E0,4.995234678E0
1.249249846E1,3.324107015E-1,-4.680082757E0,1.263057053E0,4.858907758E0
1.250246546E1,2.214381498E-1,-4.388636479E0,1.554843493E0,4.661191187E0
1.251243146E1,9.967514634E-2,-4.118875185E0,1.725415106E0,4.466780184E0
1.252239846E1,-4.694495559E-2,-3.930766749E0,1.919155580E0,4.374504452E0
1.253236546E1,-2.636889607E-1,-3.816016896E0,2.098399637E0,4.362888705E0
1.254233146E1,-5.495739520E-1,-3.755318120E0,2.193056703E0,4.383371238E0
1.255229846E1,-8.642488790E-1,-3.748672174E0,2.277218016E0,4.470479962E0
1.256226546E1,-1.185190852E0,-3.822651147E0,2.283361101E0,4.607719291E0
1.257223146E1,-1.594604706E0,-3.964475947E0,2.231764101E0,4.820851035E0
1.258219825E1,-2.118142176E0,-4.155210075E0,2.087281741E0,5.109700785E0
1.259216525E1,-2.638348487E0,-4.388877969E0,1.910395281E0,5.465596280E0
1.260213125E1,-3.096729848E0,-4.558140244E0,1.722078685E0,5.773381438E0
1.261209825E1,-3.515430250E0,-4.712360557E0,1.543342166E0,6.078363012E0
1.262206525E1,-3.888708896E0,-4.866085318E0,1.434497416E0,6.392075253E0
1.263203125E1,-4.251597040E0,-4.984920913E0,1.335774196E0,6.686539210E0
1.264199825E1,-4.564986749E0,-5.090156761E0,1.233249117E0,6.947640121E0
1.265196525E1,-4.836244930E0,-5.282453558E0,1.151853536E0,7.253988364E0
1.266193125E1,-5.091231480E0,-5.585459781E0,1.113961240E0,7.639300268E0
1.267189825E1,-5.349624032E0,-5.853668640E0,1.053867066E0,7.999659344E0
1.268186525E1,-5.637745584E0,-6.169884308E0,9.379992253E-1,8.410201554E0
1.269183125E1,-5.964898469E0,-6.522341019E0,7.910744834E-1,8.873936271E0
1.270179825E1,-6.345424154E0,-6.546906926E0,6.558927047E-1,9.140929560E0
1.271176525E1,-6.637219511E0,-6.355365005E0,5.111273761E-1,9.203510112E0
1.272173125E1,-6.822408432E0,-6.195222632E0,3.542032743E-1,9.222337027E0
1.273169825E1,-6.722800528E0,-6.107397453E0,2.303826356E-1,9.085671508E0
1.274166525E1,-6.326404331E0,-6.199857135E0,2.226712910E-1,8.860654759E0
1.275163125E1,-6.043627719E0,-6.145358162E0,2.390634120E-1,8.622529458E0
1.276159825E1,-5.858937566E0,-5.856291116E0,2.282934254E-1,8.287062985E0
1.277156525E1,-5.722936592E0,-5.558893542E0,1.793194129E-1,7.980316792E0
1.278153225E1,-5.693761325E0,-5.298579009E0,9.141420007E-2,7.778316919E0
1.279149825E1,-5.625541860E0,-5.010574402E0,-3.210647643E-2,7.533499046E0
1.280146525E1,-5.368275481E0,-4.842379829E0,-2.890413183E-1,7.235369301E0
1.281143225E1,-4.884216657E0,-5.010066279E0,-7.915719353E-1,7.041514226E0
1.282139825E1,-4.696480104E0,-5.235116254E0,-1.452925647E0,7.181529120E0
1.283136525E1,-4.959873780E0,-5.438552581E0,-2.096084139E0,7.653219637E0
1.284133225E1,-5.359818068E0,-5.671443672E0,-2.685427344E0,8.252541613E0
1.285129825E1,-5.776094799E0,-6.030898331E0,-3.237112141E0,8.956221347E0
1.286126525E1,-6.267282549E0,-6.477237352E0,-3.705639006E0,9.745008707E0
1.287123225E1,-6.830361814E0,-6.778600507E0,-3.828612968E0,1.035671495E1
1.288119825E1,-7.243132555E0,-6.903332727E0,-3.647904768E0,1.065017282E1
1.289116525E1,-7.334221065E0,-6.704463660E0,-3.165672029E0,1.042890747E1
1.290113225E1,-6.959344375E0,-6.181171188E0,-2.552112581E0,9.651561015E0
1.291109825E1,-6.187955713E0,-5.467055418E0,-1.941896425E0,8.482361262E0
1.292106525E1,-5.357955730E0,-4.682689446E0,-1.470577660E0,7.266214193E0
1.293103225E1,-4.495969139E0,-3.933689187E0,-1.176892337E0,6.088737528E0
1.294099825E1,-3.642477382E0,-3.330012995E0,-1.071132578E0,5.050143862E0
1.295096525E1,-2.923532397E0,-2.852827281E0,-1.249638278E0,4.271681285E0
1.296093225E1,-2.332039171E0,-2.547109411E0,-1.633800346E0,3.820402678E0
1.297089825E1,-1.811122423E0,-2.574479058E0,-2.156632642E0,3.815648203E0
1.298086525E1,-1.491533496E0,-2.828553150E0,-2.704395711E0,4.187975795E0
1.299083225E1,-1.211624944E0,-3.168559969E0,-3.174135289E0,4.645744517E0
1.300079825E1,-8.680981010E-1,-3.676369599E0,-3.488906695E0,5.142154963E0
1.301076525E1,-3.794591528E-1,-4.200242114E0,-3.519867117E0,5.493221968E0
1.302073225E1,1.925289309E-1,-4.700667880E0,-3.358950573E0,5.780648308E0
1.303069825E1,8.446905273E-1,-5.167609565E0,-3.056709750E0,6.063098647E0
1.304066525E1,1.550712581E0,-5.557726437E0,-2.507387229E0,6.291265642E0
1.305063225E1,2.247559769E0,-5.743598313E0,-1.727922977E0,6.405167001E0
1.306059825E1,2.944868887E0,-5.700991992E0,-9.961164558E-1,6.493520651E0
1.307056525E1,3.660090950E0,-5.445600815E0,-3.958670247E-1,6.573244610E0
1.308053225E1,4.277935823E0,-5.010953302E0,2.303686023E-2,6.588696274E0
1.309049825E1,4.470086439E0,-4.360749353E0,2.628346825E-1,6.250351171E0
1.310046525E1,4.522862238E0,-3.593873572E0,3.377047706E-1,5.786730906E0
1.311043225E1,4.581533200E0,-2.918932393E0,4.603641522E-1,5.451838949E0
1.312039825E1,4.629183329E0,-2.367994285E0,7.083854985E-1,5.247718099E0
1.313036525E1,4.764634080E0,-2.040381809E0,8.617100179E-1,5.254278256E0
1.314033225E1,4.936827564E0,-1.738045092E0,1.104043120E0,5.349016578E0
1.315029825E1,5.132100009E0,-1.405914472E0,1.371584884E0,5.495115203E0
1.316026525E1,5.360281168E0,-1.071939640E0,1.580446258E0,5.690296931E0
1.317023225E1,5.550643120E0,-7.475980961E-1,1.735577567E0,5.863511870E0
1.318019825E1,5.656751373E0,-3.887030160E-1,1.788899496E0,5.945593960E0
1.319016525E1,5.640511317E0,-7.593428135E-2,1.830498927E0,5.930586838E0
1.320013225E1,5.557219484E0,2.274590278E-1,1.849221711E0,5.861232544E0
1.321009825E1,5.386905295E0,5.150063825E-1,1.860732394E0,5.722438752E0
1.322006525E1,5.242280263E0,7.726458138E-1,1.870546360E0,5.619379645E0
1.323003225E1,5.073154228E0,9.800225794E-1,1.899686544E0,5.505101910E0
1.323999825E1,4.978608259E0,1.164303428E0,1.903510623E0,5.455776330E0
1.324996525E1,4.951501737E0,1.308721468E0,1.986452354E0,5.493279010E0
1.325993225E1,4.905873574E0,1.414808671E0,2.164098806E0,5.545502930E0
1.326989825E1,4.921523647E0,1.555202073E0,2.347325840E0,5.670095863E0
1.327986525E1,5.010255729E0,1.692197074E0,2.517661371E0,5.857031004E0
1.328983225E1,5.162941732E0,1.782482761E0,2.731143215E0,6.106746710E0
1.329979825E1,5.300518531E0,1.863840920E0,2.969225464E0,6.354974392E0
1.330976525E1,5.427579111E0,1.912461687E0,3.169917108E0,6.569969497E0
1.331973225E1,5.603784955E0,1.941576144E0,3.334882556E0,6.803937493E0
1.332969825E1,5.793232988E0,1.945302574E0,3.487555404E0,7.036248521E0
1.333966525E1,5.972084112E0,1.978389044E0,3.637820952E0,7.267293384E0
1.334963225E1,6.139143156E0,2.009667554E0,3.768529611E0,7.478613361E0
1.335959825E1,6.311910837E0,2.101399843E0,3.848059638E0,7.685288719E0
1.336956525E1,6.515857041E0,2.201233449E0,3.938773926E0,7.925639515E0
1.337953225E1,6.672705093E0,2.318294706E0,4.135508759E0,8.185469828E0
1.338949825E1,6.795898325E0,2.450704905E0,4.229027664E0,8.371073024E0
1.339946525E1,6.881054251E0,2.719157592E0,4.284378577E0,8.549773412E0
1.340943225E1,7.025745356E0,3.089337798E0,4.342251979E0,8.818177708E0
1.341939825E1,7.281565134E0,3.333891746E0,4.218418476E0,9.051578835E0
1.342936525E1,7.932477765E0,3.049032941E0,3.789736000E0,9.304993515E0
1.343933225E1,8.475736139E0,2.194929566E0,3.382256113E0,9.385918992E0
1.344929825E1,8.582589328E0,1.530934374E0,3.142356842E0,9.267092648E0
1.345926525E1,8.631809435E0,1.182364892E0,2.966858803E0,9.203715120E0
1.346923225E1,8.633155464E0,1.029163749E0,2.792989215E0,9.131885897E0
1.347919825E1,8.926294511E0,1.144779575E0,2.540656132E0,9.351159690E0
1.348916525E1,9.215844537E0,1.365452909E0,2.377830033E0,9.615109352E0
1.349913225E1,9.367762216E0,1.668376102E0,2.443374981E0,9.823875460E0
1.350909825E1,9.419072703E0,1.999009250E0,2.683434613E0,9.995788608E0
1.351906525E1,9.346468996E0,2.327694106E0,2.895514294E0,1.005776544E1
1.352903225E1,9.141528765E0,2.552777410E0,2.953117554E0,9.940076657E0
1.353899825E1,8.696798898E0,2.543714225E0,2.881284510E0,9.508238194E0
1.354896525E1,8.008940635E0,2.268986306E0,2.588907355E0,8.717446314E0
1.355893225E1,7.282583134E0,1.730581706E0,2.220587733E0,7.807812755E0
1.356889825E1,6.578143337E0,1.098009451E0,1.882740144E0,6.929812765E0
1.357886546E1,5.807717711E0,3.667397046E-1,1.548363755E0,6.021753344E0
1.358883246E1,5.058218100E0,-4.810135943E-1,1.222832960E0,5.226113745E0
1.359879846E1,4.228768633E0,-1.398442315E0,8.847539679E-1,4.541025726E0
1.360876546E1,3.505358714E0,-2.264671646E0,5.272377343E-1,4.206454208E0
1.361873246E1,2.884220397E0,-3.089302130E0,2.662249346E-1,4.234783426E0
1.362869846E1,2.330092633E0,-3.760758954E0,1.793879715E-1,4.427733013E0
1.363866546E1,1.881921680E0,-4.183344830E0,2.088496061E-1,4.591908246E0
1.364863246E1,1.608202406E0,-4.522442408E0,3.110952250E-1,4.809946002E0
1.365859846E1,1.451860138E0,-4.689659911E0,5.422169852E-1,4.939109961E0
1.366856546E1,1.346889753E0,-4.753037882E0,6.755837882E-1,4.986170331E0
1.367853246E1,1.174320878E0,-4.679671113E0,6.958549154E-1,4.874686176E0
1.368849846E1,9.454146641E-1,-4.595824964E0,7.057424840E-1,4.744838084E0
1.369846546E1,7.391564709E-1,-4.541767455E0,6.159714977E-1,4.642566617E0
1.370843246E1,5.010841620E-1,-4.518790821E0,4.553180051E-1,4.569230823E0
1.371839946E1,3.062531823E-1,-4.447561795E0,4.399293029E-1,4.479747171E0
1.372836546E1,2.062090766E-1,-4.259783142E0,4.975337327E-1,4.293694727E0
1.373833246E1,1.451799327E-1,-4.089595837E0,4.656593907E-1,4.118581065E0
1.374829846E1,1.474200010E-1,-3.970165288E0,5.402254236E-1,4.009462380E0
1.375826546E1,9.888050973E-2,-3.877896225E0,7.403265718E-1,3.949169523E0
1.376823246E1,6.784524322E-3,-3.756431429E0,9.741953905E-1,3.880706092E0
1.377819846E1,-8.651247919E-2,-3.769304075E0,1.247615726E0,3.971357780E0
1.378816546E1,-2.617623031E-1,-3.814171515E0,1.518541932E0,4.113683683E0
1.379813246E1,-4.729520380E-1,-3.884993575E0,1.751141685E0,4.287581592E0
1.380809946E1,-7.213587159E-1,-3.979167076E0,2.008055623E0,4.515131937E0
1.381806546E1,-1.126263197E0,-4.132768169E0,2.201977069E0,4.816320643E0
1.382803246E1,-1.552951480E0,-4.282159266E0,2.336571933E0,5.119386163E0
1.383799846E1,-1.973420080E0,-4.331529647E0,2.491039291E0,5.372319112E0
1.384796546E1,-2.396664353E0,-4.344683251E0,2.569458346E0,5.587699774E0
1.385793246E1,-2.746265284E0,-4.380944174E0,2.675096483E0,5.821579344E0
1.386789946E1,-3.102884043E0,-4.427081922E0,2.785828714E0,6.081758409E0
1.387786546E1,-3.461542895E0,-4.509746056E0,2.881838826E0,6.373780960E0
1.388783246E1,-3.825347883E0,-4.604987551E0,2.936291606E0,6.667908605E0
1.389779946E1,-4.172861942E0,-4.682095953E0,2.978685089E0,6.943152322E0
1.390776546E1,-4.514225900E0,-4.774995054E0,3.024333133E0,7.233630080E0
1.391773246E1,-4.877805769E0,-4.869802978E0,3.021166865E0,7.525650762E0
1.392769946E1,-5.236171677E0,-4.998028032E0,2.945524360E0,7.814978681E0
1.393766546E1,-5.560076433E0,-5.213245329E0,2.871845934E0,8.144929458E0
1.394763246E1,-5.946722399E0,-5.409921690E0,2.799790696E0,8.512907137E0
1.395759946E1,-6.283429050E0,-5.537288665E0,2.691061721E0,8.796866463E0
1.396756546E1,-6.559376698E0,-5.622833430E0,2.613221247E0,9.026106787E0
1.397753246E1,-6.781083235E0,-5.641105978E0,2.519109142E0,9.173389634E0
1.398749946E1,-6.965902027E0,-5.673989550E0,2.438677036E0,9.309408905E0
1.399746546E1,-7.154964144E0,-5.754766495E0,2.387090561E0,9.487309980E0
1.400743246E1,-7.367556626E0,-5.780069736E0,2.360027454E0,9.657112735E0
1.401739946E1,-7.600169975E0,-5.753125767E0,2.276791316E0,9.800245835E0
1.402736546E1,-7.794488153E0,-5.689166583E0,2.178953218E0,9.892850909E0
1.403733246E1,-7.959584287E0,-5.585918203E0,2.070492484E0,9.942052269E0
1.404729946E1,-8.020832117E0,-5.404155750E0,1.893712006E0,9.855191139E0
1.405726546E1,-7.926214228E0,-5.294433333E0,1.646213254E0,9.672947554E0
1.406723246E1,-7.560852712E0,-5.378884669E0,1.399554455E0,9.383903595E0
1.407719946E1,-6.997759413E0,-5.799332803E0,1.023948033E0,9.146002806E0
1.408716546E1,-6.643558477E0,-6.297831327E0,6.106738472E-1,9.174555641E0
1.409713246E1,-6.427821363E0,-6.777387210E0,2.456077619E-1,9.343992083E0
1.410709946E1,-6.227348405E0,-7.303293972E0,-3.248581454E-2,9.597865717E0
1.411706546E1,-6.070245999E0,-7.889789582E0,-2.830229254E-1,9.958753342E0
1.412703246E1,-6.073226910E0,-8.335371974E0,-3.790575953E-1,1.032018390E1
1.413699946E1,-6.074348406E0,-8.497402412E0,-2.694993389E-1,1.044874089E1
1.414696546E1,-5.861993905E0,-8.426586784E0,7.808927268E-2,1.026530249E1
1.415693246E1,-5.417219015E0,-8.109530286E0,6.340298192E-1,9.773061809E0
1.416689946E1,-4.841916729E0,-7.455584119E0,1.165399415E0,8.965938209E0
1.417686546E1,-4.203045854E0,-6.596436351E0,1.578545913E0,7.979371791E0
1.418683246E1,-3.580983970E0,-5.695592673E0,1.812906994E0,6.967772517E0
1.419679946E1,-2.894836017E0,-4.862358010E0,1.676880877E0,5.902078487E0
1.420676546E1,-2.309043826E0,-4.141356559E0,1.349825056E0,4.929964019E0
1.421673246E1,-1.811312458E0,-3.589748946E0,9.333174328E-1,4.127739302E0
1.422669946E1,-1.288818716E0,-3.431755425E0,3.787335134E-1,3.685300266E0
1.423666546E1,-8.007276517E-1,-3.552057794E0,-2.010215000E-1,3.646736758E0
1.424663246E1,-3.439577830E-1,-3.762034231E0,-7.010694623E-1,3.842226816E0
1.425659946E1,1.694809610E-1,-4.069748048E0,-1.126469604E0,4.226169275E0
1.426656546E1,7.340951210E-1,-4.395296457E0,-1.468072128E0,4.691776036E0
1.427653246E1,1.312346742E0,-4.688362999E0,-1.711414533E0,5.160614429E0
1.428649946E1,1.863256198E0,-5.034824560E0,-1.825355716E0,5.670370843E0
1.429646546E1,2.384361811E0,-5.244064248E0,-1.706735591E0,6.008189200E0
1.430643246E1,2.862343040E0,-5.395266228E0,-1.487860276E0,6.286146160E0
1.431639946E1,3.278719173E0,-5.528858734E0,-1.253662916E0,6.549041840E0
1.432636546E1,3.578949139E0,-5.505593832E0,-8.147943715E-1,6.616972892E0
1.433633246E1,3.810550334E0,-5.306586771E0,-2.559454199E-1,6.538016906E0
1.434629946E1,4.044510881E0,-4.889545224E0,3.030822372E-1,6.352761573E0
1.435626546E1,4.409677684E0,-4.256128047E0,7.986491127E-1,6.180430700E0
1.436623246E1,4.847232433E0,-3.474360577E0,1.225267741E0,6.088359772E0
1.437619946E1,5.300255406E0,-2.620605696E0,1.440898948E0,6.085759719E0
1.438616546E1,5.783110288E0,-1.800119133E0,1.449551657E0,6.227840196E0
1.439613246E1,6.218373513E0,-1.004612460E0,1.242596476E0,6.420394174E0
1.440609946E1,6.548151798E0,-2.998440492E-1,1.001918209E0,6.631141570E0
1.441606546E1,6.789425458E0,2.160622197E-1,7.114729746E-1,6.830020111E0
1.442603246E1,6.866021059E0,5.868055129E-1,3.925785506E-1,6.902224555E0
1.443599946E1,6.836711891E0,8.462640131E-1,1.382469622E-1,6.890276081E0
1.444596546E1,6.797967070E0,1.011789917E0,-4.428673826E-2,6.872993267E0
1.445593246E1,6.739423578E0,1.188041954E0,-1.792463958E-1,6.845685000E0
1.446589946E1,6.660359867E0,1.408720551E0,-2.520945168E-1,6.812373947E0
1.447586546E1,6.609103174E0,1.653083294E0,-2.456391176E-1,6.817130461E0
1.448583246E1,6.619453915E0,1.958920155E0,-1.694441235E-1,6.905305903E0
1.449579946E1,6.645620205E0,2.241558772E0,-8.550025307E-2,7.013997714E0
1.450576546E1,6.663679331E0,2.559102343E0,9.910570063E-2,7.138868886E0
1.451573246E1,6.762637024E0,2.830553482E0,3.172863666E-1,7.337980865E0
1.452569946E1,6.834694601E0,3.007267449E0,5.501787002E-1,7.487282845E0
1.453566546E1,6.891978604E0,3.203176070E0,7.600995894E-1,7.637896137E0
1.454563246E1,6.993649405E0,3.390041388E0,9.147442639E-1,7.825616249E0
1.455559946E1,7.096591975E0,3.546550886E0,1.065189468E0,8.004640495E0
1.456556546E1,7.217731665E0,3.643019419E0,1.181051023E0,8.170809164E0
1.457553246E1,7.303869923E0,3.690426890E0,1.195388396E0,8.270110029E0
1.458549933E1,7.360662759E0,3.760502261E0,1.149781283E0,8.345222016E0
1.459546533E1,7.454249200E0,3.799868056E0,1.072167828E0,8.435305105E0
1.460543233E1,7.553136141E0,3.752398605E0,1.022329743E0,8.495617633E0
1.461539933E1,7.652695513E0,3.710177030E0,9.893372671E-1,8.562006215E0
1.462536533E1,7.754740536E0,3.618652902E0,9.844502373E-1,8.613930106E0
1.463533233E1,7.824247558E0,3.444440374E0,1.008857831E0,8.608182936E0
1.464529933E1,7.826585274E0,3.246668830E0,1.053236736E0,8.538477802E0
1.465526533E1,7.767872797E0,3.114347509E0,1.078598449E0,8.438150438E0
1.466523233E1,7.754078631E0,3.132846930E0,1.106691982E0,8.435948817E0
1.467519933E1,7.774204747E0,3.153341421E0,1.111612048E0,8.462712503E0
1.468516533E1,7.986597839E0,2.983128389E0,9.947574167E-1,8.583375929E0
1.469513233E1,8.651868893E0,2.362193847E0,7.029616944E-1,8.996051926E0
1.470509933E1,9.165165550E0,1.546160524E0,6.825465064E-1,9.319696435E0
1.471506533E1,9.482764084E0,1.041918865E0,7.755827241E-1,9.571308070E0
1.472503233E1,9.689559052E0,7.060805261E-1,1.010275927E0,9.767638496E0
1.473499933E1,9.750913886E0,6.909876931E-1,1.274912868E0,9.858153398E0
1.474496533E1,9.781179074E0,6.644302243E-1,1.379625098E0,9.900318026E0
1.475493233E1,9.723792161E0,5.021775913E-1,1.437788375E0,9.842334669E0
1.476489933E1,9.651196640E0,4.464711678E-1,1.542530572E0,9.783881318E0
1.477486533E1,9.440481699E0,3.648276651E-1,1.732151098E0,9.605006057E0
1.478483233E1,9.085529981E0,1.669625652E-1,1.934401610E0,9.290674955E0
1.479479933E1,8.533504876E0,-1.080425119E-1,2.034677850E0,8.773385470E0
1.480476533E1,7.706421484E0,-4.384949809E-1,2.050198699E0,7.986521436E0
1.481473233E1,6.823769079E0,-7.214820921E-1,2.016164250E0,7.151872421E0
1.482469933E1,5.917341895E0,-9.784075785E-1,1.960705894E0,6.310038359E0
1.483466533E1,5.009578037E0,-1.233711047E0,1.785768896E0,5.459568262E0
1.484463233E1,4.185125015E0,-1.562980624E0,1.596744787E0,4.744235843E0
1.485459933E1,3.325875798E0,-2.015712406E0,1.341844776E0,4.114011878E0
1.486456533E1,2.384955888E0,-2.523367084E0,9.520788089E-1,3.600256948E0
1.487453233E1,1.584373832E0,-2.994438658E0,4.657060953E-1,3.419617739E0
1.488449933E1,9.802225542E-1,-3.398592941E0,8.291234851E-2,3.538099023E0
1.489446533E1,3.616456103E-1,-3.656486726E0,-1.698534286E-1,3.678251339E0
1.490443233E1,-3.029851735E-2,-3.776926505E0,-3.371493582E-1,3.792065600E0
1.491439933E1,-1.421230084E-1,-3.997645447E0,-3.451132659E-1,4.015030665E0
1.492436533E1,-2.742168725E-2,-4.253990890E0,-1.260040621E-1,4.255944955E0
1.493433233E1,1.563738424E-1,-4.551003132E0,2.440977915E-1,4.560226532E0
1.494429933E1,3.950168395E-1,-4.989549569E0,7.490049362E-1,5.060894348E0
1.495426533E1,5.731370616E-1,-5.541736642E0,1.238086080E0,5.707204941E0
1.496423233E1,8.009708959E-1,-6.228266417E0,1.707784727E0,6.507640557E0
1.497419933E1,9.751863474E-1,-6.757413706E0,2.022033831E0,7.120551188E0
1.498416533E1,9.115581161E-1,-6.868956361E0,1.935657592E0,7.194461064E0
1.499413233E1,6.663638985E-1,-6.765547768E0,1.535663749E0,6.969572483E0
1.500409933E1,3.924750549E-1,-6.561143727E0,1.246888625E0,6.690095284E0
1.501406533E1,6.729034245E-2,-6.406625791E0,1.105703656E0,6.501689210E0
1.502403233E1,-2.288173360E-1,-6.327313573E0,1.267005093E0,6.456977337E0
1.503399933E1,-5.566420662E-1,-6.236964151E0,1.518230860E0,6.443182222E0
1.504396533E1,-1.018300792E0,-6.131074584E0,1.872910682E0,6.491132912E0
1.505393233E1,-1.524700073E0,-6.011171579E0,2.249459822E0,6.596890446E0
1.506389933E1,-1.975382406E0,-5.894493899E0,2.591137483E0,6.735071450E0
1.507386533E1,-2.490948951E0,-5.844509561E0,2.768979378E0,6.930394324E0
1.508383233E1,-3.138177837E0,-5.719625314E0,2.775335301E0,7.089764446E0
1.509379933E1,-3.814190226E0,-5.649473344E0,2.763459606E0,7.355358940E0
1.510376533E1,-4.470926684E0,-5.703387011E0,2.633947288E0,7.710738429E0
1.511373233E1,-5.058519232E0,-5.766150439E0,2.397784095E0,8.036571176E0
1.512369933E1,-5.492660376E0,-5.736296310E0,2.255743532E0,8.256076081E0
1.513366533E1,-5.636231155E0,-5.614349704E0,1.929970590E0,8.186135273E0
1.514363233E1,-5.689851292E0,-5.382082511E0,1.433249474E0,7.962124336E0
1.515359933E1,-5.711033415E0,-5.134436556E0,7.498446695E-1,7.716256116E0
1.516356533E1,-5.707632090E0,-4.967352369E0,5.197012581E-2,7.566660725E0
1.517353233E1,-5.874905142E0,-4.829833166E0,-5.038019113E-1,7.622047967E0
1.518349933E1,-6.210775641E0,-4.764821483E0,-1.045599103E0,7.897501840E0
1.519346533E1,-6.534179292E0,-4.773986701E0,-1.483428086E0,8.227211370E0
1.520343233E1,-6.895912026E0,-4.805317545E0,-1.853416504E0,8.606964163E0
1.521339933E1,-7.198017778E0,-4.870928274E0,-2.137440326E0,8.950198508E0
1.522336533E1,-7.439056964E0,-4.889809811E0,-2.218107929E0,9.174410678E0
1.523333233E1,-7.567665887E0,-4.845619771E0,-2.151342666E0,9.240014784E0
1.524329933E1,-7.482513471E0,-4.803899887E0,-2.052241132E0,9.125631793E0
1.525326533E1,-7.327192127E0,-4.783304824E0,-1.886526362E0,8.951353597E0
1.526323233E1,-7.235996613E0,-4.843648382E0,-1.723165097E0,8.876366069E0
1.527319933E1,-7.276435372E0,-4.975142614E0,-1.680769860E0,8.973491131E0
1.528316533E1,-7.160795572E0,-5.118602296E0,-1.645049220E0,8.954511133E0
1.529313233E1,-7.125869569E0,-5.304957737E0,-1.584651575E0,9.023952256E0
1.530309933E1,-7.388386163E0,-5.564391679E0,-1.654794774E0,9.396225337E0
1.531306533E1,-7.538126923E0,-5.775555101E0,-1.941524103E0,9.692776180E0
1.532303233E1,-7.487819234E0,-5.929726882E0,-2.206724569E0,9.802996027E0
1.533299833E1,-7.296367945E0,-6.031526906E0,-2.261139928E0,9.732885275E0
1.534296533E1,-7.059874969E0,-6.231312232E0,-2.114483573E0,9.651016915E0
1.535293233E1,-6.767158091E0,-6.493965066E0,-1.770034624E0,9.544581367E0
1.536289933E1,-6.444499376E0,-6.708853165E0,-1.446056192E0,9.414423057E0
1.537286533E1,-6.164145266E0,-6.947242393E0,-1.132342547E0,9.356445018E0
1.538283233E1,-5.946822386E0,-7.140686998E0,-8.654048735E-1,9.332900561E0
1.539279833E1,-5.758049122E0,-7.178243079E0,-6.696301532E-1,9.226630367E0
1.540276533E1,-5.502852073E0,-6.932399236E0,-4.182443190E-1,8.860839035E0
1.541273233E1,-5.106341854E0,-6.793180540E0,-3.210799670E-1,8.504417753E0
1.542269833E1,-4.758861124E0,-6.687826577E0,-3.418562937E-1,8.215269274E0
1.543266533E1,-4.316298235E0,-6.602420976E0,-3.709075999E-1,7.896832634E0
1.544263233E1,-3.709945480E0,-6.620300592E0,-4.286371601E-1,7.601039745E0
1.545259833E1,-2.972699295E0,-6.774355429E0,-4.312450182E-1,7.410452404E0
1.546256533E1,-2.083095719E0,-6.951171722E0,-1.227716482E-1,7.257626951E0
1.547253233E1,-1.279159116E0,-7.178982167E0,3.362558671E-1,7.299801436E0
1.548249833E1,-5.411656559E-1,-7.490153443E0,8.067976463E-1,7.552892248E0
1.549246533E1,2.172299087E-1,-7.870296720E0,1.437721571E0,8.003486903E0
1.550243233E1,7.748794502E-1,-8.089456794E0,2.017805125E0,8.373248289E0
1.551239833E1,1.239041369E0,-8.011851379E0,2.369276580E0,8.446209655E0
1.552236533E1,1.658435835E0,-7.661616025E0,2.617279215E0,8.264437066E0
1.553233233E1,2.043462707E0,-7.280279916E0,2.575165229E0,7.988096860E0
1.554229833E1,2.406332139E0,-6.919872746E0,2.399650526E0,7.709305794E0
1.555226533E1,2.591140991E0,-6.555954908E0,2.453120974E0,7.464071202E0
1.556223233E1,2.612768673E0,-6.300504674E0,2.837631537E0,7.387494299E0
1.557219833E1,2.503934448E0,-6.158134913E0,3.660319576E0,7.588824199E0
1.558216538E1,2.372646915E0,-6.030576734E0,4.647218481E0,7.974581415E0
1.559213237E1,2.032699737E0,-5.836398304E0,5.586160862E0,8.330702645E0
1.560209837E1,1.525024009E0,-5.336221629E0,6.372034832E0,8.450076178E0
1.561206537E1,1.085193524E0,-4.833299103E0,7.047781758E0,8.614502476E0
1.562203238E1,8.278867990E-1,-4.423125111E0,7.705679473E0,8.923392204E0
1.563199838E1,6.247095037E-1,-3.951583421E0,8.352214293E0,9.260926363E0
1.564196538E1,5.174522728E-1,-3.396521273E0,8.919624592E0,9.558442157E0
1.565193238E1,5.657034963E-1,-2.782962409E0,9.191830022E0,9.620532177E0
1.566189838E1,7.002970451E-1,-2.232152356E0,9.263258439E0,9.554102627E0
1.567186538E1,8.127892882E-1,-1.866196178E0,9.153008019E0,9.376612949E0
1.568183238E1,7.345131969E-1,-1.578466390E0,8.874577643E0,9.043737840E0
1.569179837E1,4.742477810E-1,-1.400295882E0,8.451015866E0,8.579359456E0
1.570176537E1,2.213463485E-1,-1.561882517E0,8.112312391E0,8.264265456E0
1.571173237E1,-1.154076648E-1,-1.798746791E0,7.996373214E0,8.196999056E0
1.572169838E1,-3.243982619E-1,-2.013320310E0,7.993666538E0,8.249690759E0
1.573166538E1,-4.853341019E-1,-2.268279378E0,7.939265213E0,8.271189313E0
1.574163238E1,-6.490450305E-1,-2.414469709E0,7.665479865E0,8.062909214E0
1.575159838E1,-8.129822463E-1,-2.575789711E0,7.267898437E0,7.753578558E0
1.576156538E1,-9.505543667E-1,-2.838510373E0,6.821918435E0,7.449782942E0
1.577153238E1,-1.148456304E0,-3.012624083E0,6.385787483E0,7.153540210E0
1.578149837E1,-1.287776742E0,-3.064942630E0,5.959056516E0,6.823679126E0
1.579146537E1,-1.213413023E0,-3.204868255E0,5.522964156E0,6.499744976E0
1.580143237E1,-8.516311723E-1,-3.508630523E0,5.030392370E0,6.191979586E0
1.581139837E1,-5.701467955E-1,-3.500409338E0,4.729395250E0,5.911439108E0
1.582136538E1,-4.727865618E-1,-3.105671411E0,4.608001206E0,5.576952318E0
1.583133238E1,-2.485253763E-1,-2.773144934E0,4.520684442E0,5.309301792E0
1.584129838E1,-7.363807976E-2,-2.570944709E0,4.549936016E0,5.226576031E0
1.585126538E1,-2.789121866E-2,-2.415568401E0,4.625180326E0,5.218049603E0
1.586123238E1,6.601506472E-3,-2.276376602E0,4.680326586E0,5.204554829E0
1.587119838E1,1.000201321E-1,-2.144267535E0,4.758996195E0,5.220721413E0
1.588116538E1,1.616129476E-1,-1.994505724E0,4.811543952E0,5.211058149E0
1.589113237E1,2.435739541E-1,-1.900126401E0,4.722154643E0,5.095934957E0
1.590109837E1,4.257457119E-1,-1.817287143E0,4.568641551E0,4.935207958E0
1.591106537E1,6.979055339E-1,-1.764016085E0,4.461296612E0,4.847885347E0
1.592103238E1,9.650268102E-1,-1.703161188E0,4.406158830E0,4.821438625E0
1.593099838E1,1.283883666E0,-1.641552585E0,4.468581365E0,4.930646162E0
1.594096538E1,1.579075670E0,-1.602041779E0,4.545314376E0,5.071479135E0
1.595093238E1,1.880851640E0,-1.526491660E0,4.571168425E0,5.173331658E0
1.596089838E1,2.171942407E0,-1.410590490E0,4.596555281E0,5.275928336E0
1.597086538E1,2.405990662E0,-1.204237572E0,4.606847258E0,5.334980867E0
1.598083238E1,2.624006436E0,-8.841843760E-1,4.563146045E0,5.337555023E0
1.599079837E1,2.866628464E0,-6.122099108E-1,4.447275866E0,5.326408016E0
1.600076537E1,3.075504748E0,-3.548932457E-1,4.318143032E0,5.313288804E0
1.601073237E1,3.270557337E0,-1.519246960E-1,4.146737167E0,5.283470029E0
1.602069838E1,3.384641777E0,1.087295598E-1,4.027360997E0,5.261868364E0
1.603066538E1,3.428357608E0,3.555077881E-1,3.921742741E0,5.221119401E0
1.604063238E1,3.454940804E0,6.213637269E-1,3.890481187E0,5.240090907E0
1.605059838E1,3.489900137E0,9.680188304E-1,3.954040421E0,5.361986486E0
1.606056538E1,3.598954802E0,1.263507873E0,3.980968019E0,5.513350540E0
1.607053238E1,3.747598041E0,1.514587314E0,3.996083656E0,5.683937930E0
1.608049837E1,3.853930242E0,1.726387498E0,4.007946487E0,5.822098174E0
1.609046537E1,3.967841312E0,1.832517970E0,4.040485950E0,5.952093203E0
1.610043237E1,4.018783717E0,1.901906878E0,4.076158058E0,6.031826991E0
1.611039837E1,4.043069834E0,1.934290513E0,4.047812219E0,6.039261315E0
1.612036538E1,4.004841031E0,1.864369508E0,3.937957655E0,5.917950307E0
1.613033238E1,3.921393077E0,1.746885497E0,3.820811320E0,5.746958478E0
1.614029838E1,3.850648200E0,1.646146742E0,3.795116316E0,5.651566022E0
1.615026538E1,3.770561811E0,1.576169019E0,3.882749414E0,5.637125877E0
1.616023238E1,3.669113496E0,1.663705346E0,3.993607360E0,5.672672128E0
1.617019838E1,3.828091396E0,1.740376961E0,4.114828327E0,5.883452036E0
1.618016538E1,4.216279272E0,1.815803120E0,4.231648679E0,6.243476789E0
1.619013237E1,4.627603996E0,2.002034014E0,4.174354151E0,6.545845364E0
1.620009837E1,5.153008482E0,2.378191245E0,3.916275302E0,6.895397179E0
1.621006537E1,5.695467542E0,2.812276255E0,3.626281472E0,7.314175660E0
1.622003238E1,6.227889272E0,3.108917785E0,3.168591836E0,7.648002929E0
1.622999838E1,6.773518692E0,3.102440824E0,2.547761376E0,7.873803564E0
1.623996538E1,7.475962835E0,2.890192743E0,1.904129405E0,8.238260933E0
1.624993238E1,8.518719606E0,2.079103825E0,9.911184020E-1,8.824600395E0
1.625989838E1,9.385123769E0,1.134622961E0,2.740684994E-1,9.457432578E0
1.626986538E1,9.520196790E0,9.374145037E-1,-8.804035664E-2,9.566642251E0
1.627983238E1,9.272960140E0,1.320330530E0,-3.230947714E-1,9.372057015E0
1.628979837E1,9.140685596E0,1.704924708E0,-4.107211451E-1,9.307394549E0
1.629976537E1,9.081415880E0,1.984488274E0,-1.250881688E-1,9.296556090E0
1.630973237E1,8.895437585E0,2.244667736E0,5.317528081E-1,9.189673776E0
1.631969838E1,8.565066977E0,2.436468689E0,1.233682981E0,8.989923564E0
1.632966538E1,8.191443930E0,2.460211893E0,1.637466989E0,8.708254380E0
1.633963138E1,7.797739790E0,2.581631665E0,1.830362248E0,8.415449711E0
1.634959838E1,7.392709009E0,2.807186254E0,1.635268582E0,8.075056934E0
1.635956538E1,6.965207378E0,3.008593597E0,9.568266749E-1,7.647304528E0
1.636953138E1,6.435671250E0,3.050532167E0,8.164247945E-2,7.122518967E0
1.637949837E1,5.874706337E0,3.003332857E0,-8.246468568E-1,6.649227416E0
1.638946537E1,5.314196922E0,2.882149313E0,-1.751535788E0,6.294072704E0
1.639943137E1,4.905618635E0,2.762671986E0,-2.502407155E0,6.161127516E0
1.640939837E1,4.600871696E0,2.626409642E0,-3.125001136E0,6.150746302E0
1.641936538E1,4.249136824E0,2.531336254E0,-3.518432211E0,6.069776948E0
1.642933138E1,3.986123509E0,2.331245120E0,-3.707864456E0,5.922173863E0
1.643929838E1,3.867338785E0,2.101667646E0,-3.784392815E0,5.804734718E0
1.644926538E1,3.834152327E0,1.745691496E0,-3.634899391E0,5.564230086E0
1.645923138E1,3.760604587E0,1.210481814E0,-3.232598090E0,5.104615901E0
1.646919838E1,3.609193861E0,5.923960358E-1,-2.644225523E0,4.513218587E0
1.647916537E1,3.289119616E0,-1.132956505E-1,-2.002329884E0,3.852332892E0
1.648913137E1,2.924110102E0,-7.954066855E-1,-1.319681489E0,3.305245969E0
1.649909837E1,2.489766644E0,-1.234919667E0,-5.467965245E-1,2.832481415E0
1.650906537E1,2.081285421E0,-1.506716377E0,1.598477463E-1,2.574392073E0
1.651903138E1,1.782172274E0,-1.675120280E0,6.442346723E-1,2.529269515E0
1.652899838E1,1.484472399E0,-1.784111795E0,1.120465683E0,2.577238163E0
1.653896538E1,1.338401350E0,-1.904443401E0,1.459659154E0,2.747513000E0
1.654893138E1,1.291044166E0,-1.981651790E0,1.668011820E0,2.894132390E0
1.655889838E1,1.370133605E0,-2.043118891E0,1.772067701E0,3.031802242E0
1.656886538E1,1.446522800E0,-2.114289445E0,1.743463122E0,3.098759708E0
1.657883137E1,1.376798261E0,-2.269585646E0,1.591553628E0,3.095098610E0
