"Time (s)","Linear Acceleration x (m/s^2)","Linear Acceleration y (m/s^2)","Linear Acceleration z (m/s^2)","Absolute acceleration (m/s^2)"
-1.450458309E-3,-1.042281100E0,-3.287284175E0,1.320563250E0,3.692759731E0
8.516541682E-3,-4.717593157E-1,-2.889591357E0,1.208329453E0,3.167389324E0
1.848354167E-2,-1.324273746E-1,-2.540270215E0,1.088318861E0,2.766757618E0
2.844954166E-2,-3.327116869E-2,-2.253903998E0,9.953013539E-1,2.464105312E0
3.841654165E-2,8.192453451E-2,-1.915500778E0,9.002642190E-1,2.118095966E0
4.838254175E-2,2.483491559E-1,-1.494357702E0,8.835382587E-1,1.753688142E0
5.834954174E-2,4.300572295E-1,-1.140185198E0,9.006185603E-1,1.515283900E0
6.831654173E-2,5.276843154E-1,-8.557427882E-1,8.848322475E-1,1.339281360E0
7.828254171E-2,4.824432385E-1,-6.535430742E-1,8.998601764E-1,1.212278172E0
8.824954170E-2,3.577126269E-1,-4.689545160E-1,8.938936776E-1,1.070944708E0
9.821654169E-2,2.032250963E-1,-3.259769370E-1,8.428773057E-1,9.262848135E-1
1.081825417E-1,1.941659320E-1,-2.492981955E-1,7.912054610E-1,8.519718781E-1
1.181495417E-1,3.143072102E-1,-1.740371479E-1,6.681011063E-1,7.585756650E-1
1.281155417E-1,4.055596617E-1,-1.292857388E-1,4.666481549E-1,6.316280091E-1
1.380825416E-1,3.787742977E-1,-2.436326455E-2,2.316082120E-1,4.446413174E-1
1.480495417E-1,3.576153439E-1,9.583886124E-2,8.961442709E-3,3.703432583E-1
1.580155417E-1,3.224498966E-1,1.663706808E-1,-2.461128151E-1,4.384343246E-1
1.679825417E-1,2.680612893E-1,1.973906714E-1,-4.797494262E-1,5.839344518E-1
1.779485417E-1,1.795970826E-1,2.222920626E-1,-6.738635373E-1,7.319569250E-1
1.879155417E-1,7.057362713E-2,2.706357452E-1,-8.173957247E-1,8.639213588E-1
1.978825417E-1,-3.156290464E-2,3.535637350E-1,-9.139765245E-1,9.804879494E-1
2.078485417E-1,-9.957914237E-2,4.076502606E-1,-9.205575657E-1,1.011692133E0
2.178155417E-1,-2.124213047E-1,4.012358650E-1,-8.152895576E-1,9.331720596E-1
2.277825417E-1,-3.566137889E-1,4.004142581E-1,-6.996766555E-1,8.815057543E-1
2.377485416E-1,-5.041377973E-1,4.371391578E-1,-5.733867377E-1,8.797828783E-1
2.477155417E-1,-5.943871224E-1,4.598506205E-1,-4.068013179E-1,8.545442976E-1
2.576815417E-1,-6.546165499E-1,4.135028118E-1,-2.041555345E-1,8.007414595E-1
2.676485417E-1,-6.613710342E-1,3.991432196E-1,-1.368599296E-2,7.726022657E-1
2.776155417E-1,-6.364153370E-1,4.195139688E-1,1.239732510E-1,7.722602011E-1
2.875815417E-1,-6.061372849E-1,3.957513229E-1,2.058401173E-1,7.525899758E-1
2.975485417E-1,-5.339038526E-1,3.178262108E-1,2.687508953E-1,6.769740525E-1
3.075145417E-1,-4.295265947E-1,2.528623293E-1,3.375965971E-1,6.019999298E-1
3.174815417E-1,-2.948746834E-1,2.402507622E-1,3.292175370E-1,5.030464137E-1
3.274485416E-1,-1.457865813E-1,2.216645101E-1,2.683339888E-1,3.773486609E-1
3.374145417E-1,-6.641815715E-3,2.039427689E-1,2.089449888E-1,2.920526923E-1
3.473815417E-1,1.874201090E-1,3.176561299E-1,1.634027803E-1,4.034007718E-1
3.573485417E-1,4.751587772E-1,5.828946758E-1,8.650663197E-2,7.569844543E-1
3.673145417E-1,8.284193341E-1,7.662493984E-1,2.624288857E-2,1.128762784E0
3.772815417E-1,1.167300345E0,7.140407793E-1,-7.821001768E-2,1.370606120E0
3.872475417E-1,1.425915604E0,6.100439559E-1,-1.703919572E-1,1.560263553E0
3.972145417E-1,1.557455152E0,4.989878621E-1,-1.610855287E-1,1.643351449E0
4.071815417E-1,1.578946154E0,4.100441106E-1,-6.041109324E-2,1.632438860E0
4.171475417E-1,1.604328771E0,2.573402001E-1,1.742897111E-1,1.634157792E0
4.271145416E-1,1.675646530E0,2.539467685E-2,5.339349890E-1,1.758841310E0
4.370805417E-1,1.832416521E0,-9.279721275E-2,9.250856495E-1,2.054785898E0
4.470475417E-1,2.070788061E0,-1.481535342E-1,1.288618156E0,2.443491235E0
4.570145417E-1,2.259016073E0,-2.158268328E-1,1.542676753E0,2.744009184E0
4.669805417E-1,2.329850266E0,-3.891401320E-1,1.641868334E0,2.876693229E0
4.769475417E-1,2.378962200E0,-7.150754441E-1,1.690259306E0,3.004624862E0
4.869145417E-1,2.539278235E0,-1.045429388E0,1.570597208E0,3.163484179E0
4.968805417E-1,2.676133779E0,-1.074255284E0,1.451900484E0,3.228580405E0
5.068475417E-1,2.778056303E0,-9.004078413E-1,1.511662536E0,3.288381779E0
5.168135416E-1,2.944439117E0,-7.888351460E-1,1.655387097E0,3.468759006E0
5.267805416E-1,3.031573740E0,-7.543581352E-1,1.773070498E0,3.592112822E0
5.367475417E-1,2.996084941E0,-7.466322823E-1,1.850398756E0,3.599716697E0
5.467135417E-1,2.877044109E0,-7.664113663E-1,1.790038533E0,3.474047659E0
5.566805417E-1,2.652128620E0,-8.034337431E-1,1.581000574E0,3.190431759E0
5.666465417E-1,2.488794837E0,-8.661850382E-1,1.314012029E0,2.944656835E0
5.766135417E-1,2.398133466E0,-8.722161488E-1,9.181789184E-1,2.711984081E0
5.865805417E-1,2.242428253E0,-8.442782986E-1,5.226598030E-1,2.452440332E0
5.965465417E-1,2.057115371E0,-8.483507381E-1,2.053600609E-1,2.234635401E0
6.065135417E-1,1.834275205E0,-7.833694611E-1,-4.236892462E-2,1.995000843E0
6.164805416E-1,1.676998552E0,-6.063651802E-1,-2.303797120E-1,1.798076107E0
6.264465417E-1,1.498420932E0,-4.462260233E-1,-3.576455301E-1,1.603837048E0
6.364135417E-1,1.325407522E0,-3.331717166E-1,-4.845412195E-1,1.449996098E0
6.463795417E-1,1.154115386E0,-2.539261571E-1,-6.860766166E-1,1.366441342E0
6.563465417E-1,1.024802750E0,-1.699115353E-1,-9.190887451E-1,1.387016484E0
6.663135417E-1,8.502579537E-1,-1.422106435E-1,-1.208071007E0,1.484115229E0
6.762795417E-1,6.615190418E-1,-9.563062727E-2,-1.507358986E0,1.648903809E0
6.862465417E-1,4.664731769E-1,-1.625153191E-2,-1.790894566E0,1.850720044E0
6.962138334E-1,2.192937566E-1,8.646277785E-2,-2.019207287E0,2.032919976E0
7.061798334E-1,-6.242611684E-2,1.745017458E-1,-2.124606273E0,2.132674305E0
7.161468334E-1,-3.064020670E-1,1.956451314E-1,-2.101675247E0,2.132884921E0
7.261128334E-1,-4.958463724E-1,1.750169586E-1,-1.934270632E0,2.004469366E0
7.360798334E-1,-6.168224868E-1,2.307198007E-1,-1.698758819E0,1.821944876E0
7.460468333E-1,-7.343735216E-1,3.273633850E-1,-1.425579827E0,1.636688455E0
7.560128333E-1,-8.574634045E-1,4.119942302E-1,-1.176118312E0,1.512691978E0
7.659798333E-1,-9.341960500E-1,5.341087244E-1,-9.989845151E-1,1.468320282E0
7.759468333E-1,-1.008183647E0,6.646940799E-1,-8.346432567E-1,1.467951584E0
7.859128334E-1,-1.103369886E0,7.649340673E-1,-7.378537112E-1,1.531984769E0
7.958798334E-1,-1.194344814E0,8.331353328E-1,-7.594346148E-1,1.642350435E0
8.058458334E-1,-1.250785502E0,9.264145754E-1,-8.574041283E-1,1.777034095E0
8.158128334E-1,-1.296228015E0,9.766009350E-1,-9.642222333E-1,1.887771429E0
8.257798334E-1,-1.282609996E0,1.042324808E0,-1.055147021E0,1.960832641E0
8.357458333E-1,-1.232460035E0,1.089562929E0,-1.104006355E0,1.981144908E0
8.457128333E-1,-1.146692345E0,1.141563460E0,-1.064097939E0,1.936588467E0
8.556788333E-1,-1.178176970E0,1.191868811E0,-9.274800843E-1,1.915429858E0
8.656458333E-1,-1.222970004E0,1.291279224E0,-7.900886428E-1,1.946098078E0
8.756128333E-1,-1.205275891E0,1.389599717E0,-7.092853850E-1,1.971487536E0
8.855788334E-1,-1.145756352E0,1.445086139E0,-6.888739246E-1,1.968648991E0
8.955458334E-1,-1.100764221E0,1.462208833E0,-6.854591507E-1,1.954377340E0
9.055128334E-1,-1.091869290E0,1.500611299E0,-6.477206361E-1,1.965592745E0
9.154788334E-1,-1.098310144E0,1.587326969E0,-5.827691799E-1,2.016311483E0
9.254458334E-1,-1.089453513E0,1.651108397E0,-4.938353688E-1,2.038857834E0
9.354118333E-1,-1.017553956E0,1.731647799E0,-3.648492998E-1,2.041356208E0
9.453788333E-1,-9.073177153E-1,1.789308801E0,-1.876792502E-1,2.014962759E0
9.553458333E-1,-8.074549464E-1,1.737947443E0,8.601955891E-2,1.918291993E0
9.653118333E-1,-7.104705425E-1,1.566086812E0,4.704734033E-1,1.782902554E0
9.752788334E-1,-6.043882366E-1,1.382582327E0,7.891472411E-1,1.702813084E0
9.852458334E-1,-5.233411498E-1,1.286095667E0,1.049541296E0,1.740535825E0
9.952118334E-1,-5.066842597E-1,1.206175778E0,1.334524646E0,1.868835193E0
1.005178833E0,-5.138970195E-1,1.166269847E0,1.714407138E0,2.136227360E0
1.015144833E0,-4.470356434E-1,1.329854037E0,2.035443251E0,2.472120922E0
1.025111833E0,-3.710764383E-1,1.728219869E0,2.312206001E0,2.910453269E0
1.035078833E0,-2.962817062E-1,1.889500987E0,2.585106665E0,3.215707278E0
1.045044833E0,-1.569816604E-1,1.602692136E0,2.696490861E0,3.140752821E0
1.055011833E0,1.678523652E-2,1.137247776E0,2.736674681E0,2.963613092E0
1.064978833E0,-1.131933242E-2,6.985076509E-1,2.896346937E0,2.979407097E0
1.074944833E0,-1.900442297E-1,2.013337779E-1,3.116973494E0,3.129245254E0
1.084911833E0,-2.624168258E-1,-4.430409718E-1,3.449775959E0,3.487993988E0
1.094877833E0,-1.053988396E-1,-1.090340535E0,3.820222798E0,3.974173326E0
1.104844833E0,1.952007430E-1,-1.423870686E0,4.157872605E0,4.399251716E0
1.114811833E0,3.885528888E-1,-1.409694697E0,4.461643644E0,4.695154576E0
1.124777833E0,5.983571991E-1,-1.340118678E0,4.410230831E0,4.648019513E0
1.134744833E0,6.460717213E-1,-1.172208644E0,4.010495288E0,4.227949176E0
1.144711833E0,5.522282955E-1,-1.105221114E0,3.118265144E0,3.354109019E0
1.154677833E0,4.231865318E-1,-1.074803679E0,1.794378921E0,2.134030343E0
1.164644833E0,3.997559347E-1,-1.045543262E0,4.100786823E-1,1.192111591E0
1.174610833E0,3.600769486E-1,-9.880833317E-1,-8.933756143E-1,1.379885527E0
1.184577833E0,2.759953762E-1,-9.047790004E-1,-2.101526728E0,2.304606924E0
1.194544833E0,2.573388845E-1,-7.530322060E-1,-3.158013931E0,3.256736525E0
1.204510833E0,2.195276452E-1,-6.141574721E-1,-3.907214164E0,3.961275592E0
1.214477833E0,1.543836694E-1,-4.987710035E-1,-4.313110333E0,4.344597516E0
1.224444833E0,1.878157096E-1,-6.076139992E-1,-4.395775929E0,4.441544273E0
1.234410833E0,2.236415268E-1,-7.352096003E-1,-4.123897358E0,4.194887139E0
1.244377833E0,2.684738834E-1,-8.351981574E-1,-3.471926381E0,3.581048308E0
1.254343833E0,3.499197502E-1,-9.424739532E-1,-2.648273551E0,2.832676082E0
1.264310833E0,4.165325466E-1,-1.007420732E0,-1.855040275E0,2.151643631E0
1.274277833E0,4.681919660E-1,-9.788000728E-1,-1.085055529E0,1.534470202E0
1.284243833E0,5.681412736E-1,-9.150059268E-1,-4.530317438E-1,1.168442602E0
1.294210833E0,7.285309837E-1,-8.586419839E-1,-1.214110011E-1,1.132591754E0
1.304177833E0,8.413305710E-1,-8.110158277E-1,-6.359314799E-2,1.170311023E0
1.314143833E0,8.511557206E-1,-7.422147109E-1,-3.090434736E-1,1.170835858E0
1.324110833E0,7.499334010E-1,-6.029068445E-1,-7.946161419E-1,1.247922907E0
1.334076833E0,7.064924625E-1,-4.474646097E-1,-1.374292145E0,1.608737106E0
1.344043833E0,6.828863027E-1,-3.071200320E-1,-1.806426525E0,1.955462402E0
1.354010833E0,6.276383740E-1,-1.615237775E-1,-2.123882387E0,2.220562148E0
1.363976833E0,5.099405375E-1,-7.998698652E-3,-2.253477736E0,2.310468619E0
1.373943833E0,3.947810140E-1,1.276045181E-1,-2.251917114E0,2.289817821E0
1.383910833E0,3.123199609E-1,2.291406870E-1,-2.116624823E0,2.151778301E0
1.393876833E0,2.652991011E-1,3.084643069E-1,-1.914017047E0,1.956781821E0
1.403843833E0,2.320455106E-1,3.425184909E-1,-1.686365646E0,1.736373556E0
1.413809833E0,2.014557289E-1,3.638929877E-1,-1.439401476E0,1.498292070E0
1.423776833E0,1.931380280E-1,3.984874544E-1,-1.185289085E0,1.265308170E0
1.433743833E0,2.047926983E-1,4.900804330E-1,-9.440762365E-1,1.083235349E0
1.443709833E0,2.887859412E-1,6.171472996E-1,-7.038737869E-1,9.796460673E-1
1.453676833E0,3.357425546E-1,7.456727542E-1,-4.714048648E-1,9.439139081E-1
1.463643833E0,4.029363449E-1,9.142807259E-1,-2.916632098E-1,1.040833499E0
1.473609833E0,5.203954322E-1,1.100845935E0,-1.661340147E-1,1.228931931E0
1.483576833E0,6.473885143E-1,1.251084002E0,-1.073197961E-1,1.412742229E0
1.493542833E0,7.011907189E-1,1.410821163E0,-6.748388529E-2,1.576908004E0
1.503509833E0,7.072143012E-1,1.534601894E0,-4.127900362E-2,1.690224541E0
1.513476833E0,7.532780814E-1,1.619199556E0,4.148248672E-2,1.786324682E0
1.523442833E0,8.261456443E-1,1.688238216E0,1.816238737E-1,1.888293444E0
1.533409833E0,8.740501280E-1,1.715432301E0,3.586044735E-1,1.958384225E0
1.543375833E0,8.725978258E-1,1.656516487E0,5.976971215E-1,1.965379273E0
1.553342833E0,8.334271089E-1,1.512486701E0,8.387678826E-1,1.919830286E0
1.563309833E0,7.620737556E-1,1.252134308E0,1.108235646E0,1.837602509E0
1.573275833E0,6.997931613E-1,9.419377635E-1,1.372983538E0,1.806112127E0
1.583242833E0,6.899970286E-1,7.467073459E-1,1.666752330E0,1.952365511E0
1.593209833E0,6.916243818E-1,8.805095471E-1,1.829389710E0,2.144832874E0
1.603175833E0,7.892513216E-1,1.191145144E0,1.809386385E0,2.305563596E0
1.613142833E0,8.791179829E-1,1.179657120E0,1.800708532E0,2.325293652E0
1.623108833E0,8.856776087E-1,8.184907620E-1,1.899213651E0,2.249747640E0
1.633075833E0,9.900294312E-1,2.520668887E-1,2.054767714E0,2.294725767E0
1.643042833E0,1.104858075E0,-3.975647637E-1,2.319490462E0,2.599770204E0
1.653008833E0,1.064721691E0,-9.655539367E-1,2.747586755E0,3.100832091E0
1.662975833E0,7.857490586E-1,-1.398146300E0,3.448194287E0,3.802927622E0
1.672942833E0,4.699831874E-1,-1.658899519E0,4.275253120E0,4.609839591E0
1.682908833E0,1.696028023E-1,-1.728266354E0,4.928643216E0,5.225628542E0
1.692876042E0,-5.159400366E-2,-1.693979305E0,5.112210705E0,5.385807842E0
1.702842042E0,1.469523700E-1,-1.571689175E0,4.676674415E0,4.935897633E0
1.712809042E0,5.912834568E-1,-1.440469908E0,3.642125965E0,3.961016439E0
1.722776042E0,1.022523943E0,-1.340175834E0,2.283113764E0,2.837998404E0
1.732742042E0,1.243771474E0,-1.308502198E0,8.161771649E-1,1.981234627E0
1.742709042E0,1.323489781E0,-1.238900159E0,-6.855410117E-1,1.938160283E0
1.752676042E0,1.400019017E0,-1.054193194E0,-2.063737927E0,2.707469440E0
1.762642042E0,1.606963673E0,-6.779048404E-1,-3.230328786E0,3.671091293E0
1.772609042E0,1.691722280E0,-1.336685193E-1,-4.152698404E0,4.486055681E0
1.782575042E0,1.535793557E0,3.464092281E-1,-4.703763396E0,4.960247099E0
1.792542042E0,1.300950957E0,5.496667765E-1,-4.879102682E0,5.079394643E0
1.802509042E0,9.128728625E-1,4.357372878E-1,-4.520499378E0,4.632290845E0
1.812475042E0,4.553818494E-1,4.704289645E-2,-3.616438562E0,3.645300198E0
1.822442042E0,2.161014326E-1,-3.538628201E-1,-2.398044296E0,2.433625931E0
1.832408042E0,-7.234526038E-2,-4.150438455E-1,-1.281219674E0,1.348710156E0
1.842375042E0,-4.063893085E-1,-2.071955019E-1,-3.100468558E-1,5.515535322E-1
1.852342042E0,-6.822409894E-1,-4.865453526E-2,4.832916695E-1,8.374908174E-1
1.862308042E0,-7.560222528E-1,-9.479652196E-2,1.110021971E0,1.346367262E0
1.872275042E0,-7.826387054E-1,-2.095396507E-1,1.416317838E0,1.631682085E0
1.882242042E0,-8.729029043E-1,-2.819239412E-1,1.311536903E0,1.600490436E0
1.892208042E0,-1.101206782E0,-3.160820594E-1,8.970061505E-1,1.455054734E0
1.902175042E0,-1.391848702E0,-3.433973274E-1,3.568140560E-1,1.477322174E0
1.912141042E0,-1.521050533E0,-2.826311620E-1,-2.026475376E-1,1.560301613E0
1.922108042E0,-1.413038281E0,-1.473895955E-1,-7.419040775E-1,1.602754671E0
1.932075042E0,-1.223347735E0,3.174014837E-3,-1.241827567E0,1.743194040E0
1.942041042E0,-1.072705333E0,1.046593130E-1,-1.698947099E0,2.011981995E0
1.952008042E0,-9.788696547E-1,1.347464535E-1,-2.029980197E0,2.257689529E0
1.961974042E0,-8.726408029E-1,1.297695959E-1,-2.178490704E0,2.350353987E0
1.971941042E0,-7.608044712E-1,1.734718318E-1,-2.159812358E0,2.296454951E0
1.981908042E0,-6.090037362E-1,2.662612970E-1,-2.018105671E0,2.124742603E0
1.991874042E0,-4.881345528E-1,3.312213778E-1,-1.776229749E0,1.871623644E0
2.001841042E0,-4.518848855E-1,3.253437567E-1,-1.491268033E0,1.591831918E0
2.011808042E0,-5.070997775E-1,3.405418396E-1,-1.152451122E0,1.304324544E0
2.021774042E0,-5.606355684E-1,3.518735974E-1,-8.442987639E-1,1.072831614E0
2.031741042E0,-5.996967962E-1,3.511033729E-1,-5.803104258E-1,9.053562923E-1
2.041707042E0,-6.302406773E-1,3.310241805E-1,-4.118790400E-1,8.224504015E-1
2.051674042E0,-6.800023828E-1,3.559751268E-1,-2.949785811E-1,8.222736131E-1
2.061641042E0,-7.512246855E-1,3.663977887E-1,-2.302785552E-1,8.669567928E-1
2.071607042E0,-8.023713040E-1,3.036188655E-1,-1.263501441E-1,8.671496318E-1
2.081574042E0,-8.514417225E-1,2.329656431E-1,4.058435440E-2,8.836702369E-1
2.091541042E0,-8.442742787E-1,1.787697016E-1,2.791337961E-1,9.070134177E-1
2.101507042E0,-8.301636317E-1,1.274171148E-1,5.540786469E-1,1.006185829E0
2.111474042E0,-8.243061103E-1,1.185215995E-2,8.519738191E-1,1.185529597E0
2.121440042E0,-8.348695439E-1,-1.326019871E-1,1.149189545E0,1.426613841E0
2.131407042E0,-7.882989563E-1,-8.630958080E-2,1.371918175E0,1.584621112E0
2.141374042E0,-7.410955538E-1,4.014335740E-1,1.415368250E0,1.647312605E0
2.151340042E0,-6.890673944E-1,8.791370595E-1,1.294069515E0,1.709477041E0
2.161307042E0,-6.436753862E-1,7.819864485E-1,1.066984710E0,1.471148252E0
2.171273042E0,-6.084331211E-1,3.260736354E-1,9.879426330E-1,1.205215966E0
2.181240042E0,-5.970837486E-1,-4.780902788E-2,1.180596110E0,1.323858708E0
2.191207042E0,-6.534046414E-1,-2.528945620E-1,1.683148507E0,1.823151717E0
2.201173042E0,-6.792413677E-1,-5.164596348E-1,2.402846614E0,2.549857102E0
2.211140042E0,-5.816973853E-1,-8.450308353E-1,3.209933113E0,3.369884204E0
2.221107042E0,-4.382979298E-1,-1.183390494E0,3.825525638E0,4.028295488E0
2.231073042E0,-3.959812281E-1,-1.348898564E0,4.226971491E0,4.454617431E0
2.241040042E0,-2.574453403E-1,-1.353784498E0,4.197398028E0,4.417823081E0
2.251006042E0,-9.412624832E-2,-1.399581060E0,3.717172054E0,3.973041023E0
2.260973042E0,-1.943358667E-2,-1.525555228E0,2.937829424E0,3.310368279E0
2.270940042E0,-2.683851885E-1,-1.595361481E0,2.013966427E0,2.583267241E0
2.280906042E0,-7.271613465E-1,-1.538042542E0,9.565425003E-1,1.951745895E0
2.290873042E0,-1.094154089E0,-1.385985991E0,-4.177601695E-2,1.766316952E0
2.300840042E0,-1.211662366E0,-1.263759888E0,-8.957899296E-1,1.966635285E0
2.310806042E0,-1.137054087E0,-1.173124830E0,-1.592155307E0,2.281243605E0
2.320773042E0,-9.918813175E-1,-1.093512504E0,-2.069040767E0,2.541756841E0
2.330739042E0,-8.493712234E-1,-1.054351946E0,-2.254113328E0,2.629470745E0
2.340706042E0,-7.189022275E-1,-1.088265505E0,-2.084218969E0,2.458680730E0
2.350673042E0,-6.355370121E-1,-1.098562305E0,-1.624538941E0,2.061522060E0
2.360639042E0,-5.494196220E-1,-1.093888333E0,-1.011627949E0,1.588031711E0
2.370606042E0,-3.304389108E-1,-1.096648219E0,-4.722334152E-1,1.238883202E0
2.380572042E0,-8.846921336E-2,-1.029829162E0,-1.449401969E-1,1.043734912E0
2.390539042E0,1.606783433E-1,-8.278236490E-1,-1.133500296E-1,8.508570697E-1
2.400506042E0,3.951803788E-1,-5.924254180E-1,-3.073068506E-1,7.756113125E-1
2.410472042E0,6.357070199E-1,-3.860638753E-1,-6.838745552E-1,1.010372772E0
2.420439042E0,8.380021897E-1,-2.167798193E-1,-1.128482215E0,1.422221245E0
2.430406042E0,9.726675130E-1,-1.198645587E-1,-1.650955492E0,1.919922822E0
2.440372042E0,1.049618406E0,-2.364555538E-2,-2.113886572E0,2.360248790E0
2.450339042E0,1.051219666E0,1.616801906E-1,-2.504895145E0,2.721342125E0
2.460305042E0,1.022519339E0,3.606840357E-1,-2.746265284E0,2.952560208E0
2.470272042E0,9.792292584E-1,5.230482043E-1,-2.812062247E0,3.023270323E0
2.480239042E0,8.944070631E-1,5.656100871E-1,-2.715564478E0,2.914475802E0
2.490205042E0,8.050279865E-1,5.753407310E-1,-2.544263864E0,2.729902127E0
2.500172042E0,7.241813131E-1,5.618561746E-1,-2.256825852E0,2.435853826E0
2.510138042E0,6.850790086E-1,5.494492601E-1,-1.851564690E0,2.049272930E0
2.520105042E0,6.227202809E-1,5.713099529E-1,-1.450258586E0,1.678518864E0
2.530072042E0,5.605096705E-1,6.056576671E-1,-9.889197028E-1,1.288004068E0
2.540038042E0,5.617365991E-1,6.053489341E-1,-5.495996797E-1,9.919955376E-1
2.550005042E0,5.851086144E-1,5.576004249E-1,-1.323470485E-1,8.190153025E-1
2.559972042E0,5.474701238E-1,5.369534679E-1,2.449369401E-1,8.050072470E-1
2.569938042E0,4.986944415E-1,5.362461010E-1,4.843640488E-1,8.779889285E-1
2.579905042E0,4.821055983E-1,5.749548148E-1,5.565333080E-1,9.341992132E-1
2.589871042E0,4.185999028E-1,6.141339371E-1,4.533504170E-1,8.705819731E-1
2.599838042E0,3.615418223E-1,6.100584278E-1,2.318795228E-1,7.460910719E-1
2.609805042E0,3.431482725E-1,6.932362399E-1,-3.298238933E-2,7.742189995E-1
2.619771042E0,3.479030821E-1,8.598485568E-1,-2.997803146E-1,9.748047662E-1
2.629738042E0,3.782957396E-1,1.076297716E0,-5.210512340E-1,1.254200474E0
2.639704042E0,3.275708149E-1,1.192424004E0,-6.152264893E-1,1.381188357E0
2.649671042E0,2.334357227E-1,1.180820497E0,-5.500931847E-1,1.323416712E0
2.659638042E0,1.258005790E-1,1.079928106E0,-3.428988522E-1,1.140021983E0
2.669604042E0,-2.112873103E-2,8.872529948E-1,1.925897419E-2,8.877134718E-1
2.679571042E0,-1.372712446E-1,6.440124781E-1,4.498812640E-1,7.974889456E-1
2.689538042E0,-1.833258886E-1,3.848561329E-1,9.442569155E-1,1.036023044E0
2.699503542E0,-1.322294464E-1,2.139132218E-1,1.444325416E0,1.466055729E0
2.709470542E0,1.727596410E-2,1.575937177E-1,1.834713600E0,1.841550497E0
2.719436542E0,1.906747423E-1,4.413395783E-1,1.952154926E0,2.010484105E0
2.729403542E0,2.357463961E-1,9.347165984E-1,1.789451473E0,2.032586543E0
2.739370542E0,2.120679685E-1,1.124389968E0,1.472400822E0,1.864722447E0
2.749336542E0,1.692403846E-1,1.047277692E0,1.048435003E0,1.491525671E0
2.759303542E0,1.028475532E-1,9.602068041E-1,6.594220841E-1,1.169364020E0
2.769270542E0,-5.298257120E-2,8.088182978E-1,4.775005871E-1,9.407449189E-1
2.779236542E0,-1.601619976E-1,2.647387552E-1,5.137691116E-1,5.997475919E-1
2.789203542E0,-9.292680167E-2,-4.166150654E-1,7.897401488E-1,8.977154370E-1
2.799169542E0,5.797037406E-2,-8.195710351E-1,1.360203863E0,1.589091500E0
2.809136542E0,2.029978406E-1,-9.685053188E-1,2.188192989E0,2.401541012E0
2.819103542E0,4.385074063E-1,-1.028767600E0,2.982567641E0,3.185335344E0
2.829069542E0,6.455239834E-1,-1.116958815E0,3.507126034E0,3.736874527E0
2.839036542E0,7.997737516E-1,-1.217767664E0,3.724196314E0,3.999029173E0
2.849002542E0,9.205273063E-1,-1.280781426E0,3.548291017E0,3.883058167E0
2.858969542E0,1.012672043E0,-1.338986803E0,3.031587773E0,3.465388110E0
2.868936542E0,1.073087522E0,-1.378818621E0,2.262032213E0,2.858224510E0
2.878902542E0,1.056281089E0,-1.366964414E0,1.343454514E0,2.188422144E0
2.888869542E0,9.573177680E-1,-1.324490532E0,4.374588543E-1,1.691775023E0
2.898836542E0,8.415898219E-1,-1.281920171E0,-3.301799887E-1,1.568633666E0
2.908802542E0,7.359027877E-1,-1.166299521E0,-8.527848279E-1,1.621434380E0
2.918769542E0,6.078716787E-1,-1.072876656E0,-1.121187814E0,1.666623656E0
2.928735542E0,4.308702483E-1,-1.087733116E0,-1.159800487E0,1.647406954E0
2.938702542E0,1.917102842E-1,-1.070428573E0,-9.858925992E-1,1.467840039E0
2.948669542E0,3.044937551E-3,-1.005945333E0,-7.092795378E-1,1.230858541E0
2.958635542E0,-4.897488959E-2,-9.498116241E-1,-5.354862553E-1,1.091460577E0
2.968602542E0,-8.033204533E-2,-8.989997587E-1,-5.057636887E-1,1.034625880E0
2.978568542E0,-7.467815325E-2,-8.719277349E-1,-6.219034249E-1,1.073591483E0
2.988535542E0,-6.956585951E-2,-8.121212438E-1,-8.967886341E-1,1.211862277E0
2.998502542E0,-8.713476911E-2,-7.816094492E-1,-1.256311120E0,1.482168489E0
3.008468542E0,-1.003462605E-1,-7.476273322E-1,-1.657784455E0,1.821336131E0
3.018435542E0,-1.065006012E-1,-7.098000862E-1,-1.993071402E0,2.118370165E0
3.028402542E0,-1.310925284E-1,-6.515061235E-1,-2.260115495E0,2.355794459E0
3.038368542E0,-1.902654006E-1,-5.755937693E-1,-2.449638957E0,2.523537226E0
3.048335542E0,-2.338021604E-1,-5.048728654E-1,-2.486732524E0,2.548214808E0
3.058301542E0,-2.939670128E-1,-4.344884688E-1,-2.422050624E0,2.478210254E0
3.068268542E0,-2.437175763E-1,-2.803811534E-1,-2.273320847E0,2.303475531E0
3.078235542E0,-1.614903022E-1,-1.225843911E-1,-2.076642147E0,2.086515914E0
3.088201542E0,-3.558651991E-2,-1.530143246E-2,-1.864221573E0,1.864623986E0
3.098168542E0,9.733128995E-2,7.026482105E-2,-1.580194243E0,1.584747415E0
3.108134542E0,2.169800133E-1,1.854833284E-1,-1.272118483E0,1.303752211E0
3.118101542E0,2.853327949E-1,3.343715653E-1,-9.914012611E-1,1.084479418E0
3.128068542E0,2.762367200E-1,5.001038763E-1,-7.638264585E-1,9.538561061E-1
3.138034542E0,2.032153753E-1,6.162525295E-1,-5.716015828E-1,8.647496969E-1
3.148001542E0,1.177178997E-1,7.512597688E-1,-3.090627694E-1,8.208340511E-1
3.157968542E0,1.044432583E-1,8.524929057E-1,-8.181365669E-2,8.627549032E-1
3.167934542E0,7.696646109E-2,9.773734984E-1,1.100101000E-1,9.865520836E-1
3.177901542E0,3.584445521E-2,1.068865905E0,2.894155401E-1,1.107935243E0
3.187867542E0,1.266974688E-2,1.071505923E0,4.761615747E-1,1.172610468E0
3.197834542E0,-1.783101104E-2,1.020643625E0,7.226731700E-1,1.250714942E0
3.207801542E0,-3.195678771E-2,9.873047018E-1,9.546023941E-1,1.373702130E0
3.217767542E0,-4.846026152E-2,9.616908275E-1,1.172073208E0,1.516889333E0
3.227734542E0,-6.609480612E-2,9.028005950E-1,1.355139005E0,1.629668421E0
3.237700542E0,-1.150064727E-1,8.398428932E-1,1.499549444E0,1.722559465E0
3.247667542E0,-2.773543422E-1,7.360485296E-1,1.638409122E0,1.817437019E0
3.257634542E0,-4.833888794E-1,6.404003607E-1,1.709755093E0,1.888660877E0
3.267600542E0,-7.259717305E-1,8.362323837E-1,1.576053829E0,1.926204876E0
3.277567542E0,-8.921411940E-1,1.248777714E0,1.258940029E0,1.985016797E0
3.287534542E0,-1.014663385E0,1.308518278E0,9.136332929E-1,1.891160401E0
3.297500542E0,-1.094703655E0,9.671128044E-1,6.302690363E-1,1.590887276E0
3.307467542E0,-1.120067341E0,5.011556442E-1,5.705075687E-1,1.353213477E0
3.317433542E0,-1.149127418E0,8.793364495E-2,8.202789867E-1,1.414596679E0
3.327400542E0,-1.231510301E0,-2.790155362E-1,1.353905827E0,1.851358496E0
3.337367542E0,-1.135581393E0,-6.689217630E-1,2.063465447E0,2.448446666E0
3.347333542E0,-9.306901326E-1,-1.126822922E0,2.838819691E0,3.192931452E0
3.357300542E0,-7.012624204E-1,-1.509925913E0,3.440465437E0,3.822099903E0
3.367267542E0,-4.849859002E-1,-1.547596746E0,3.668561227E0,4.011060768E0
3.377233542E0,-4.633520794E-1,-1.397892677E0,3.497203310E0,3.794631744E0
3.387200542E0,-6.658716360E-1,-1.308555554E0,2.887165055E0,3.239046885E0
3.397166542E0,-8.470735601E-1,-1.266260743E0,1.909242795E0,2.442571992E0
3.407133542E0,-8.107114070E-1,-1.322957392E0,6.741909814E-1,1.691745467E0
3.417100542E0,-7.386626735E-1,-1.320353919E0,-4.445123506E-1,1.576879275E0
3.427066542E0,-5.894831722E-1,-1.195867867E0,-1.450361497E0,1.970060618E0
3.437033542E0,-4.063555043E-1,-1.078288401E0,-2.364778317E0,2.630590648E0
3.446999542E0,-3.799660333E-1,-8.821909140E-1,-3.167112198E0,3.309567143E0
3.456966542E0,-4.434501307E-1,-5.762331623E-1,-3.808434811E0,3.877224315E0
3.466933542E0,-4.850328241E-1,-3.277256200E-1,-4.189278585E0,4.229978249E0
3.476899542E0,-4.503703470E-1,-1.491810362E-1,-4.153280786E0,4.180290626E0
3.486866542E0,-4.127484113E-1,-1.388095374E-1,-3.635003471E0,3.660994342E0
3.496832542E0,-5.140261333E-1,-3.056842482E-1,-2.675178344E0,2.741212305E0
3.506799542E0,-6.337804355E-1,-6.192360713E-1,-1.565517731E0,1.798882075E0
3.516766542E0,-5.926658117E-1,-8.994052631E-1,-4.789729160E-1,1.178811964E0
3.526732542E0,-3.597321821E-1,-9.809907322E-1,5.233410037E-1,1.168604238E0
3.536699542E0,-7.374285456E-2,-9.233911264E-1,1.375584379E0,1.658409348E0
3.546666542E0,6.663527157E-2,-8.626525891E-1,2.018727815E0,2.196331428E0
3.556632542E0,6.493998103E-2,-7.985713448E-1,2.415008238E0,2.544444573E0
3.566599542E0,1.046110734E-2,-6.872855285E-1,2.549840938E0,2.640863427E0
3.576565542E0,-4.212750770E-2,-6.099300814E-1,2.393662392E0,2.470507859E0
3.586532542E0,-7.350790612E-3,-5.992435639E-1,1.880275104E0,1.973469369E0
3.596499542E0,8.014551915E-2,-5.622786359E-1,1.124999614E0,1.260239937E0
3.606465542E0,2.073949468E-1,-5.111407882E-1,2.372759181E-1,6.004809994E-1
3.616432542E0,2.636024584E-1,-4.111184634E-1,-5.918727100E-1,7.673447412E-1
3.626398542E0,2.587026744E-1,-2.677903439E-1,-1.278894821E0,1.331995010E0
3.636365542E0,2.635423600E-1,-1.378897704E-1,-1.883979315E0,1.907313877E0
3.646332542E0,2.496195183E-1,-1.826830968E-2,-2.316266892E0,2.329750190E0
3.656298542E0,2.205781888E-1,9.774746552E-2,-2.602771103E0,2.613929364E0
3.666265542E0,1.409719657E-1,1.691776367E-1,-2.679024643E0,2.688060119E0
3.676232542E0,8.704676852E-3,1.975873572E-1,-2.566235361E0,2.573845462E0
3.686198542E0,-1.731788498E-1,2.275943908E-1,-2.236940056E0,2.255147653E0
3.696166083E0,-2.335267565E-1,2.729382326E-1,-1.756760275E0,1.793108108E0
3.706132083E0,-1.978728109E-1,3.253766473E-1,-1.330706415E0,1.384125418E0
3.716099083E0,-1.704693231E-1,3.741767782E-1,-9.533411497E-1,1.038232825E0
3.726066083E0,-1.952169690E-1,4.293936436E-1,-5.922054166E-1,7.570969697E-1
3.736032083E0,-2.508209201E-1,4.829822056E-1,-3.487103999E-1,6.463604937E-1
3.745999083E0,-2.792788070E-1,5.427971752E-1,-1.820898968E-1,6.370103264E-1
3.755966083E0,-2.985881769E-1,6.080697897E-1,-5.743953824E-2,6.798551825E-1
3.765932083E0,-2.625279595E-1,6.720279501E-1,4.406110883E-2,7.228304618E-1
3.775899083E0,-2.599711548E-1,7.323842257E-1,1.145720977E-1,7.855561221E-1
3.785865083E0,-2.594350016E-1,7.148959346E-1,2.129193413E-1,7.897577878E-1
3.795832083E0,-2.479242277E-1,6.299173263E-1,3.839094687E-1,7.782343739E-1
3.805799083E0,-2.142718023E-1,5.325680561E-1,6.385527867E-1,8.586563929E-1
3.815765083E0,-2.121310818E-1,4.176392783E-1,9.646169204E-1,1.072337617E0
3.825732083E0,-2.183171619E-1,2.637892404E-1,1.303223916E0,1.347456761E0
3.835698083E0,-2.447608841E-1,1.694647349E-1,1.584794832E0,1.612513828E0
3.845665083E0,-2.603905098E-1,2.716183698E-1,1.687517547E0,1.728957844E0
3.855632083E0,-3.261696028E-1,5.801529895E-1,1.548136883E0,1.685138543E0
3.865598083E0,-3.612644084E-1,6.986071998E-1,1.334519969E0,1.549034389E0
3.875565083E0,-3.802736700E-1,5.473179500E-1,1.096768087E0,1.283380395E0
3.885531083E0,-3.709644641E-1,3.879075024E-1,9.986208183E-1,1.133724130E0
3.895498083E0,-3.738811649E-1,3.318252490E-1,9.905557537E-1,1.109547576E0
3.905465083E0,-4.254293410E-1,7.275324985E-2,1.142319651E0,1.221137726E0
3.915431083E0,-4.529867202E-1,-4.570052192E-1,1.505743400E0,1.637471809E0
3.925398083E0,-4.513138318E-1,-9.324054864E-1,1.954873297E0,2.212372883E0
3.935365083E0,-4.800621792E-1,-1.101173526E0,2.480985880E0,2.756507531E0
3.945331083E0,-6.290710880E-1,-1.110890575E0,2.973259458E0,3.235750316E0
3.955298083E0,-7.750062617E-1,-1.104012934E0,3.209566492E0,3.481493405E0
3.965264083E0,-8.497735119E-1,-1.067911055E0,3.054197202E0,3.345245819E0
3.975231083E0,-8.114907677E-1,-9.321812457E-1,2.529479179E0,2.815269802E0
3.985198083E0,-6.873679742E-1,-8.928629597E-1,1.724169064E0,2.059717932E0
3.995164083E0,-5.689552791E-1,-9.383477193E-1,7.019968307E-1,1.302691868E0
4.005131083E0,-5.845011983E-1,-9.282889004E-1,-2.997978562E-1,1.137207408E0
4.015097083E0,-6.549365388E-1,-8.290224744E-1,-1.232950909E0,1.623695808E0
4.025064083E0,-7.492746390E-1,-7.442809707E-1,-1.977362273E0,2.241724382E0
4.035031083E0,-7.773662710E-1,-6.960575214E-1,-2.493881915E0,2.703375926E0
4.044997083E0,-6.523153782E-1,-6.357698044E-1,-2.742642349E0,2.889949074E0
4.054964083E0,-5.453323086E-1,-6.382792832E-1,-2.645587340E0,2.775593656E0
4.064931083E0,-4.440374836E-1,-7.430741054E-1,-2.257509976E0,2.417784048E0
4.074897083E0,-3.213592447E-1,-9.146014456E-1,-1.611304938E0,1.880444408E0
4.084864083E0,-2.183324743E-1,-1.053769125E0,-8.480363041E-1,1.370132844E0
4.094830083E0,-2.398186529E-1,-1.167402452E0,-1.814870489E-1,1.205520228E0
4.104797083E0,-4.057505733E-1,-1.253930719E0,4.606494963E-1,1.396128122E0
4.114764083E0,-6.314571905E-1,-1.277448513E0,1.004420671E0,1.743408664E0
4.124730083E0,-7.886649189E-1,-1.279293455E0,1.359720883E0,2.026678312E0
4.134697083E0,-9.266061448E-1,-1.213427787E0,1.556359822E0,2.180197660E0
4.144663083E0,-1.101051246E0,-1.100464258E0,1.583580365E0,2.220599514E0
4.154630083E0,-1.223566128E0,-1.014479490E0,1.364296914E0,2.094657198E0
4.164597083E0,-1.270637968E0,-9.962177588E-1,8.859707004E-1,1.841715166E0
4.174563083E0,-1.396088080E0,-1.009212172E0,3.402424622E-1,1.755943071E0
4.184530083E0,-1.549600148E0,-9.978111251E-1,-1.689605588E-1,1.850793163E0
4.194497083E0,-1.673223151E0,-9.322297776E-1,-5.984987748E-1,2.006720921E0
4.204463083E0,-1.778390880E0,-8.381830148E-1,-9.539346421E-1,2.185226805E0
4.214430083E0,-1.872288100E0,-7.526978914E-1,-1.187837886E0,2.341575471E0
4.224396083E0,-1.926977839E0,-6.843402860E-1,-1.318182848E0,2.432934697E0
4.234363083E0,-1.962092561E0,-6.625015202E-1,-1.341354779E0,2.467376770E0
4.244330083E0,-1.981787884E0,-6.779409470E-1,-1.291558136E0,2.460733542E0
4.254296083E0,-1.961742021E0,-7.518241712E-1,-1.161202065E0,2.400429457E0
4.264263083E0,-1.939051462E0,-7.810106944E-1,-1.007084078E0,2.320369931E0
4.274229083E0,-1.945259889E0,-7.457454059E-1,-8.115122563E-1,2.235782724E0
4.284196083E0,-1.996328594E0,-7.007977130E-1,-5.415433860E-1,2.183967611E0
4.294163083E0,-2.030595324E0,-7.032240151E-1,-1.923143381E-1,2.157504621E0
4.304129083E0,-2.001554397E0,-7.935371844E-1,1.889744085E-1,2.161395982E0
4.314096083E0,-1.941559771E0,-9.625844282E-1,4.843523544E-1,2.220545052E0
4.324063083E0,-1.886569047E0,-1.144137843E0,6.809661502E-1,2.309092694E0
4.334029083E0,-1.874587371E0,-1.295247876E0,7.794905645E-1,2.408184049E0
4.343996083E0,-1.829446428E0,-1.418163219E0,8.170255959E-1,2.454708124E0
4.353962083E0,-1.658642973E0,-1.557056079E0,8.391128683E-1,2.424794950E0
4.363929083E0,-1.477733483E0,-1.757523336E0,8.336813897E-1,2.442869048E0
4.373896083E0,-1.392380945E0,-1.957219784E0,7.995143545E-1,2.531532576E0
4.383862083E0,-1.395658602E0,-2.074568578E0,7.309189135E-1,2.604983719E0
4.393829083E0,-1.360529846E0,-2.214173045E0,6.625310487E-1,2.681893198E0
4.403795083E0,-1.282837891E0,-2.315936670E0,6.000389314E-1,2.714642230E0
4.413762083E0,-1.263086582E0,-2.333356988E0,5.202548432E-1,2.703813538E0
4.423729083E0,-1.418477799E0,-2.179197340E0,4.591660577E-1,2.640419243E0
4.433695083E0,-1.572960944E0,-2.042544255E0,4.237453794E-1,2.612614268E0
4.443662083E0,-1.420155658E0,-2.168797482E0,4.067200416E-1,2.624108573E0
4.453628083E0,-1.150832101E0,-2.474688722E0,5.629325008E-1,2.786645258E0
4.463595083E0,-1.059360086E0,-2.710489680E0,8.664749140E-1,3.036408548E0
4.473562083E0,-1.104683609E0,-2.990806367E0,1.249018473E0,3.424221919E0
4.483528083E0,-1.233322938E0,-3.318056316E0,1.622651460E0,3.894044292E0
4.493495083E0,-1.347808789E0,-3.616473353E0,1.902412078E0,4.302864134E0
4.503462083E0,-1.493346718E0,-3.810036364E0,2.022918515E0,4.564938206E0
4.513428083E0,-1.589801218E0,-3.851274437E0,1.946301863E0,4.598681729E0
4.523395083E0,-1.675907900E0,-3.783981463E0,1.691313559E0,4.470763308E0
4.533361083E0,-1.771729439E0,-3.621251405E0,1.287045255E0,4.231899388E0
4.543328083E0,-1.917430944E0,-3.488095686E0,8.235271150E-1,4.064670940E0
4.553295083E0,-2.014117139E0,-3.440040929E0,3.205934787E-1,3.999166116E0
4.563261083E0,-2.051678776E0,-3.404796252E0,-1.265951425E-1,3.977191176E0
4.573228083E0,-2.051236872E0,-3.364448710E0,-5.901355022E-1,3.984388001E0
4.583194083E0,-2.038131800E0,-3.325452459E0,-9.717674804E-1,4.019570541E0
4.593161083E0,-1.963129857E0,-3.263877186E0,-1.241488429E0,4.006003824E0
4.603128083E0,-1.843409871E0,-3.244063311E0,-1.333111374E0,3.962233291E0
4.613094083E0,-1.728291205E0,-3.187821867E0,-1.229218631E0,3.828861082E0
4.623061083E0,-1.581258143E0,-3.132901894E0,-8.929528606E-1,3.621162300E0
4.633028083E0,-1.404796192E0,-3.107285827E0,-4.980880487E-1,3.446268889E0
4.642994083E0,-1.386451722E0,-3.034386835E0,-1.290743619E-1,3.338624273E0
4.652961083E0,-1.450577844E0,-2.935081525E0,1.956109983E-1,3.279808425E0
4.662927083E0,-1.558349630E0,-2.857483711E0,4.045518941E-1,3.279836728E0
4.672894083E0,-1.635131611E0,-2.794510660E0,5.149748075E-1,3.278436253E0
4.682861083E0,-1.704726195E0,-2.708544311E0,4.473973668E-1,3.231480789E0
4.692827083E0,-1.850679568E0,-2.593995602E0,4.012909019E-1,3.211675954E0
4.702794042E0,-2.015159844E0,-2.505222005E0,3.092586511E-1,3.229960898E0
4.712760042E0,-2.138995686E0,-2.387078135E0,1.722086871E-1,3.209844295E0
4.722727042E0,-2.266157131E0,-2.309835101E0,1.098259127E-1,3.237725755E0
4.732694042E0,-2.340914075E0,-2.308589790E0,1.446174306E-1,3.290954228E0
4.742660042E0,-2.374398156E0,-2.309325955E0,1.895141065E-1,3.317629962E0
4.752627042E0,-2.305914397E0,-2.311015946E0,2.649402648E-1,3.275397572E0
4.762594042E0,-2.165589846E0,-2.268742916E0,3.832803082E-1,3.159727455E0
4.772560042E0,-2.043006039E0,-2.198292592E0,4.447380531E-1,3.033835185E0
4.782527042E0,-1.912214058E0,-2.154619592E0,4.840880603E-1,2.921179460E0
4.792493042E0,-1.808281992E0,-2.117543275E0,4.918490696E-1,2.827682583E0
4.802460042E0,-1.746697217E0,-2.048319550E0,4.353064942E-1,2.726913253E0
4.812427042E0,-1.717596355E0,-1.922170404E0,3.688230675E-1,2.604017426E0
4.822393042E0,-1.711582202E0,-1.758472340E0,2.692256892E-1,2.468647620E0
4.832360042E0,-1.717332792E0,-1.562906072E0,1.600681132E-1,2.327558616E0
4.842326042E0,-1.720408866E0,-1.349762052E0,6.485088408E-2,2.187663114E0
4.852293042E0,-1.729643666E0,-1.079769500E0,1.329130590E-2,2.039055184E0
4.862260042E0,-1.674972931E0,-8.563254632E-1,-1.167279661E-2,1.881213404E0
4.872226042E0,-1.646844461E0,-7.647669831E-1,3.514176607E-4,1.815754758E0
4.882193042E0,-1.617370840E0,-7.907568334E-1,6.993737698E-2,1.801686998E0
4.892159042E0,-1.393560767E0,-6.489231160E-1,2.410046875E-1,1.556019306E0
4.902126042E0,-1.044061431E0,-4.608145340E-1,4.221327174E-1,1.216803328E0
4.912093042E0,-8.607295129E-1,-3.764944683E-1,6.459623784E-1,1.140118754E0
4.922059042E0,-7.924497485E-1,-2.816447367E-1,8.110345387E-1,1.168365262E0
4.932026042E0,-8.066308545E-1,-2.410866947E-1,9.188273746E-1,1.246202180E0
4.941993042E0,-7.990420456E-1,-2.397443202E-1,9.115510994E-1,1.235666191E0
4.951959042E0,-7.437576449E-1,-2.484290434E-1,7.685679656E-1,1.097993234E0
4.961926042E0,-6.053787183E-1,-2.570681584E-1,5.312306517E-1,8.454427456E-1
4.971892042E0,-4.370344196E-1,-2.128902514E-1,2.229981869E-1,5.348359883E-1
4.981859042E0,-3.512101576E-1,-9.875274807E-2,-9.525640547E-2,3.770602908E-1
4.991826042E0,-2.786214338E-1,8.705246955E-2,-3.515433758E-1,4.569362986E-1
5.001792042E0,-2.058570012E-1,3.136177504E-1,-6.089723074E-1,7.152485369E-1
5.011759042E0,-1.587375427E-1,5.161699784E-1,-8.060304916E-1,9.702134855E-1
5.021725042E0,-2.135334086E-1,6.832521191E-1,-9.661237478E-1,1.202424663E0
5.031692042E0,-2.932662605E-1,7.975206001E-1,-1.027392043E0,1.333258646E0
5.041659042E0,-3.788540756E-1,8.224100044E-1,-1.035157145E0,1.375295947E0
5.051625042E0,-4.922847968E-1,8.278389980E-1,-1.047712287E0,1.423152403E0
5.061592042E0,-5.998458271E-1,8.551055878E-1,-1.028905887E0,1.466174583E0
5.071559042E0,-6.604241507E-1,8.859497966E-1,-9.241372311E-1,1.440519602E0
5.081525042E0,-6.613841173E-1,8.906109045E-1,-7.866183203E-1,1.359920996E0
5.091492042E0,-6.194511026E-1,8.900849475E-1,-6.311560589E-1,1.254722620E0
5.101458042E0,-5.372936296E-1,8.997600429E-1,-4.678246146E-1,1.147655196E0
5.111425042E0,-4.394262231E-1,9.209807579E-1,-3.460265279E-1,1.077513489E0
5.121392042E0,-3.269404120E-1,9.826805775E-1,-2.841793585E-1,1.073922278E0
5.131358042E0,-2.967573223E-1,1.015332307E0,-2.229221731E-1,1.081045280E0
5.141325042E0,-2.920556493E-1,1.079738510E0,-1.532578611E-1,1.128990578E0
5.151291042E0,-3.506185291E-1,1.143958626E0,-3.355834007E-2,1.196954825E0
5.161258042E0,-3.635863012E-1,1.173230226E0,1.295433086E-1,1.235089321E0
5.171225042E0,-3.781824133E-1,1.148887975E0,2.878046322E-1,1.243300858E0
5.181191042E0,-4.584291624E-1,1.084559832E0,4.930126655E-1,1.276514322E0
5.191158042E0,-4.970699754E-1,9.986659149E-1,7.095999652E-1,1.322098438E0
5.201125042E0,-4.316596955E-1,8.555691990E-1,9.665839237E-1,1.361107354E0
5.211091042E0,-2.519973799E-1,8.104423620E-1,1.235996724E0,1.499335654E0
5.221058042E0,1.975403236E-2,8.456481551E-1,1.427556186E0,1.659345560E0
5.231024042E0,3.059956124E-1,8.235228027E-1,1.568574656E0,1.797845814E0
5.240991042E0,6.252610423E-1,7.138598080E-1,1.719866683E0,1.964303592E0
5.250958042E0,9.220532104E-1,5.336943761E-1,1.872050995E0,2.153969995E0
5.260924042E0,1.118442985E0,3.759878802E-1,1.996318361E0,2.318958515E0
5.270891042E0,1.198644637E0,2.534499744E-1,2.060119670E0,2.396889424E0
5.280857042E0,1.257718107E0,1.346363065E-1,1.965048037E0,2.336962892E0
5.290824042E0,1.274964323E0,-1.399009933E-1,1.844942134E0,2.246979704E0
5.300791042E0,1.279096258E0,-4.903274048E-1,1.783058127E0,2.248511616E0
5.310757042E0,1.311441008E0,-7.594362228E-1,1.759018469E0,2.321802505E0
5.320724042E0,1.447903327E0,-9.173396236E-1,1.768447105E0,2.462791342E0
5.330690042E0,1.578926274E0,-1.034259671E0,1.803357906E0,2.610517378E0
5.340657042E0,1.638788606E0,-1.137199610E0,1.831192991E0,2.707788548E0
5.350624042E0,1.661740974E0,-1.266239839E0,1.757399375E0,2.730054754E0
5.360590042E0,1.689376962E0,-1.427017658E0,1.623518018E0,2.743389266E0
5.370557042E0,1.645829384E0,-1.577064228E0,1.441026417E0,2.696746758E0
5.380524042E0,1.611828849E0,-1.686413885E0,1.218230544E0,2.631742709E0
5.390490042E0,1.569989097E0,-1.751975060E0,8.994450241E-1,2.518587645E0
5.400457042E0,1.526775396E0,-1.776108711E0,5.330643386E-1,2.402033067E0
5.410423042E0,1.502573770E0,-1.759930197E0,1.915694028E-1,2.322020902E0
5.420390042E0,1.426947345E0,-1.730138487E0,-1.272102696E-1,2.246272548E0
5.430357042E0,1.312387380E0,-1.686851111E0,-3.930784875E-1,2.173094108E0
5.440323042E0,1.152296171E0,-1.647051306E0,-5.732516670E-1,2.090258822E0
5.450290042E0,1.001115533E0,-1.531444690E0,-7.338659102E-1,1.971322988E0
5.460256042E0,9.184682094E-1,-1.335476135E0,-8.650481933E-1,1.837223104E0
5.470223042E0,9.028978050E-1,-1.134836969E0,-9.569605762E-1,1.737484658E0
5.480190042E0,9.393733209E-1,-9.524531038E-1,-1.062161926E0,1.708150201E0
5.490156042E0,9.944105306E-1,-8.006089532E-1,-1.215142629E0,1.762497832E0
5.500123042E0,1.067591797E0,-6.448239255E-1,-1.389704236E0,1.867305010E0
5.510090042E0,1.124230705E0,-5.130911270E-1,-1.565189703E0,1.994235690E0
5.520056042E0,1.143042075E0,-3.710762921E-1,-1.721168273E0,2.099205331E0
5.530023042E0,1.124416646E0,-1.720123668E-1,-1.842361173E0,2.165224178E0
5.539989042E0,1.062414964E0,-9.719826579E-3,-1.942698224E0,2.214248500E0
5.549956042E0,9.517661291E-1,1.034952785E-1,-1.939576980E0,2.162990731E0
5.559923042E0,8.609855479E-1,1.945289710E-1,-1.792947523E0,1.998449012E0
5.569889042E0,8.632313173E-1,3.214835711E-1,-1.606949347E0,1.852243558E0
5.579856042E0,8.947771919E-1,3.696446013E-1,-1.380160410E0,1.685854713E0
5.589822042E0,9.321368068E-1,3.984615804E-1,-1.202215020E0,1.572568476E0
5.599789042E0,9.273602164E-1,4.240003181E-1,-9.758500063E-1,1.411402308E0
5.609756042E0,9.108064565E-1,4.494801450E-1,-7.567092276E-1,1.266573984E0
5.619722042E0,8.940141302E-1,4.627831453E-1,-6.082308805E-1,1.176169337E0
5.629689042E0,8.683409066E-1,5.064767566E-1,-5.016636211E-1,1.123477202E0
5.639655042E0,8.513521139E-1,6.059058814E-1,-4.778215992E-1,1.149015161E0
5.649622042E0,7.883726312E-1,6.890107495E-1,-5.105630833E-1,1.164878483E0
5.659589042E0,7.210640162E-1,8.028067754E-1,-5.518876952E-1,1.212028078E0
5.669555042E0,6.718304604E-1,8.709021333E-1,-6.026555604E-1,1.254201107E0
5.679522042E0,6.609903073E-1,9.553441134E-1,-6.499115878E-1,1.331155751E0
5.689488042E0,6.260001303E-1,1.081485366E0,-6.652418178E-1,1.415638879E0
5.699454292E0,5.803075022E-1,1.214968090E0,-6.751452470E-1,1.506228854E0
5.709421292E0,5.313649184E-1,1.337086896E0,-6.943732309E-1,1.597593261E0
5.719387292E0,4.811091232E-1,1.406856166E0,-7.339109337E-1,1.658112034E0
5.729354292E0,4.009165339E-1,1.467678757E0,-6.940685910E-1,1.672287717E0
5.739321292E0,3.509048964E-1,1.542790920E0,-6.458091813E-1,1.708920000E0
5.749287292E0,3.217176059E-1,1.599678773E0,-5.747742820E-1,1.729982621E0
5.759254292E0,2.352313661E-1,1.634962627E0,-4.175660419E-1,1.703759955E0
5.769220292E0,1.491870661E-1,1.615853487E0,-2.465987188E-1,1.641356208E0
5.779187292E0,6.130257435E-2,1.547497636E0,-1.987234712E-2,1.548838871E0
5.789154292E0,-5.275628395E-2,1.468543122E0,2.738069826E-1,1.494781720E0
5.799120292E0,-1.492253289E-1,1.384877359E0,5.586640334E-1,1.500752811E0
5.809087292E0,-2.733725711E-1,1.274547855E0,8.104790533E-1,1.534953124E0
5.819053292E0,-4.985257859E-1,1.162410684E0,1.015951381E0,1.622308160E0
5.829020292E0,-7.516503628E-1,1.113188823E0,1.082422528E0,1.725052507E0
5.838987292E0,-9.477207329E-1,1.167582400E0,1.020298786E0,1.817259712E0
5.848953292E0,-9.798945254E-1,1.246277006E0,8.196650290E-1,1.784726987E0
5.858920292E0,-9.473282386E-1,1.254920214E0,6.170461428E-1,1.689083029E0
5.868887292E0,-8.432373480E-1,1.052759896E0,5.334192646E-1,1.450478795E0
5.878853292E0,-6.652558511E-1,5.910681331E-1,7.426150990E-1,1.159053092E0
5.888820292E0,-5.785635701E-1,4.198213130E-2,1.379202052E0,1.496227457E0
5.898786292E0,-5.638205467E-1,-5.444307411E-1,2.285308809E0,2.415974915E0
5.908753292E0,-4.753043729E-1,-1.117973819E0,3.188503652E0,3.412086641E0
5.918720292E0,-3.770320467E-1,-1.666866205E0,3.925990158E0,4.281821439E0
5.928686292E0,-4.048938100E-1,-1.936328121E0,4.461070032E0,4.880005269E0
5.938653292E0,-5.251427135E-1,-1.766406134E0,4.483597600E0,4.847536791E0
5.948619292E0,-6.487447760E-1,-1.431939113E0,4.042164393E0,4.337097231E0
5.958586292E0,-8.022772370E-1,-1.197513201E0,3.113607836E0,3.431069861E0
5.968553292E0,-8.988080431E-1,-1.067519876E0,1.856477521E0,2.322490769E0
5.978519292E0,-9.375756676E-1,-1.004145268E0,5.916090006E-1,1.495779750E0
5.988486292E0,-1.011096876E0,-8.886657552E-1,-6.071713650E-1,1.476719602E0
5.998453292E0,-1.086767375E0,-6.482530982E-1,-1.710637438E0,2.127810107E0
6.008419292E0,-1.137160507E0,-3.293245411E-1,-2.652839642E0,2.905020970E0
6.018386292E0,-1.261090927E0,-5.703081787E-2,-3.507964525E0,3.728192317E0
6.028352292E0,-1.401651267E0,1.207916348E-1,-4.179023153E0,4.409472917E0
6.038319292E0,-1.491378545E0,2.217302182E-1,-4.416138858E0,4.666439399E0
6.048285292E0,-1.378351282E0,3.053069566E-1,-4.213339292E0,4.443567552E0
6.058252292E0,-1.083651905E0,1.315043186E-1,-3.585577542E0,3.748060985E0
6.068219292E0,-7.280849142E-1,-3.803210324E-1,-2.440738910E0,2.575258853E0
6.078185292E0,-4.315816351E-1,-8.573117423E-1,-1.094991118E0,1.456108403E0
6.088152292E0,-2.268399904E-1,-9.574524732E-1,2.708348429E-1,1.020550406E0
6.098119292E0,-1.046225851E-1,-8.014369190E-1,1.544453137E0,1.743153038E0
6.108085292E0,-7.436068598E-2,-6.038441531E-1,2.540221683E0,2.612064983E0
6.118052292E0,-5.916724429E-2,-4.665256557E-1,3.005815585E0,3.042379707E0
6.128018292E0,-1.549130617E-1,-4.653208369E-1,2.925272529E0,2.966098600E0
6.137985292E0,-2.457393242E-1,-5.129760830E-1,2.371513724E0,2.438772155E0
6.147952292E0,-2.707819987E-1,-5.285623480E-1,1.449065754E0,1.566043615E0
6.157918292E0,-2.139525078E-1,-4.007874566E-1,4.532884365E-1,6.417761819E-1
6.167885292E0,-7.735062316E-2,-2.136566752E-1,-5.077277684E-1,5.562551398E-1
6.177851292E0,1.536096442E-2,-1.834885508E-2,-1.397378706E0,1.397583589E0
6.187818292E0,2.165103357E-2,1.390638913E-1,-2.166910878E0,2.171476522E0
6.197785292E0,6.485859510E-2,3.698996861E-1,-2.742030146E0,2.767627456E0
6.207751292E0,1.590800434E-1,5.697195102E-1,-3.075000426E0,3.131375800E0
6.217718292E0,2.629639425E-1,6.787405537E-1,-3.122342992E0,3.206066832E0
6.227685292E0,2.545265017E-1,7.238689256E-1,-2.943618168E0,3.041982557E0
6.237651292E0,1.776977973E-1,7.612452051E-1,-2.539100187E0,2.656708590E0
6.247618292E0,5.032614458E-2,7.597665904E-1,-2.032111507E0,2.170081835E0
6.257584292E0,-7.914400075E-2,7.566197652E-1,-1.507468328E0,1.688549082E0
6.267551292E0,-1.537589675E-1,7.914153761E-1,-9.573786521E-1,1.251620550E0
6.277518292E0,-1.331552616E-1,8.332783704E-1,-4.664130968E-1,9.641702874E-1
6.287484292E0,-1.201665309E-1,8.594553316E-1,-8.794387758E-2,8.722600459E-1
6.297451292E0,-1.006784920E-1,8.228842136E-1,1.600798076E-1,8.443341356E-1
6.307417292E0,-1.262163160E-1,7.705118725E-1,3.061929560E-1,8.386734945E-1
6.317384292E0,-1.044747419E-1,7.893548173E-1,3.982673067E-1,8.902880696E-1
6.327351292E0,3.129864704E-2,8.240855241E-1,4.149096519E-1,9.231720184E-1
6.337317292E0,2.793482427E-1,8.193732530E-1,4.091478056E-1,9.575019035E-1
6.347284292E0,4.906920518E-1,7.574291660E-1,4.318361717E-1,1.000479940E0
6.357250292E0,6.498716075E-1,6.664866900E-1,5.280392414E-1,1.070216359E0
6.367217292E0,7.640062603E-1,6.406003354E-1,6.594635993E-1,1.195393908E0
6.377184292E0,8.321659376E-1,7.779406138E-1,7.674055392E-1,1.373536679E0
6.387150292E0,8.639509633E-1,1.175397935E0,7.444353372E-1,1.637728776E0
6.397117292E0,8.921809550E-1,1.456844743E0,5.925825620E-1,1.808186261E0
6.407084292E0,9.624195367E-1,1.334936729E0,4.587204999E-1,1.708429668E0
6.417050292E0,1.138292089E0,8.573713839E-1,4.832098085E-1,1.504754561E0
6.427017292E0,1.120120624E0,2.239050901E-1,9.278145450E-1,1.471612562E0
6.436983292E0,9.140846980E-1,-2.631513092E-1,1.667003176E0,1.919296495E0
6.446950292E0,7.650665067E-1,-6.764759271E-1,2.585303716E0,2.779701737E0
6.456917292E0,7.324414553E-1,-1.048113771E0,3.512618324E0,3.738114559E0
6.466883292E0,7.316343203E-1,-1.206107731E0,4.309933541E0,4.534921362E0
6.476850292E0,6.514353722E-1,-1.183234373E0,4.662006674E0,4.853732364E0
6.486816292E0,5.990185191E-1,-1.131335584E0,4.389609455E0,4.572462636E0
6.496783292E0,6.140300759E-1,-1.077580303E0,3.613378129E0,3.820302834E0
6.506750292E0,7.520343056E-1,-1.069270605E0,2.505786261E0,2.826280243E0
6.516716292E0,9.504787914E-1,-9.977177889E-1,1.351728909E0,1.930290590E0
6.526683292E0,1.080451724E0,-9.022856015E-1,2.356843060E-1,1.427249918E0
6.536649292E0,1.057392791E0,-8.138145974E-1,-7.759746337E-1,1.543538255E0
6.546616292E0,9.043903068E-1,-6.425452656E-1,-1.634027803E0,1.975052684E0
6.556583292E0,9.756191875E-1,-5.240577261E-1,-2.286588764E0,2.540660834E0
6.566549292E0,1.280799552E0,-5.324084271E-1,-2.670091851E0,3.008869675E0
6.576516292E0,1.478194243E0,-5.142687562E-1,-2.790533969E0,3.199470332E0
6.586483292E0,1.579286462E0,-4.511906017E-1,-2.626840582E0,3.098065547E0
6.596449292E0,1.494128491E0,-4.542016254E-1,-2.182833431E0,2.683930113E0
6.606416292E0,1.209881158E0,-5.627296025E-1,-1.468473832E0,1.984160381E0
6.616382292E0,8.385967053E-1,-6.740294521E-1,-6.602336776E-1,1.262326679E0
6.626349292E0,5.204963698E-1,-7.648690170E-1,4.251276612E-2,9.261470830E-1
6.636316292E0,3.435364911E-1,-8.006585084E-1,5.384420228E-1,1.024202704E0
6.646282292E0,2.482762118E-1,-7.746671963E-1,7.375408852E-1,1.098051410E0
6.656249292E0,2.063460111E-1,-7.735562253E-1,6.652184290E-1,1.040905120E0
6.666215292E0,9.333537586E-2,-8.051376218E-1,3.384064364E-1,8.783376336E-1
6.676182292E0,-8.505140617E-4,-7.269530395E-1,-1.528865629E-1,7.428564775E-1
6.686149292E0,-9.964795679E-2,-5.380104983E-1,-6.741611606E-1,8.682616437E-1
6.696116333E0,-1.195222043E-1,-3.454609559E-1,-1.175015527E0,1.230565040E0
6.706083333E0,-8.569291882E-2,-1.815272485E-1,-1.685237133E0,1.697150439E0
6.716049333E0,-7.125928625E-2,-4.073287368E-2,-2.129479342E0,2.131060609E0
6.726016333E0,-9.730461203E-2,8.826021194E-2,-2.460515363E0,2.464019867E0
6.735983333E0,-1.454250041E-1,2.291421488E-1,-2.680137368E0,2.693843141E0
6.745949333E0,-2.201308586E-1,3.818721525E-1,-2.737522527E0,2.772780828E0
6.755916333E0,-2.958950590E-1,5.166305928E-1,-2.570254152E0,2.638307689E0
6.765883333E0,-3.278500926E-1,5.929083981E-1,-2.288741709E0,2.386915303E0
6.775849333E0,-2.988920494E-1,6.819633928E-1,-1.878981115E0,2.021133483E0
6.785816333E0,-2.467538892E-1,7.759136765E-1,-1.428080682E0,1.643880759E0
6.795782333E0,-2.650924386E-1,7.658026712E-1,-9.642280805E-1,1.259548936E0
6.805749333E0,-2.910673785E-1,7.503864871E-1,-5.416550678E-1,9.701496335E-1
6.815716333E0,-3.730842260E-1,7.729755968E-1,-2.060868698E-1,8.826975194E-1
6.825682333E0,-4.435949955E-1,8.152350323E-1,1.164139706E-1,9.353806126E-1
6.835649333E0,-4.191515145E-1,8.829171382E-1,3.819073820E-1,1.049325456E0
6.845615333E0,-3.969097294E-1,9.877930905E-1,5.438121057E-1,1.195409607E0
6.855582333E0,-4.299049095E-1,1.061910350E0,6.188850921E-1,1.302110049E0
6.865549333E0,-4.587664005E-1,1.114876622E0,6.498460990E-1,1.369567977E0
6.875515333E0,-5.089010853E-1,1.149155631E0,6.777735704E-1,1.427906157E0
6.885482333E0,-5.601840171E-1,1.155121691E0,7.373034883E-1,1.480448813E0
6.895448333E0,-6.537774014E-1,1.107519947E0,8.054668200E-1,1.517498640E0
6.905415333E0,-7.418029207E-1,1.030329976E0,8.950040638E-1,1.553345972E0
6.915382333E0,-8.753642166E-1,9.258767778E-1,9.945002854E-1,1.616335713E0
6.925348333E0,-9.579578188E-1,9.289855962E-1,1.083608344E0,1.718983555E0
6.935315333E0,-8.717047367E-1,1.118397669E0,1.057522745E0,1.768908378E0
6.945281333E0,-4.922114508E-1,1.181457112E0,9.853055388E-1,1.615221355E0
6.955248333E0,4.335666552E-2,8.410589679E-1,1.057302305E0,1.351720442E0
6.965215333E0,3.426870368E-1,2.864549486E-1,1.427076130E0,1.495338464E0
6.975181333E0,2.088409450E-1,-2.764177644E-1,2.157817873E0,2.185451737E0
6.985148333E0,4.549031451E-2,-8.787517279E-1,3.095189107E0,3.217836164E0
6.995115333E0,7.882572949E-2,-1.457881601E0,4.005436862E0,4.263233129E0
7.005081333E0,1.196738299E-1,-1.794478763E0,4.690307783E0,5.023292043E0
7.015048333E0,-1.013941547E-1,-1.870440087E0,4.902767533E0,5.248424180E0
7.025014333E0,-3.528458797E-1,-1.714163893E0,4.555041804E0,4.879678668E0
7.034981333E0,-5.950785556E-1,-1.504110565E0,3.646349409E0,3.989026333E0
7.044948333E0,-7.216143123E-1,-1.540813099E0,2.407161859E0,2.947755152E0
7.054914333E0,-6.009817949E-1,-1.715009108E0,1.218724633E0,2.188087085E0
7.064881333E0,-5.927533738E-1,-1.551180943E0,1.175208485E-1,1.664731219E0
7.074847333E0,-6.950690496E-1,-1.300545892E0,-9.057109004E-1,1.730564311E0
7.084814333E0,-7.859890138E-1,-1.035132733E0,-1.739381180E0,2.171341842E0
7.094781333E0,-8.855899005E-1,-8.207558271E-1,-2.520761565E0,2.795022087E0
7.104747333E0,-1.078122486E0,-6.377745223E-1,-3.235604728E0,3.469617039E0
7.114714333E0,-1.194637467E0,-4.822358085E-1,-3.616054400E0,3.838692417E0
7.124680333E0,-1.013206990E0,-3.649970882E-1,-3.424417754E0,3.589769941E0
7.134647333E0,-5.793869311E-1,-4.780870628E-1,-2.826938733E0,2.925036591E0
7.144614333E0,-1.815681790E-1,-8.583139551E-1,-1.902222628E0,2.094784184E0
7.154580333E0,-2.757451884E-2,-1.132764131E0,-7.892367035E-1,1.380872733E0
7.164547333E0,7.875051968E-2,-1.089833728E0,1.955724066E-1,1.110039533E0
7.174514333E0,2.112995895E-1,-8.977962555E-1,9.579060709E-1,1.329763014E0
7.184480333E0,3.417772101E-1,-7.527236192E-1,1.410066580E0,1.634531207E0
7.194447333E0,4.058888599E-1,-7.231693062E-1,1.392950025E0,1.621119793E0
7.204413333E0,3.474884780E-1,-7.282992147E-1,9.173883748E-1,1.221789433E0
7.214380333E0,3.544031028E-1,-7.216712496E-1,2.334717196E-1,8.372096485E-1
7.224347333E0,5.009317689E-1,-7.138315952E-1,-5.707554907E-1,1.042233186E0
7.234313333E0,7.122068001E-1,-7.328240825E-1,-1.341678715E0,1.686526441E0
7.244280333E0,8.675741905E-1,-6.316625740E-1,-1.999706823E0,2.269473498E0
7.254246333E0,8.773445955E-1,-4.481247604E-1,-2.555907424E0,2.739199171E0
7.264213333E0,7.081995571E-1,-2.063507254E-1,-2.929614671E0,3.021054345E0
7.274180333E0,5.517156774E-1,6.247530654E-2,-2.971115284E0,3.022551800E0
7.284146333E0,5.029715336E-1,2.589591479E-1,-2.750870551E0,2.808438889E0
7.294113333E0,5.655533691E-1,3.712724662E-1,-2.280922812E0,2.379139074E0
7.304079333E0,5.625811563E-1,4.383170794E-1,-1.783684949E0,1.920976683E0
7.314046333E0,4.395587356E-1,4.798007356E-1,-1.296008452E0,1.450192586E0
7.324013333E0,2.378695932E-1,5.165456620E-1,-8.219974834E-1,9.995405079E-1
7.333979333E0,1.186896704E-1,5.733094083E-1,-3.798374677E-1,6.978878257E-1
7.343946333E0,3.931623951E-2,6.400411955E-1,2.372741640E-2,6.416864412E-1
7.353912333E0,-4.960708324E-2,6.527001250E-1,3.481619310E-1,7.414142203E-1
7.363879333E0,-1.373939996E-1,7.035543828E-1,5.444599771E-1,9.001680662E-1
7.373846333E0,-1.785144341E-1,8.330580765E-1,6.944802350E-1,1.099161480E0
7.383812333E0,-1.848672146E-1,1.003175361E0,7.715898067E-1,1.279018186E0
7.393779333E0,-1.903747801E-1,1.120188379E0,8.296836483E-1,1.406925555E0
7.403746333E0,-2.380425246E-1,1.130123675E0,9.247810096E-1,1.479548472E0
7.413712333E0,-2.892444725E-1,1.092363233E0,1.052209380E0,1.544041573E0
7.423679333E0,-2.971396389E-1,1.022363145E0,1.189129536E0,1.596103825E0
7.433645333E0,-2.611525482E-1,9.876039331E-1,1.313585767E0,1.664052208E0
7.443612333E0,-2.091647711E-1,9.842784753E-1,1.459450994E0,1.772724237E0
7.453579333E0,-1.069815347E-1,9.368960018E-1,1.590422777E0,1.848962892E0
7.463545333E0,-5.554518655E-2,8.153240561E-1,1.679979317E0,1.868199424E0
7.473512333E0,-4.925285161E-2,7.204830953E-1,1.709676155E0,1.855940271E0
7.483478333E0,-3.810864329E-2,6.439012349E-1,1.648072230E0,1.769803137E0
7.493445333E0,-4.870467514E-2,6.011563343E-1,1.497236871E0,1.614149724E0
7.503412333E0,-1.285906510E-1,6.685954884E-1,1.266932588E0,1.438288450E0
7.513378333E0,-1.504887660E-1,1.016748064E0,8.427229393E-1,1.329137106E0
7.523345333E0,3.706959307E-2,1.271950376E0,2.668856335E-1,1.300176855E0
7.533311333E0,2.421808550E-1,1.141160733E0,-2.546433181E-1,1.194044641E0
7.543278333E0,2.973824445E-1,1.008706827E0,-6.463868862E-1,1.234399363E0
7.553245333E0,2.139466240E-1,9.664890526E-1,-9.210867387E-1,1.352137207E0
7.563211333E0,7.325099409E-2,8.041468111E-1,-1.014818190E0,1.296870757E0
7.573178333E0,-1.753382631E-2,4.661739457E-1,-9.208598667E-1,1.032283138E0
7.583145333E0,1.402681254E-2,1.155912673E-1,-7.372245508E-1,7.463632701E-1
7.593111333E0,2.143017693E-1,-2.208597140E-1,-4.271127909E-1,5.264310000E-1
7.603078333E0,5.018974366E-1,-5.602664629E-1,1.732120693E-2,7.523958868E-1
7.613044333E0,8.307469645E-1,-9.133301148E-1,5.545259589E-1,1.353444294E0
7.623011333E0,1.087338575E0,-1.164838302E0,1.059154118E0,1.913363764E0
7.632978333E0,1.252542882E0,-1.217860854E0,1.517217391E0,2.313870641E0
7.642944333E0,1.334438692E0,-1.165482373E0,1.855810938E0,2.565757203E0
7.652911333E0,1.314497640E0,-1.136507811E0,2.047911853E0,2.685795415E0
7.662877333E0,1.237006976E0,-1.140475586E0,2.039175528E0,2.643692050E0
7.672844333E0,1.201875808E0,-1.156029472E0,1.838749933E0,2.482319664E0
7.682811333E0,1.211991345E0,-1.283681498E0,1.470424463E0,2.297587716E0
7.692777333E0,1.193370375E0,-1.361884938E0,1.047686559E0,2.092011129E0
7.702743792E0,1.106860089E0,-1.316751450E0,5.561415446E-1,1.807834908E0
7.712709792E0,9.228246774E-1,-1.191908864E0,9.768533885E-2,1.510561005E0
7.722676792E0,6.952058744E-1,-1.041345400E0,-2.164902359E-1,1.270661037E0
7.732643792E0,4.294845678E-1,-9.239109439E-1,-4.653839868E-1,1.120111906E0
7.742609792E0,1.390621006E-1,-8.407302082E-1,-6.384668326E-1,1.064803009E0
7.752576792E0,-1.312273433E-1,-7.610173099E-1,-7.722294921E-1,1.092110960E0
7.762542792E0,-3.160799398E-1,-6.628190240E-1,-9.045192379E-1,1.165071087E0
7.772509792E0,-4.172043917E-1,-5.736678426E-1,-1.118199887E0,1.324207418E0
7.782476792E0,-4.654888713E-1,-4.529585074E-1,-1.370272184E0,1.516409297E0
7.792442792E0,-4.904533392E-1,-3.354382436E-1,-1.679475287E0,1.781488291E0
7.802409792E0,-5.090685350E-1,-2.513239999E-1,-1.976241361E0,2.056172280E0
7.812375792E0,-4.939667849E-1,-1.101328915E-1,-2.256156930E0,2.312223288E0
7.822342792E0,-4.823280483E-1,3.972890675E-2,-2.493464423E0,2.539996764E0
7.832309792E0,-4.638824949E-1,1.998970073E-1,-2.649224308E0,2.696949243E0
7.842275792E0,-3.329274492E-1,3.612838139E-1,-2.630396858E0,2.675883838E0
7.852242792E0,-1.526857842E-1,5.047613297E-1,-2.401545609E0,2.458763563E0
7.862209792E0,-1.424206316E-2,5.620042554E-1,-2.020018880E0,2.096789903E0
7.872175792E0,7.221238241E-3,5.677704871E-1,-1.630244654E0,1.726300410E0
7.882142792E0,-1.177326639E-1,5.573947491E-1,-1.291609007E0,1.411666998E0
7.892108792E0,-2.766788426E-1,5.166072039E-1,-9.408596832E-1,1.108445366E0
7.902075792E0,-4.014771357E-1,5.202674147E-1,-5.850507635E-1,8.798559366E-1
7.912042792E0,-5.444911136E-1,5.889366768E-1,-2.004402137E-1,8.267365126E-1
7.922008792E0,-5.828046287E-1,6.769818574E-1,7.478004098E-2,8.964138135E-1
7.931975792E0,-6.352948643E-1,7.234318462E-1,1.983363855E-1,9.830007744E-1
7.941941792E0,-7.298186868E-1,7.245999737E-1,1.814946502E-1,1.044327892E0
7.951908792E0,-8.810814779E-1,7.175533479E-1,1.190838093E-1,1.142527169E0
7.961875792E0,-9.681314624E-1,7.721290661E-1,7.488178253E-2,1.240592239E0
7.971841792E0,-9.882098508E-1,7.868802756E-1,6.070696235E-2,1.264683602E0
7.981808792E0,-1.019328440E0,7.287753242E-1,1.246240461E-1,1.259235917E0
7.991774792E0,-1.037727435E0,6.276548924E-1,3.078407013E-1,1.251237304E0
8.001741792E0,-9.551017463E-1,4.650485028E-1,6.198639160E-1,1.229927124E0
8.011708792E0,-8.967248994E-1,3.578417042E-1,9.262872523E-1,1.337973955E0
8.021674792E0,-9.115581892E-1,3.763925806E-1,1.171522400E0,1.531363589E0
8.031641792E0,-8.727806975E-1,4.510134311E-1,1.351275750E0,1.670660173E0
8.041608792E0,-8.417096168E-1,4.461975181E-1,1.492811698E0,1.770890756E0
8.051574792E0,-8.126313403E-1,3.059441569E-1,1.731229577E0,1.936782737E0
8.061541792E0,-8.209404530E-1,7.742766023E-2,2.107199112E0,2.262791719E0
8.071507792E0,-8.571645387E-1,-2.055879562E-1,2.567524087E0,2.714622882E0
8.081474792E0,-8.522567513E-1,-4.994375861E-1,3.090058175E0,3.244108352E0
8.091441792E0,-7.945488989E-1,-8.517125948E-1,3.665159317E0,3.845791871E0
8.101407792E0,-7.295605322E-1,-1.254857210E0,4.145802197E0,4.392562014E0
8.111374792E0,-6.059443268E-1,-1.517778285E0,4.369673958E0,4.665283480E0
8.121340792E0,-5.820359391E-1,-1.498547232E0,4.233352557E0,4.528320165E0
8.131307792E0,-6.511179415E-1,-1.427815364E0,3.665694337E0,3.987471161E0
8.141274792E0,-7.165838796E-1,-1.452801394E0,2.719235945E0,3.165180638E0
8.151240792E0,-8.429444756E-1,-1.542343169E0,1.562853155E0,2.351996561E0
8.161207792E0,-1.017281549E0,-1.538506372E0,3.520158309E-1,1.877705715E0
8.171173792E0,-1.090582976E0,-1.438768807E0,-7.343097138E-1,1.949009405E0
8.181140792E0,-1.065723465E0,-1.293259091E0,-1.674251384E0,2.368840070E0
8.191107792E0,-1.025578456E0,-1.130453019E0,-2.412143102E0,2.854499876E0
8.201073792E0,-9.608176189E-1,-9.941061831E-1,-2.892948536E0,3.206332614E0
8.211040792E0,-8.355732563E-1,-9.529011467E-1,-2.983119618E0,3.241173540E0
8.221006792E0,-7.123383625E-1,-9.486686397E-1,-2.681993859E0,2.932659065E0
8.230973792E0,-6.096801860E-1,-9.878508317E-1,-2.033280365E0,2.341321900E0
8.240940792E0,-3.989822750E-1,-1.125374420E0,-1.220810920E0,1.707639817E0
8.250906792E0,-5.853735298E-2,-1.265881551E0,-5.047106051E-1,1.364043810E0
8.260873792E0,1.752101360E-1,-1.335326300E0,5.785001278E-2,1.348013925E0
8.270839792E0,2.505063399E-1,-1.373458624E0,4.711838400E-1,1.473484384E0
8.280806792E0,2.646878844E-1,-1.423817330E0,7.272281510E-1,1.620548133E0
8.290773792E0,2.635190260E-1,-1.440060165E0,8.011276013E-1,1.668838215E0
8.300739792E0,2.873362702E-1,-1.428974282E0,6.810012335E-1,1.608817053E0
8.310706792E0,2.838926987E-1,-1.381976117E0,3.766296852E-1,1.460240724E0
8.320673792E0,3.215727411E-1,-1.310335446E0,-2.674282551E-2,1.349482563E0
8.330639792E0,3.630149551E-1,-1.140162906E0,-5.129452389E-1,1.301869474E0
8.340606792E0,3.983361576E-1,-9.247731158E-1,-1.058232597E0,1.460730379E0
8.350572792E0,3.851305135E-1,-7.368731332E-1,-1.584090242E0,1.789035892E0
8.360539792E0,3.665193377E-1,-5.437767300E-1,-2.028379814E0,2.131749100E0
8.370506792E0,3.378068045E-1,-3.654246658E-1,-2.342855936E0,2.395124748E0
8.380472792E0,3.347892758E-1,-2.032711431E-1,-2.515748747E0,2.546054747E0
8.390439792E0,3.230417079E-1,-4.301796556E-2,-2.521301263E0,2.542275860E0
8.400405792E0,3.245212727E-1,5.510883808E-2,-2.317078485E0,2.340342656E0
8.410372792E0,3.666578436E-1,1.446422812E-1,-2.032153022E0,2.070025427E0
8.420339792E0,3.685790194E-1,2.140645185E-1,-1.756214145E0,1.807197342E0
8.430305792E0,3.617038632E-1,2.870021018E-1,-1.445622329E0,1.517571681E0
8.440272792E0,3.423450113E-1,4.163901669E-1,-1.140495905E0,1.261472071E0
8.450238792E0,3.513189159E-1,5.377988291E-1,-8.652885139E-1,1.077671923E0
8.460205792E0,3.767351543E-1,6.295714635E-1,-6.086670828E-1,9.532917821E-1
8.470172792E0,4.239552214E-1,7.199635702E-1,-4.241845053E-1,9.370261826E-1
8.480138792E0,4.892913513E-1,8.129638276E-1,-2.959527272E-1,9.939337141E-1
8.490105792E0,5.281287769E-1,8.864574811E-1,-1.931212538E-1,1.049772685E0
8.500071792E0,5.445439578E-1,9.085801291E-1,-6.744821727E-2,1.061411906E0
8.510038792E0,5.014523904E-1,9.545787129E-1,7.989693940E-2,1.081230105E0
8.520005792E0,4.312393172E-1,9.729562193E-1,2.467601019E-1,1.092475035E0
8.529971792E0,2.778167108E-1,9.000446561E-1,5.001334047E-1,1.066487661E0
8.539938792E0,3.254867211E-2,7.553841023E-1,8.623888797E-1,1.146899794E0
8.549905792E0,-2.059764306E-1,5.614785907E-1,1.290817879E0,1.422636740E0
8.559871792E0,-3.143439015E-1,3.330442473E-1,1.644370358E0,1.706951796E0
8.569838792E0,-3.468418490E-1,1.474115226E-1,1.911755928E0,1.948548217E0
8.579804792E0,-3.702746388E-1,6.303371564E-2,2.190630693E0,2.222597442E0
8.589771792E0,-4.013495202E-1,1.035872260E-1,2.408571038E0,2.443977536E0
8.599738792E0,-4.547155957E-1,1.810435376E-1,2.454657038E0,2.502975072E0
8.609704792E0,-4.587699088E-1,1.899399300E-1,2.342254257E0,2.394306165E0
8.619671792E0,-4.163756950E-1,7.235154614E-2,2.065554657E0,2.108345206E0
8.629637792E0,-4.121623376E-1,-8.417607799E-2,1.701656699E0,1.752883033E0
8.639604792E0,-3.952149139E-1,-6.643328682E-2,1.365590318E0,1.423181340E0
8.649571792E0,-3.319853166E-1,1.037768219E-1,1.033149211E0,1.090128970E0
8.659537792E0,-2.355143713E-1,1.450296593E-1,6.937364691E-1,7.468406187E-1
8.669504792E0,-1.635267778E-1,-2.810449585E-2,4.780028629E-1,5.059818245E-1
8.679470792E0,-1.686600850E-1,-2.861602490E-1,4.838968563E-1,5.869327729E-1
8.689437792E0,-3.005013493E-1,-4.472348142E-1,6.726882470E-1,8.618755813E-1
8.699404917E0,-4.773750912E-1,-6.031802018E-1,9.785870880E-1,1.244727288E0
8.709370917E0,-5.530562612E-1,-8.592027318E-1,1.270589436E0,1.630490134E0
8.719337917E0,-4.716837770E-1,-1.134968532E0,1.533862075E0,1.965546239E0
8.729303917E0,-2.473270626E-1,-1.298820524E0,1.614357769E0,2.086685515E0
8.739270917E0,1.350524090E-2,-1.410071988E0,1.525612823E0,2.077493656E0
8.749237917E0,1.919314916E-1,-1.469269638E0,1.362486032E0,2.012947876E0
8.759203917E0,3.812458427E-1,-1.468722631E0,1.092640538E0,1.869855049E0
8.769170917E0,4.980041412E-1,-1.523345273E0,7.435734576E-1,1.766774019E0
8.779137917E0,5.259214896E-1,-1.565209875E0,2.507654446E-1,1.670137322E0
8.789103917E0,5.522081226E-1,-1.482748055E0,-2.965959209E-1,1.609796492E0
8.799070917E0,5.031594850E-1,-1.396154884E0,-8.604791790E-1,1.715471464E0
8.809036917E0,4.368294746E-1,-1.330335116E0,-1.348624622E0,1.944067870E0
8.819003917E0,3.435613052E-1,-1.238644635E0,-1.709190837E0,2.138599593E0
8.828970917E0,1.205722180E-1,-1.086676962E0,-1.851165910E0,2.149934815E0
8.838936917E0,-3.195404317E-1,-8.877695963E-1,-1.691332855E0,1.936710554E0
8.848903917E0,-6.037122984E-1,-1.357974905E0,-1.638793284E0,2.212285652E0
8.858869917E0,-7.988882639E-1,-1.221043639E0,-1.238437936E0,1.913870045E0
8.868836917E0,-1.066757691E0,-1.137464708E0,-7.816780078E-1,1.744367634E0
8.878803917E0,-1.372680067E0,-1.162144344E0,-3.083815688E-1,1.824809369E0
8.888769917E0,-1.619604768E0,-1.282649611E0,8.914138734E-2,2.067910979E0
8.898736917E0,-1.755772388E0,-1.286191854E0,3.757093334E-1,2.208661057E0
8.908702917E0,-1.822610594E0,-1.191958419E0,4.563897997E-1,2.225076605E0
8.918669917E0,-1.931383131E0,-1.156113525E0,3.619981974E-1,2.279886396E0
8.928636917E0,-2.075084449E0,-1.145113159E0,1.739113963E-1,2.376447936E0
8.938602917E0,-2.248119055E0,-1.170269050E0,-6.242370486E-2,2.535244693E0
8.948569917E0,-2.356167268E0,-1.192122726E0,-2.790846795E-1,2.655290765E0
8.958535917E0,-2.333603155E0,-1.137236082E0,-4.365385026E-1,2.632408680E0
8.968502917E0,-2.225769097E0,-1.024915455E0,-5.516830426E-1,2.511743208E0
8.978469917E0,-2.082407940E0,-9.701600808E-1,-5.924241024E-1,2.372467013E0
8.988435917E0,-2.049747148E0,-9.692403138E-1,-5.779399645E-1,2.339851440E0
8.998402917E0,-1.951992081E0,-9.390312588E-1,-4.949054092E-1,2.221932527E0
9.008368917E0,-1.865665543E0,-9.875713348E-1,-3.858425581E-1,2.145898306E0
9.018335917E0,-1.786995350E0,-1.007805040E0,-2.367128313E-1,2.065201284E0
9.028302917E0,-1.640922547E0,-9.752588528E-1,-1.367950255E-1,1.913757956E0
9.038268917E0,-1.487918748E0,-9.821416104E-1,-7.298494577E-2,1.784329326E0
9.048235917E0,-1.442979095E0,-1.049879557E0,-3.193690717E-2,1.784784502E0
9.058201917E0,-1.432215686E0,-1.125856523E0,-4.672393084E-2,1.822355017E0
9.068168917E0,-1.411401937E0,-1.202739515E0,-8.251006007E-3,1.854374787E0
9.078135917E0,-1.378782075E0,-1.272250630E0,8.397010982E-2,1.877954381E0
9.088101917E0,-1.366714007E0,-1.314779184E0,1.816548640E-1,1.905137782E0
9.098068917E0,-1.396126379E0,-1.315342563E0,3.239328235E-1,1.945309075E0
9.108035917E0,-1.439485237E0,-1.345894265E0,4.699857455E-1,2.025940700E0
9.118001917E0,-1.423480969E0,-1.495166956E0,5.739141566E-1,2.142708509E0
9.127968917E0,-1.368340849E0,-1.660731160E0,6.484702492E-1,2.247420372E0
9.137934917E0,-1.324470213E0,-1.863523708E0,6.751633734E-1,2.383859798E0
9.147901917E0,-1.294818251E0,-2.043982817E0,6.769689935E-1,2.512510115E0
9.157868917E0,-1.299632556E0,-2.207851912E0,7.406206137E-1,2.666865903E0
9.167834917E0,-1.307107345E0,-2.349638706E0,8.960659182E-1,2.834125224E0
9.177801917E0,-1.389557032E0,-2.449484299E0,1.115901931E0,3.029204383E0
9.187767917E0,-1.521095265E0,-2.523762356E0,1.347526515E0,3.240206003E0
9.197734917E0,-1.675438661E0,-2.652949569E0,1.593263939E0,3.519051876E0
9.207701917E0,-1.771406234E0,-2.798230074E0,1.817395901E0,3.777684404E0
9.217667917E0,-1.789704657E0,-2.959516747E0,1.911482279E0,3.951651128E0
9.227634917E0,-1.837466469E0,-3.176994870E0,1.853776692E0,4.111698852E0
9.237600917E0,-1.913786082E0,-3.328089554E0,1.673802318E0,4.188122663E0
9.247567917E0,-1.979382778E0,-3.380698415E0,1.429665862E0,4.170254480E0
9.257534917E0,-2.044318154E0,-3.374982177E0,1.226213163E0,4.131989851E0
9.267500917E0,-2.098458986E0,-3.358124654E0,1.150554870E0,4.123627992E0
9.277467917E0,-2.081718115E0,-3.390310360E0,1.149664924E0,4.141193558E0
9.287433917E0,-1.954983078E0,-3.440861878E0,1.159889365E0,4.123934122E0
9.297400917E0,-1.765252771E0,-3.470994042E0,1.101011412E0,4.046744755E0
9.307367917E0,-1.636377945E0,-3.459871469E0,9.530563903E-1,3.944205857E0
9.317333917E0,-1.562672622E0,-3.460195989E0,7.106776071E-1,3.862637010E0
9.327300917E0,-1.483682732E0,-3.437359104E0,3.546125793E-1,3.760651824E0
9.337266917E0,-1.417115983E0,-3.385368878E0,-1.397075236E-2,3.670032061E0
9.347233917E0,-1.433344345E0,-3.348029729E0,-3.173085129E-1,3.655743942E0
9.357200917E0,-1.533777144E0,-3.324211680E0,-5.436004364E-1,3.701129160E0
9.367166917E0,-1.603013879E0,-3.254392417E0,-6.042249531E-1,3.677745409E0
9.377133917E0,-1.676135942E0,-3.188832266E0,-5.265218890E-1,3.640784011E0
9.387100917E0,-1.775278699E0,-3.213541430E0,-3.408324462E-1,3.687089602E0
9.397066917E0,-1.867722740E0,-3.275356147E0,-9.210300207E-2,3.771581775E0
9.407033917E0,-1.927975958E0,-3.318292836E0,1.877880085E-1,3.842320000E0
9.416999917E0,-1.975799897E0,-3.358008294E0,4.427125776E-1,3.921224217E0
9.426966917E0,-1.983338127E0,-3.423391567E0,6.835588056E-1,4.015033324E0
9.436933917E0,-1.923119700E0,-3.456137145E0,8.378744280E-1,4.042932957E0
9.446899917E0,-1.806481781E0,-3.455786896E0,1.000223540E0,4.025703246E0
9.456866917E0,-1.681300495E0,-3.403346143E0,1.078411923E0,3.946201794E0
9.466832917E0,-1.523998992E0,-3.348048440E0,1.089545022E0,3.836549183E0
9.476799917E0,-1.348601233E0,-3.241244368E0,1.062423881E0,3.667851530E0
9.486766917E0,-1.195193099E0,-3.036745017E0,1.023144625E0,3.420106982E0
9.496732917E0,-1.067684475E0,-2.832697071E0,9.122276223E-1,3.161689749E0
9.506699917E0,-1.006095460E0,-2.628511131E0,7.475864017E-1,2.912075595E0
9.516665917E0,-9.398184402E-1,-2.435321319E0,5.948144442E-1,2.677284604E0
9.526632917E0,-9.096500234E-1,-2.224912772E0,4.308561784E-1,2.441994483E0
9.536599917E0,-9.423695804E-1,-1.984080431E0,2.577762562E-1,2.211579567E0
9.546565917E0,-1.046793981E0,-1.754362039E0,1.563346660E-1,2.048903202E0
9.556532917E0,-1.144100421E0,-1.571616377E0,1.467265213E-1,1.949480054E0
9.566498917E0,-1.243319192E0,-1.465277452E0,1.915167779E-1,1.931206695E0
9.576465917E0,-1.333619936E0,-1.319192662E0,2.170743728E-1,1.888367734E0
9.586432917E0,-1.384246737E0,-1.159492924E0,2.510472804E-1,1.823070927E0
9.596398917E0,-1.331909772E0,-9.552808173E-1,3.067232984E-1,1.667520393E0
9.606365917E0,-1.291199263E0,-8.092604935E-1,3.809507775E-1,1.570739182E0
9.616331917E0,-1.243537732E0,-6.845943475E-1,4.721106237E-1,1.495975919E0
9.626298917E0,-1.196100294E0,-5.804599683E-1,5.687879026E-1,1.446066861E0
9.636265917E0,-1.142568596E0,-4.990914309E-1,6.695810366E-1,1.415236383E0
9.646231917E0,-1.060831684E0,-4.543711947E-1,7.812412208E-1,1.393612174E0
9.656198917E0,-9.876514417E-1,-3.856728427E-1,8.307285458E-1,1.346962816E0
9.666164917E0,-9.184182157E-1,-3.175029328E-1,8.793118912E-1,1.310530249E0
9.676131917E0,-8.094467273E-1,-2.480011734E-1,8.780184871E-1,1.219682356E0
9.686098917E0,-6.890205435E-1,-1.300074314E-1,8.968944687E-1,1.138451110E0
9.696064917E0,-5.593211143E-1,-1.570372090E-2,8.458547080E-1,1.014177944E0
9.706031542E0,-4.298550620E-1,4.003690884E-2,7.238841283E-1,8.428443271E-1
9.715997542E0,-3.881978166E-1,8.482102588E-2,5.682616532E-1,6.934071371E-1
9.725964542E0,-3.779564915E-1,1.650848781E-1,4.404035121E-1,6.033733338E-1
9.735931542E0,-3.611390953E-1,2.274422170E-1,3.042089957E-1,5.241130806E-1
9.745897542E0,-3.159575868E-1,2.448363680E-1,1.919494718E-1,4.434170086E-1
9.755864542E0,-2.783588208E-1,2.803402229E-1,2.667148948E-2,3.959616673E-1
9.765831542E0,-2.900183880E-1,2.865026034E-1,-1.271178836E-1,4.270285277E-1
9.775797542E0,-3.163110510E-1,2.525380281E-1,-2.005472177E-1,4.517159762E-1
9.785764542E0,-2.945180397E-1,2.555113372E-1,-2.038912404E-1,4.399983603E-1
9.795730542E0,-2.749188307E-1,3.049884295E-1,-1.276879871E-1,4.300029391E-1
9.805697542E0,-2.576884749E-1,4.097272646E-1,-6.814579010E-2,4.887981487E-1
9.815664542E0,-2.397741410E-1,4.933272457E-1,-2.702875435E-2,5.491757129E-1
9.825630542E0,-2.044284533E-1,4.837278718E-1,-1.303929090E-2,5.253129254E-1
9.835597542E0,-9.958239488E-2,4.641056393E-1,2.521319389E-3,4.746757365E-1
9.845563542E0,4.705948792E-2,4.482159770E-1,7.524197102E-3,4.507424663E-1
9.855530542E0,1.500416002E-1,3.918217747E-1,5.203144848E-2,4.227813342E-1
9.865497542E0,2.254800376E-1,2.810031509E-1,1.239422607E-1,3.810061708E-1
9.875463542E0,3.743050515E-1,1.799463075E-1,2.264474595E-1,4.730363591E-1
9.885430542E0,5.695270637E-1,1.224914204E-1,3.064122266E-1,6.582200825E-1
9.895396542E0,7.027339453E-1,1.077536595E-1,3.615719354E-1,7.976089979E-1
9.905363542E0,8.165608153E-1,1.586001697E-1,3.762759286E-1,9.129672247E-1
9.915330542E0,9.788945054E-1,1.727476542E-1,3.435519862E-1,1.051714872E0
9.925296542E0,1.131195835E0,5.299653143E-2,3.374843305E-1,1.181654909E0
9.935263542E0,1.229161329E0,-1.780230121E-1,4.311421072E-1,1.314691326E0
9.945229542E0,1.319413395E0,-3.457461539E-1,5.971188319E-1,1.488940230E0
9.955196542E0,1.404032545E0,-4.785121554E-1,8.273342371E-1,1.698459070E0
9.965163542E0,1.532833258E0,-6.626076472E-1,1.097086176E0,1.998055246E0
9.975129542E0,1.620389757E0,-8.603482014E-1,1.396609213E0,2.305727496E0
9.985096542E0,1.565635114E0,-1.012431065E0,1.683940805E0,2.512346832E0
9.995062542E0,1.513495785E0,-1.087346615E0,1.892960054E0,2.656367805E0
1.000502954E1,1.465869482E0,-1.142895310E0,1.981493331E0,2.716854587E0
1.001499654E1,1.429151014E0,-1.220558613E0,1.958988567E0,2.714750846E0
1.002496254E1,1.434203301E0,-1.279043925E0,1.832405704E0,2.655297184E0
1.003492954E1,1.471637176E0,-1.232632674E0,1.560261084E0,2.473765134E0
1.004489554E1,1.586572970E0,-1.127366128E0,1.223233421E0,2.298797116E0
1.005486254E1,1.804060156E0,-9.706040306E-1,8.686120713E-1,2.225127449E0
1.006482954E1,1.996871800E0,-8.542222197E-1,4.896060777E-1,2.226411170E0
1.007479554E1,2.053934339E0,-7.705536801E-1,1.204105425E-1,2.197020242E0
1.008476254E1,1.938712177E0,-6.712338983E-1,-1.788031769E-1,2.059400502E0
1.009472854E1,1.776087077E0,-5.846725948E-1,-4.651723176E-1,1.926840064E0
1.010469554E1,1.689708791E0,-5.147689855E-1,-7.124534065E-1,1.904650300E0
1.011466254E1,1.644299314E0,-4.718553928E-1,-9.223935914E-1,1.943496253E0
1.012462854E1,1.564070838E0,-3.696957645E-1,-1.152040063E0,1.977419745E0
1.013459554E1,1.438740740E0,-2.301066470E-1,-1.392924882E0,2.015729078E0
1.014456154E1,1.347094991E0,-6.961943462E-2,-1.584888972E0,2.081197932E0
1.015452854E1,1.242750550E0,7.710547864E-2,-1.717141296E0,2.121072468E0
1.016449554E1,1.199968227E0,1.334116803E-1,-1.752207048E0,2.127898485E0
1.017446154E1,1.149241804E0,1.524230249E-1,-1.664559039E0,2.028483744E0
1.018442854E1,1.063220272E0,1.916980416E-1,-1.443894476E0,1.803334895E0
1.019439454E1,9.774221765E-1,2.518272990E-1,-1.136868877E0,1.520276930E0
1.020436154E1,8.814265367E-1,2.357443862E-1,-7.759863281E-1,1.197765810E0
1.021432854E1,7.281546423E-1,1.466395439E-1,-3.521590877E-1,8.220269837E-1
1.022429454E1,5.338793673E-1,5.214006051E-2,4.403479636E-2,5.382237714E-1
1.023426154E1,3.029682165E-1,3.584021598E-2,4.331278217E-1,5.297867224E-1
1.024422854E1,8.869160855E-2,1.457181689E-1,8.014433509E-1,8.193969922E-1
1.025419454E1,-7.002482940E-2,2.978011782E-1,1.036572756E0,1.080773842E0
1.026416154E1,-1.777275085E-1,3.621304907E-1,1.083877900E0,1.156510641E0
1.027412754E1,-3.233392581E-1,3.607142951E-1,9.941558844E-1,1.105897374E0
1.028409454E1,-4.300399436E-1,4.045628576E-1,6.960046041E-1,9.127036035E-1
1.029406154E1,-5.335417637E-1,5.223614489E-1,3.180025774E-1,8.115749726E-1
1.030402754E1,-6.530040340E-1,6.627956352E-1,-9.989909470E-2,9.357842441E-1
1.031399454E1,-7.085177187E-1,7.572288989E-1,-5.195631176E-1,1.159887407E0
1.032396054E1,-7.191408670E-1,8.119034350E-1,-9.533674622E-1,1.444043037E0
1.033392754E1,-7.372125641E-1,8.425274961E-1,-1.300629507E0,1.716092090E0
1.034389454E1,-7.053808337E-1,8.784424102E-1,-1.586338497E0,1.945685744E0
1.035386054E1,-6.103571108E-1,9.923699985E-1,-1.813378279E0,2.155382750E0
1.036382754E1,-5.095468007E-1,1.123888789E0,-1.900211771E0,2.265738009E0
1.037379354E1,-4.730478958E-1,1.210279061E0,-1.896107025E0,2.298645594E0
1.038376054E1,-4.726133381E-1,1.219704773E0,-1.845772439E0,2.262281812E0
1.039372754E1,-4.657482684E-1,1.225851805E0,-1.715816317E0,2.159550816E0
1.040369354E1,-4.318166201E-1,1.243627340E0,-1.508027322E0,2.001804426E0
1.041366054E1,-4.230844614E-1,1.290480494E0,-1.316644446E0,1.891531909E0
1.042362654E1,-4.229931352E-1,1.302835954E0,-1.185055781E0,1.811259760E0
1.043359354E1,-4.537270143E-1,1.253824884E0,-1.032566244E0,1.686457261E0
1.044356054E1,-4.452407309E-1,1.235662555E0,-8.801632458E-1,1.581071978E0
1.045352654E1,-4.272319280E-1,1.225451270E0,-7.050473231E-1,1.476939289E0
1.046349354E1,-4.323607035E-1,1.173786442E0,-5.315434778E-1,1.359135335E0
1.047345954E1,-4.114577481E-1,1.143218807E0,-3.050685364E-1,1.252722448E0
1.048342654E1,-4.173471734E-1,1.129440428E0,-8.168677211E-2,1.206850062E0
1.049339354E1,-4.092140618E-1,1.096723210E0,1.163017040E-1,1.176343502E0
1.050335954E1,-3.974582713E-1,1.055276976E0,2.846442121E-1,1.163015434E0
1.051332654E1,-3.623004619E-1,9.749490966E-1,4.197780436E-1,1.121606425E0
1.052329254E1,-3.451984525E-1,8.601162131E-1,5.513649541E-1,1.078408635E0
1.053325954E1,-2.571347436E-1,7.756558143E-1,6.287218630E-1,1.031043840E0
1.054322654E1,-1.515715972E-1,8.034046532E-1,6.832413018E-1,1.065481892E0
1.055319254E1,-2.666048940E-2,8.590011491E-1,6.734641725E-1,1.091855186E0
1.056315954E1,9.330628596E-2,8.856242529E-1,5.784369779E-1,1.061897226E0
1.057312554E1,2.417039780E-1,9.422674003E-1,5.309879923E-1,1.108258505E0
1.058309254E1,3.562042645E-1,9.351970933E-1,5.682189685E-1,1.150803145E0
1.059305954E1,5.114043880E-1,7.739164138E-1,6.985487276E-1,1.161228396E0
1.060302554E1,5.339979927E-1,5.822347444E-1,9.578844362E-1,1.241649607E0
1.061299254E1,3.788562318E-1,4.203617419E-1,1.446552036E0,1.553302556E0
1.062295854E1,1.440013716E-1,1.137531951E-1,2.097786849E0,2.105798149E0
1.063292554E1,1.340618541E-2,-3.494122119E-1,2.821232436E0,2.842819213E0
1.064289254E1,-3.063950138E-2,-8.053210782E-1,3.484161095E0,3.576151472E0
1.065285854E1,6.735044086E-2,-1.178281562E0,4.016779876E0,4.186574267E0
1.066282554E1,1.962005803E-1,-1.390571670E0,4.396465901E0,4.615311111E0
1.067279154E1,1.655089474E-1,-1.459392229E0,4.551160423E0,4.782288164E0
1.068275854E1,8.641623767E-2,-1.344063355E0,4.346438293E0,4.550329648E0
1.069272554E1,2.716908753E-2,-1.090052925E0,3.647376180E0,3.806876218E0
1.070269179E1,8.460921049E-4,-9.273560502E-1,2.652140899E0,2.809598069E0
1.071265879E1,1.982257269E-2,-8.848304933E-1,1.472086827E0,1.717660491E0
1.072262479E1,5.917850018E-2,-7.674774599E-1,2.188302916E-1,8.002564857E-1
1.073259179E1,1.618856836E-1,-5.824565001E-1,-1.008808422E0,1.176076945E0
1.074255879E1,3.055799485E-1,-4.429077284E-1,-2.170706306E0,2.236406096E0
1.075252479E1,3.623663162E-1,-3.097123951E-1,-3.145653502E0,3.181566763E0
1.076249179E1,3.346562516E-1,-9.821860492E-2,-3.940753208E0,3.956156917E0
1.077245779E1,3.047879066E-1,1.575079098E-1,-4.499836487E0,4.512896279E0
1.078242479E1,3.023412123E-1,3.499744217E-1,-4.746356269E0,4.768835301E0
1.079239179E1,2.712971750E-1,4.356639053E-1,-4.648756299E0,4.677001211E0
1.080235779E1,2.462030084E-1,3.720232487E-1,-4.103949582E0,4.128125409E0
1.081232479E1,3.017187762E-1,1.157143512E-1,-3.225882563E0,3.242027505E0
1.082229079E1,3.228333277E-1,-2.710313094E-1,-2.280168521E0,2.318803099E0
1.083225779E1,3.346754743E-1,-6.122574194E-1,-1.274366153E0,1.452885375E0
1.084222479E1,3.644722640E-1,-7.599672961E-1,-1.859367800E-1,8.631122804E-1
1.085219079E1,4.669960276E-1,-6.879065028E-1,8.516060293E-1,1.190182119E0
1.086215779E1,5.486829094E-1,-5.633556931E-1,1.798311759E0,1.962739859E0
1.087212379E1,4.931525236E-1,-5.563440044E-1,2.495240223E0,2.603640112E0
1.088209079E1,3.939193171E-1,-5.290765375E-1,2.762006573E0,2.839678630E0
1.089205779E1,3.086942486E-1,-4.670625763E-1,2.564244969E0,2.624650805E0
1.090202379E1,3.131221623E-1,-3.379026988E-1,1.998421605E0,2.050832180E0
1.091199079E1,3.818333051E-1,-1.826032823E-1,1.163659649E0,1.238242469E0
1.092195679E1,4.583855641E-1,-3.679228887E-2,1.631636292E-1,4.879481199E-1
1.093192379E1,5.274264898E-1,1.066923898E-1,-7.760366142E-1,9.443488734E-1
1.094189079E1,5.279314334E-1,2.648288754E-1,-1.502179522E0,1.614121819E0
1.095185679E1,5.186626830E-1,4.152762723E-1,-2.016987684E0,2.123606526E0
1.096182379E1,5.649469032E-1,5.612806624E-1,-2.348708999E0,2.480047368E0
1.097178979E1,6.489955484E-1,6.565144099E-1,-2.513491137E0,2.677656454E0
1.098175679E1,6.782356466E-1,7.465283480E-1,-2.508332139E0,2.703523309E0
1.099172379E1,6.483116435E-1,8.070856217E-1,-2.422417245E0,2.634350109E0
1.100168979E1,6.256758291E-1,8.933874549E-1,-2.288373919E0,2.535008201E0
1.101165679E1,6.971829642E-1,9.201827592E-1,-2.114322190E0,2.408974620E0
1.102162279E1,7.848523150E-1,9.825702113E-1,-1.879875154E0,2.261717925E0
1.103158979E1,8.660441203E-1,1.034741701E0,-1.625986712E0,2.112949501E0
1.104155679E1,8.878106730E-1,1.062063108E0,-1.371928115E0,1.948941403E0
1.105152279E1,8.501470759E-1,1.117019626E0,-1.076962983E0,1.769274474E0
1.106148979E1,7.754938464E-1,1.147135710E0,-7.957352990E-1,1.597030278E0
1.107145579E1,6.646513952E-1,1.070368493E0,-5.250840586E-1,1.364977457E0
1.108142279E1,5.476771883E-1,9.808727646E-1,-2.646958512E-1,1.154177446E0
1.109138979E1,4.790977175E-1,9.536454973E-1,-5.479952037E-2,1.068633401E0
1.110135579E1,4.335322663E-1,9.436338946E-1,1.684126747E-1,1.052025657E0
1.111132279E1,4.014053246E-1,8.826829572E-1,3.627232522E-1,1.035289136E0
1.112128879E1,3.262743045E-1,8.463718942E-1,5.571279699E-1,1.064514857E0
1.113125579E1,2.586530462E-1,9.019012932E-1,7.024879968E-1,1.172099282E0
1.114122279E1,1.892745899E-1,9.599482110E-1,7.849097639E-1,1.254355921E0
1.115118879E1,6.189716309E-2,8.605139700E-1,8.524562144E-1,1.212846713E0
1.116115579E1,-9.733224012E-2,7.125669886E-1,1.023829919E0,1.251180635E0
1.117112179E1,-1.160647822E-1,5.638987532E-1,1.322105160E0,1.442017646E0
1.118108879E1,7.995285340E-2,3.950808665E-1,1.722376893E0,1.768915914E0
1.119105579E1,2.884532894E-1,2.991330278E-1,2.199830117E0,2.238735896E0
1.120102179E1,4.325910107E-1,2.939556107E-1,2.727361236E0,2.777056750E0
1.121098879E1,5.055170458E-1,1.473578744E-1,3.246831383E0,3.289251564E0
1.122095479E1,5.502366242E-1,-2.529958650E-1,3.724123809E0,3.773044579E0
1.123092179E1,5.539196026E-1,-7.050932238E-1,4.056669581E0,4.154581985E0
1.124088879E1,6.289255654E-1,-9.894289953E-1,4.176462657E0,4.337897813E0
1.125085479E1,7.587860124E-1,-1.112621351E0,3.987256699E0,4.208550637E0
1.126082179E1,9.547683088E-1,-1.184459365E0,3.500458454E0,3.816770350E0
1.127078779E1,1.170911366E0,-1.200079909E0,2.810891635E0,3.272970669E0
1.128075479E1,1.294957123E0,-1.163556885E0,1.962264177E0,2.623215446E0
1.129072179E1,1.248967456E0,-1.166775192E0,1.106359860E0,2.036004959E0
1.130068779E1,1.100743463E0,-1.146625248E0,3.186317378E-1,1.621083531E0
1.131065479E1,9.113610649E-1,-1.104344617E0,-3.933556455E-1,1.484885412E0
1.132062079E1,7.091994309E-1,-1.090668126E0,-9.348879218E-1,1.602041266E0
1.133058779E1,5.018489778E-1,-1.036609301E0,-1.331326219E0,1.760352448E0
1.134055479E1,3.690992023E-1,-9.788364717E-1,-1.581420404E0,1.896113275E0
1.135052079E1,2.629434224E-1,-8.652168855E-1,-1.718967381E0,1.942315206E0
1.136048779E1,2.407139347E-1,-7.938703296E-1,-1.671303218E0,1.865858447E0
1.137045379E1,2.178903517E-1,-8.507171063E-1,-1.457743022E0,1.701825643E0
1.138042079E1,4.866210010E-2,-9.631504387E-1,-1.135087230E0,1.489446135E0
1.139038779E1,-1.137610158E-1,-1.032842817E0,-7.389471406E-1,1.275048521E0
1.140035379E1,-1.985908125E-1,-1.038202521E0,-3.075647128E-1,1.100862770E0
1.141032079E1,-2.495768884E-1,-1.000292245E0,5.151338518E-2,1.032243589E0
1.142028679E1,-2.950639139E-1,-8.910579242E-1,2.241202676E-1,9.650268555E-1
1.143025379E1,-3.312105240E-1,-7.603888804E-1,2.125784487E-1,8.562016453E-1
1.144022079E1,-4.230469295E-1,-6.427097185E-1,-2.351516247E-2,7.698035137E-1
1.145018679E1,-4.847725499E-1,-5.149461561E-1,-4.594525713E-1,8.433686229E-1
1.146015379E1,-5.080916114E-1,-3.515357745E-1,-9.024253500E-1,1.093666310E0
1.147011979E1,-5.230770750E-1,-1.688329433E-1,-1.362237525E0,1.468946991E0
1.148008679E1,-5.519145558E-1,-1.437391788E-2,-1.757270737E0,1.841960024E0
1.149005379E1,-5.968521623E-1,1.179532501E-1,-2.055429618E0,2.143580273E0
1.150001979E1,-6.578399737E-1,2.772577170E-1,-2.178150396E0,2.292152791E0
1.150998679E1,-6.857782625E-1,4.201709765E-1,-2.177266881E0,2.321061513E0
1.151995379E1,-7.031977026E-1,5.219788948E-1,-2.094610056E0,2.270317216E0
1.152991979E1,-6.863521667E-1,6.028996816E-1,-1.927865592E0,2.133361916E0
1.153988679E1,-6.609153899E-1,6.691430801E-1,-1.700558592E0,1.943311900E0
1.154985279E1,-6.414917435E-1,6.653141771E-1,-1.459450994E0,1.727469772E0
1.155981979E1,-6.424778764E-1,6.296980557E-1,-1.177795293E0,1.482059114E0
1.156978679E1,-6.736689712E-1,5.871984458E-1,-8.634986812E-1,1.242683335E0
1.157975279E1,-6.917028075E-1,5.407336928E-1,-5.312031698E-1,1.026168850E0
1.158971979E1,-7.074420503E-1,5.030575973E-1,-2.871672857E-1,9.143337742E-1
1.159968579E1,-7.334723195E-1,5.245202409E-1,-1.250625873E-1,9.103536550E-1
1.160965279E1,-8.091245458E-1,5.973142751E-1,-1.663474381E-2,1.005854656E0
1.161961979E1,-9.047581697E-1,6.818588738E-1,-2.735269010E-2,1.133255064E0
1.162958579E1,-9.739050762E-1,7.018249226E-1,-7.474788129E-2,1.202762057E0
1.163955279E1,-1.023386700E0,7.041363269E-1,-1.197422057E-1,1.247984976E0
1.164951879E1,-1.013074331E0,6.628218015E-1,-7.484728396E-2,1.212952784E0
1.165948579E1,-1.007644972E0,5.719684955E-1,4.555507243E-2,1.159556646E0
1.166945279E1,-9.860095435E-1,3.996066114E-1,2.242108995E-1,1.087276778E0
1.167941879E1,-9.592955156E-1,3.204423282E-1,3.380667132E-1,1.066405305E0
1.168938579E1,-7.994495966E-1,4.158709341E-1,3.523625708E-1,9.675885864E-1
1.169935179E1,-5.268358845E-1,5.704527511E-1,2.364923912E-1,8.117271965E-1
1.170931904E1,-1.881275124E-1,7.560990706E-1,1.056580174E-1,7.862832709E-1
1.171928604E1,1.663946544E-1,8.762732394E-1,1.108059061E-1,8.987880284E-1
1.172925204E1,5.731465633E-1,9.898632972E-1,2.002618736E-1,1.161219681E0
1.173921904E1,8.371704964E-1,9.247840793E-1,3.772600150E-1,1.303228741E0
1.174918504E1,6.073118078E-1,3.490125547E-1,9.227216202E-1,1.158469932E0
1.175915204E1,9.382880777E-2,-4.957721128E-1,1.954549946E0,2.018628079E0
1.176911904E1,-2.564900515E-1,-9.714594783E-1,3.004809279E0,3.168343332E0
1.177908504E1,-6.180085945E-1,-1.138080420E0,4.062263027E0,4.263700572E0
1.178905204E1,-8.395034623E-1,-1.194616563E0,4.879921877E0,5.093673755E0
1.179901804E1,-8.357119815E-1,-1.267876621E0,5.242600105E0,5.458093212E0
1.180898504E1,-7.435055568E-1,-1.325625330E0,4.976424909E0,5.203353524E0
1.181895104E1,-7.296607389E-1,-1.219505237E0,4.132381083E0,4.369916616E0
1.182891804E1,-8.796974420E-1,-1.119716508E0,2.937631204E0,3.264553528E0
1.183888504E1,-1.032678730E0,-1.061793259E0,1.536013266E0,2.133815137E0
1.184885104E1,-1.101982926E0,-1.025014711E0,1.126273137E-1,1.509207222E0
1.185881804E1,-1.180641352E0,-9.177927098E-1,-1.179550043E0,1.904624836E0
1.186878404E1,-1.285474255E0,-6.957055190E-1,-2.287376969E0,2.714506148E0
1.187875104E1,-1.353046141E0,-4.552884766E-1,-3.043363481E0,3.361559568E0
1.188871804E1,-1.322441668E0,-3.535178344E-1,-3.430286019E0,3.693330340E0
1.189868404E1,-1.236316859E0,-4.092527631E-1,-3.458132799E0,3.695219839E0
1.190865104E1,-9.983845907E-1,-4.943575251E-1,-3.096256224E0,3.290587145E0
1.191861704E1,-7.025454457E-1,-6.342796415E-1,-2.279321845E0,2.468033395E0
1.192858404E1,-4.025138471E-1,-8.383495143E-1,-1.300558755E0,1.598843451E0
1.193855104E1,-1.930317914E-1,-9.725805357E-1,-3.837837535E-1,1.063232872E0
1.194851704E1,-1.302303565E-1,-1.009174165E0,4.123210895E-1,1.097907611E0
1.195848404E1,-1.346265125E-1,-9.323756656E-1,1.093719349E0,1.443492533E0
1.196845004E1,-9.717590019E-2,-8.093829927E-1,1.482613569E0,1.691947688E0
1.197841704E1,-2.341035113E-2,-7.306980349E-1,1.453554661E0,1.627049113E0
1.198838404E1,-6.995828077E-2,-7.652410461E-1,1.037746292E0,1.291280522E0
1.199835004E1,-9.380373783E-2,-7.660709122E-1,3.090727097E-1,8.313782073E-1
1.200831704E1,-7.126966506E-2,-6.678626861E-1,-5.329292679E-1,8.573992869E-1
1.201828404E1,3.993202440E-2,-5.140781370E-1,-1.368931417E0,1.462820605E0
1.202825004E1,2.115038766E-1,-3.044047312E-1,-2.070311952E0,2.103232680E0
1.203821704E1,3.535329641E-1,-1.170910782E-1,-2.670898182E0,2.696737469E0
1.204818304E1,4.145486594E-1,-2.309825599E-2,-3.087739170E0,3.115528414E0
1.205815004E1,4.571549079E-1,1.236829367E-1,-3.312686818E0,3.346368485E0
1.206811604E1,5.058315895E-1,2.841184013E-1,-3.329289402E0,3.379461020E0
1.207808304E1,5.757755446E-1,3.757987958E-1,-3.110213528E0,3.185305386E0
1.208805004E1,6.788068465E-1,4.060172063E-1,-2.684609903E0,2.798706672E0
1.209801604E1,8.197114413E-1,4.190060650E-1,-2.124216263E0,2.315121522E0
1.210798304E1,9.555169717E-1,4.668136311E-1,-1.583198542E0,1.907208765E0
1.211794904E1,9.380733387E-1,4.776606546E-1,-1.069553391E0,1.500695088E0
1.212791604E1,7.998357321E-1,4.614885718E-1,-6.014434326E-1,1.102017742E0
1.213788304E1,6.990116078E-1,4.488733502E-1,-1.378048396E-1,8.420776011E-1
1.214784904E1,6.865382543E-1,4.610411136E-1,2.315047163E-1,8.587712831E-1
1.215781604E1,7.129871111E-1,5.459306981E-1,5.167014903E-1,1.036036379E0
1.216778204E1,7.137123851E-1,6.521072173E-1,7.389664364E-1,1.216840411E0
1.217774904E1,7.197487582E-1,7.538978863E-1,9.095098364E-1,1.383332368E0
1.218771604E1,7.550054220E-1,7.999474870E-1,1.033753229E0,1.509501543E0
1.219768204E1,8.176113407E-1,8.047749482E-1,1.109685171E0,1.596105323E0
1.220764904E1,8.137443577E-1,7.966639830E-1,1.185264527E0,1.643686521E0
1.221761504E1,7.455845343E-1,7.319665883E-1,1.232767891E0,1.615978978E0
1.222758204E1,6.669531517E-1,6.284211700E-1,1.243684643E0,1.544827228E0
1.223754904E1,5.635647310E-1,5.064614077E-1,1.215847803E0,1.432617969E0
1.224751504E1,4.648754983E-1,5.142596930E-1,1.117828588E0,1.315337605E0
1.225748204E1,4.184344997E-1,6.342992297E-1,9.223023748E-1,1.195016575E0
1.226744804E1,3.950282416E-1,7.945037292E-1,6.250907421E-1,1.085367184E0
1.227741504E1,3.330344532E-1,9.476499085E-1,3.244087869E-1,1.055553579E0
1.228738204E1,3.023524316E-1,1.070802064E0,1.357366794E-1,1.120918596E0
1.229734804E1,2.336055295E-1,1.233830915E0,3.972832203E-2,1.256379167E0
1.230731504E1,1.825154279E-1,1.450158452E0,-5.621513128E-3,1.461609736E0
1.231728104E1,9.611229166E-2,1.499483371E0,3.723857760E-2,1.503021844E0
1.232724804E1,-2.341798905E-2,1.094108481E0,2.573429775E-1,1.124209580E0
1.233721504E1,-6.082690336E-2,2.322025815E-1,7.178498018E-1,7.569189448E-1
1.234718104E1,-1.469598982E-2,-5.423415309E-1,1.462500901E0,1.559890764E0
1.235714804E1,1.390031899E-1,-9.058053330E-1,2.404168670E0,2.572903453E0
1.236711404E1,2.848720708E-1,-9.943060116E-1,3.394230918E0,3.548323557E0
1.237708104E1,3.757153999E-1,-1.073941434E0,4.236730494E0,4.386843688E0
1.238704804E1,5.405848812E-1,-1.226102650E0,4.585630344E0,4.777401529E0
1.239701404E1,6.338647085E-1,-1.437560626E0,4.317553048E0,4.594521666E0
1.240698104E1,6.965261026E-1,-1.526020082E0,3.546864882E0,3.923536210E0
1.241694704E1,8.636841841E-1,-1.453873335E0,2.414320605E0,2.947650255E0
1.242691404E1,9.638955201E-1,-1.345921308E0,1.097687854E0,1.986332643E0
1.243688104E1,9.706665958E-1,-1.339950424E0,-1.561539871E-1,1.661940085E0
1.244684704E1,8.840422156E-1,-1.395409364E0,-1.273983745E0,2.086080659E0
1.245681404E1,8.537599973E-1,-1.306207020E0,-2.174611076E0,2.676567997E0
1.246678004E1,7.997241964E-1,-1.088560935E0,-2.757165663E0,3.070258327E0
1.247674704E1,7.651610854E-1,-9.041207501E-1,-3.068925753E0,3.289560928E0
1.248671404E1,7.142539103E-1,-7.809541225E-1,-3.051227401E0,3.229556725E0
1.249668004E1,6.311568629E-1,-7.020094022E-1,-2.713147239E0,2.872689354E0
1.250664704E1,5.093409421E-1,-6.656525847E-1,-2.164710571E0,2.321312864E0
1.251661304E1,3.196872699E-1,-6.970540331E-1,-1.599423396E0,1.773764211E0
1.252658004E1,1.246354116E-1,-7.705256134E-1,-1.058594540E0,1.315243744E0
1.253654704E1,-1.153407142E-2,-7.656440654E-1,-5.707981753E-1,9.550677603E-1
1.254651304E1,-8.566857979E-2,-7.011820212E-1,-1.960495394E-1,7.330966883E-1
1.255648004E1,-4.848788962E-2,-6.055797529E-1,-1.464727521E-2,6.076943765E-1
1.256644604E1,-1.559276998E-2,-5.249807091E-1,3.239357471E-2,5.262102461E-1
1.257641304E1,-7.147241727E-2,-4.742625453E-1,-1.149720472E-1,4.932056771E-1
1.258638004E1,-2.106180234E-1,-3.538658899E-1,-3.925966769E-1,5.689579691E-1
1.259634604E1,-3.387107840E-1,-2.000659919E-1,-7.442072958E-1,8.417813822E-1
1.260631304E1,-4.336299513E-1,-4.166886672E-2,-1.098135751E0,1.181386201E0
1.261627904E1,-5.168983953E-1,1.357179683E-1,-1.433065433E0,1.529470449E0
1.262624604E1,-6.132426021E-1,3.088139704E-1,-1.668481352E0,1.804234624E0
1.263621304E1,-7.013995376E-1,4.369972166E-1,-1.749516159E0,1.934873296E0
1.264617904E1,-7.513999557E-1,4.947275077E-1,-1.669847261E0,1.896772806E0
1.265614604E1,-7.746992098E-1,5.254878089E-1,-1.431966741E0,1.710796613E0
1.266611204E1,-7.421389894E-1,5.491086598E-1,-1.088162155E0,1.427020489E0
1.267607904E1,-6.882715883E-1,5.688454977E-1,-7.229058892E-1,1.148867226E0
1.268604504E1,-7.556220840E-1,6.149550323E-1,-3.720770431E-1,1.042869000E0
1.269601204E1,-9.256092677E-1,6.249335982E-1,-1.121279615E-1,1.122438060E0
1.270597858E1,-1.064655033E0,6.820977326E-1,7.626757264E-2,1.266714016E0
1.271594458E1,-1.187160340E0,7.464862481E-1,2.274122500E-1,1.420671575E0
1.272591158E1,-1.250533194E0,7.939226621E-1,2.704851794E-1,1.505758512E0
1.273587758E1,-1.288893268E0,8.581413160E-1,2.551900327E-1,1.569322888E0
1.274584458E1,-1.340445537E0,9.144197434E-1,2.158084506E-1,1.636927302E0
1.275581158E1,-1.395645592E0,9.773543487E-1,1.558891082E-1,1.710949898E0
1.276577758E1,-1.485760102E0,1.007511802E0,8.027116120E-2,1.796943675E0
1.277574458E1,-1.574577407E0,9.531343044E-1,4.640584230E-2,1.841171506E0
1.278571058E1,-1.612711194E0,9.024383600E-1,1.025800431E-1,1.850879535E0
1.279567758E1,-1.630393320E0,9.410523489E-1,1.406822544E-1,1.887737640E0
1.280564458E1,-1.630538769E0,1.017720310E0,1.310121292E-1,1.926544961E0
1.281561058E1,-1.619531971E0,1.106355328E0,1.507505751E-1,1.967137934E0
1.282557758E1,-1.583824779E0,1.111456731E0,1.709527051E-1,1.942437083E0
1.283554358E1,-1.472735575E0,8.174096118E-1,2.313901109E-1,1.700191145E0
1.284551058E1,-1.430169746E0,2.495065391E-1,6.074309814E-1,1.573725329E0
1.285547758E1,-1.559481504E0,-2.733450526E-1,1.377671251E0,2.098732512E0
1.286544358E1,-1.682414536E0,-6.163431613E-1,2.368729280E0,2.970063293E0
1.287541058E1,-1.692717330E0,-1.022484621E0,3.406089072E0,3.938554243E0
1.288537658E1,-1.491420791E0,-1.588051585E0,4.344892289E0,4.860486891E0
1.289534358E1,-1.082907701E0,-1.976366346E0,5.063781141E0,5.542616031E0
1.290531058E1,-7.947330131E-1,-2.090589072E0,5.429636162E0,5.872232291E0
1.291527658E1,-6.157015756E-1,-2.006626418E0,5.255677988E0,5.659309951E0
1.292524358E1,-5.677633242E-1,-1.914006229E0,4.460720369E0,4.887105610E0
1.293520958E1,-6.717414366E-1,-1.881603007E0,3.253591933E0,3.818052763E0
1.294517658E1,-7.400987497E-1,-1.806463508E0,1.893499752E0,2.719631937E0
1.295514358E1,-7.130923609E-1,-1.680443293E0,4.801248175E-1,1.887567275E0
1.296510958E1,-5.708158632E-1,-1.542036337E0,-8.132009321E-1,1.834394333E0
1.297507658E1,-3.884701507E-1,-1.394688256E0,-1.979624560E0,2.452545166E0
1.298504258E1,-3.303268269E-1,-1.242714151E0,-2.994977186E0,3.259346962E0
1.299500958E1,-3.619312468E-1,-1.013033182E0,-3.918915612E0,4.063881153E0
1.300497658E1,-3.892577706E-1,-7.480939400E-1,-4.625096710E0,4.701349353E0
1.301494258E1,-4.375244162E-1,-5.207682288E-1,-4.879115546E0,4.926296344E0
1.302490958E1,-3.254954919E-1,-3.761613232E-1,-4.534384761E0,4.561588519E0
1.303487558E1,-9.407336757E-2,-3.835241371E-1,-3.683227213E0,3.704335739E0
1.304484258E1,1.335392227E-1,-5.626348776E-1,-2.499371865E0,2.565394794E0
1.305480958E1,2.086925353E-1,-7.776532231E-1,-1.285387570E0,1.516745962E0
1.306477558E1,1.281221429E-1,-8.698961198E-1,-1.792522430E-1,8.973660955E-1
1.307474258E1,8.939707512E-2,-8.726198991E-1,7.886227459E-1,1.179569057E0
1.308470858E1,1.032591241E-1,-8.337433702E-1,1.561432282E0,1.773093687E0
1.309467558E1,1.249023736E-1,-7.844437408E-1,1.971527921E0,2.125529329E0
1.310464258E1,1.146355034E-1,-7.026841709E-1,2.053952612E0,2.173850886E0
1.311460858E1,1.339467005E-1,-5.755198020E-1,1.745849955E0,1.843137767E0
1.312457558E1,2.148251682E-1,-4.161961855E-1,1.179528408E0,1.269116379E0
1.313454158E1,3.056882864E-1,-2.341195911E-1,4.891306990E-1,6.224999214E-1
1.314450858E1,3.906657802E-1,-2.363605365E-2,-2.247845113E-1,4.513385551E-1
1.315447558E1,4.312308387E-1,1.842358249E-1,-9.496381080E-1,1.059110670E0
1.316444158E1,4.263101144E-1,3.494123581E-1,-1.629320794E0,1.720033593E0
1.317440858E1,4.309273683E-1,4.623371489E-1,-2.142537344E0,2.233812953E0
1.318437458E1,4.622790422E-1,5.358850354E-1,-2.451380258E0,2.551497571E0
1.319434158E1,5.592754329E-1,6.270942906E-1,-2.554232197E0,2.688891663E0
1.320430758E1,6.152842306E-1,6.623032996E-1,-2.370415033E0,2.536944574E0
1.321427458E1,6.107390437E-1,6.181503895E-1,-1.945836425E0,2.131054076E0
1.322424158E1,5.158959632E-1,5.033460112E-1,-1.357790133E0,1.537237749E0
1.323420758E1,4.738413996E-1,4.443350337E-1,-8.431246430E-1,1.064339447E0
1.324417458E1,4.851099343E-1,4.628828403E-1,-4.645139211E-1,8.156993044E-1
1.325414058E1,5.088852978E-1,5.211373343E-1,-2.077007014E-1,7.574219094E-1
1.326410758E1,5.694761930E-1,6.294258678E-1,-6.717690647E-2,8.514650869E-1
1.327407458E1,6.413707061E-1,6.885621218E-1,-5.470128715E-2,9.425849612E-1
1.328404058E1,6.848780105E-1,7.044359967E-1,-1.432661390E-1,9.928812363E-1
1.329400758E1,6.295469783E-1,7.052201083E-1,-2.836724049E-1,9.869826910E-1
1.330397358E1,5.616950107E-1,6.662130404E-1,-3.981234652E-1,9.580414363E-1
1.331394058E1,5.471511582E-1,5.995872340E-1,-4.745611918E-1,9.402593077E-1
1.332390758E1,5.667428389E-1,5.485290545E-1,-4.675088650E-1,9.168675520E-1
1.333387358E1,6.333738347E-1,5.074465173E-1,-3.388011235E-1,8.794603935E-1
1.334384058E1,6.602495382E-1,4.312653373E-1,-9.255499184E-2,7.940312780E-1
1.335380658E1,6.278776713E-1,4.014856142E-1,2.463525510E-1,7.849271609E-1
1.336377358E1,6.103207485E-1,3.931799367E-1,6.178477961E-1,9.533193472E-1
1.337374058E1,6.251236327E-1,3.628008740E-1,9.281361419E-1,1.176367599E0
1.338370658E1,6.270323832E-1,2.587868012E-1,1.209702964E0,1.386910769E0
1.339367358E1,6.091779833E-1,1.513772504E-1,1.499948809E0,1.625994870E0
1.340363958E1,5.802612361E-1,-4.338604778E-2,1.836998692E0,1.926953462E0
1.341360658E1,5.185817356E-1,-2.506854840E-1,2.218252355E0,2.291814508E0
1.342357358E1,3.941148334E-1,-4.271885124E-1,2.654477447E0,2.717363988E0
1.343353958E1,2.963164971E-1,-6.053195518E-1,3.106873013E0,3.179131194E0
1.344350658E1,2.885454013E-1,-8.413551293E-1,3.514121059E0,3.624939133E0
1.345347258E1,2.516345236E-1,-1.177179435E0,3.809336452E0,3.995011334E0
1.346343958E1,1.797834260E-1,-1.498057820E0,3.859925977E0,4.144336842E0
1.347340658E1,2.430192726E-1,-1.615737420E0,3.573795987E0,3.929590759E0
1.348337258E1,5.115232692E-1,-1.463958466E0,2.996609729E0,3.374092517E0
1.349333958E1,9.008264288E-1,-1.268996947E0,2.284642811E0,2.764314432E0
1.350330558E1,1.212181453E0,-1.173047208E0,1.480025007E0,2.244080579E0
1.351327258E1,1.387653179E0,-1.144346296E0,7.140321547E-1,1.935187771E0
1.352323958E1,1.448478986E0,-1.105522831E0,2.763101757E-2,1.822370866E0
1.353320558E1,1.584085857E0,-9.883098382E-1,-5.575706041E-1,1.948581360E0
1.354317258E1,1.714627578E0,-8.444902602E-1,-1.014521152E0,2.163877237E0
1.355313858E1,1.725643147E0,-7.809909600E-1,-1.330806402E0,2.314916161E0
1.356310558E1,1.713639398E0,-7.967854589E-1,-1.483045093E0,2.402259312E0
1.357307158E1,1.661800615E0,-8.346339011E-1,-1.436875479E0,2.350065143E0
1.358303858E1,1.551716841E0,-8.976329720E-1,-1.205624532E0,2.160347337E0
1.359300558E1,1.341174392E0,-9.933612478E-1,-8.089014745E-1,1.854679734E0
1.360297158E1,1.013328466E0,-1.161056469E0,-2.950744754E-1,1.569062029E0
1.361293858E1,6.584732272E-1,-1.300250022E0,1.998800504E-1,1.471118332E0
1.362290458E1,4.175592080E-1,-1.328945818E0,5.689481163E-1,1.504710815E0
1.363287158E1,3.759246937E-1,-1.205275453E0,7.370619982E-1,1.461940040E0
1.364283858E1,3.667231862E-1,-1.073186266E0,6.529878080E-1,1.308666396E0
1.365280458E1,2.215860844E-1,-1.023444880E0,4.109253591E-1,1.124899758E0
1.366277158E1,5.191359054E-2,-9.459160629E-1,-8.662649989E-3,9.473791535E-1
1.367273758E1,-6.659364671E-2,-8.438149068E-1,-5.341641998E-1,1.000894452E0
1.368270458E1,-1.448240566E-1,-7.468017054E-1,-1.098779529E0,1.336414325E0
1.369267158E1,-1.464746890E-1,-5.927687958E-1,-1.660424473E0,1.769135131E0
1.370263742E1,-1.271202224E-1,-4.198891407E-1,-2.129745390E0,2.174461283E0
1.371260442E1,-9.992467627E-2,-2.702948526E-1,-2.411410446E0,2.428568424E0
1.372257042E1,-4.968569174E-2,-1.745820719E-1,-2.520492593E0,2.527020079E0
1.373253742E1,-1.977586806E-2,-1.157886109E-1,-2.398221467E0,2.401096477E0
1.374250442E1,-5.015259191E-2,-7.831205159E-2,-2.075863298E0,2.077945257E0
1.375247042E1,-6.173205234E-2,-5.132101178E-2,-1.616609532E0,1.618601579E0
1.376243742E1,-5.437208891E-2,-7.137433022E-2,-1.092808353E0,1.096485620E0
1.377240342E1,-3.105397761E-2,-1.136689952E-1,-6.371132022E-1,6.479183764E-1
1.378237042E1,-4.127827272E-2,-1.497249734E-1,-2.718312085E-1,3.130713487E-1
1.379233742E1,-2.747255802E-2,-1.426311314E-1,2.027229667E-3,1.452669637E-1
1.380230342E1,-3.798322052E-2,-1.046403095E-1,1.216267633E-1,1.648799229E-1
1.381227042E1,-7.810937248E-2,-4.721041918E-2,1.499372274E-1,1.755308232E-1
1.382223642E1,-1.075894258E-1,5.292607248E-3,7.940635800E-2,1.338240110E-1
1.383220342E1,-1.024499425E-1,4.913181424E-2,-4.146845341E-2,1.209527119E-1
1.384217042E1,-2.752372116E-2,1.244082838E-1,-1.388415509E-1,1.884461530E-1
1.385213642E1,7.144369282E-2,2.148015600E-1,-2.214714789E-1,3.166915336E-1
1.386210342E1,1.623403412E-1,3.221207714E-1,-2.568944961E-1,4.428441711E-1
1.387206942E1,2.439453985E-1,3.907349235E-1,-2.097472268E-1,5.061393455E-1
1.388203642E1,3.472209679E-1,4.435598391E-1,-1.649867910E-1,5.869653930E-1
1.389200242E1,4.849138333E-1,4.799289358E-1,-1.270401156E-1,6.939829970E-1
1.390196942E1,6.259451665E-1,5.738662094E-1,-7.427367210E-2,8.524355437E-1
1.391193642E1,7.667869037E-1,7.065708151E-1,1.542495489E-3,1.042692117E0
1.392190242E1,8.503577218E-1,7.913595352E-1,8.479281306E-2,1.164709402E0
1.393186942E1,1.006763358E0,7.005546150E-1,2.004969317E-1,1.242798555E0
1.394183542E1,1.179068013E0,3.168381044E-1,4.747389472E-1,1.309948408E0
1.395180242E1,1.212994728E0,-1.951692411E-1,1.176597199E0,1.701125572E0
1.396176942E1,1.059219461E0,-6.977532139E-1,2.399424239E0,2.714045337E0
1.397173542E1,8.071769844E-1,-1.229279150E0,3.872679924E0,4.142500658E0
1.398170242E1,6.358184825E-1,-1.772078518E0,5.229054446E0,5.557655784E0
1.399166842E1,5.671961443E-1,-2.240699377E0,6.321911330E0,6.731196627E0
1.400163542E1,5.757525212E-1,-2.610189466E0,6.928562878E0,7.426275215E0
1.401160242E1,6.467518987E-1,-2.784530632E0,6.734066944E0,7.315706149E0
1.402156842E1,7.646627565E-1,-2.725090177E0,5.643715591E0,6.313663855E0
1.403153542E1,8.318993045E-1,-2.570851738E0,4.040685048E0,4.860912544E0
1.404150142E1,8.983875552E-1,-2.402606440E0,2.382814638E0,3.501060340E0
1.405146842E1,1.111279561E0,-2.213687872E0,6.685940266E-1,2.565613812E0
1.406143542E1,1.433810222E0,-2.171228170E0,-8.263864034E-1,2.730010624E0
1.407140142E1,1.618917282E0,-2.209230978E0,-2.078578160E0,3.438325443E0
1.408136842E1,1.674711121E0,-1.957422683E0,-3.233230759E0,4.133998311E0
1.409133442E1,1.603129800E0,-1.433501050E0,-4.330441480E0,4.835046415E0
1.410130142E1,1.523229791E0,-9.352539575E-1,-5.183379505E0,5.482914559E0
1.411126842E1,1.681043948E0,-6.001333639E-1,-5.412992647E0,5.699698081E0
1.412123442E1,2.016324025E0,-6.660396704E-1,-4.918553261E0,5.357362933E0
1.413120142E1,2.538310521E0,-1.289521259E0,-3.866928602E0,4.801981070E0
1.414116742E1,2.874435374E0,-2.103510980E0,-2.386209531E0,4.287322368E0
1.415113442E1,2.849952205E0,-2.623845930E0,-6.199896312E-1,3.923159719E0
1.416110142E1,2.675557244E0,-2.809630390E0,1.253214435E0,4.077152918E0
1.417106742E1,2.623635138E0,-2.790762595E0,3.002385609E0,4.866840509E0
1.418103442E1,2.643429717E0,-2.758010294E0,4.438814945E0,5.856399881E0
1.419100042E1,2.770147359E0,-2.783827505E0,5.346316847E0,6.633740709E0
1.420096742E1,2.965725905E0,-2.962971574E0,5.677031271E0,7.057153445E0
1.421093442E1,3.189228122E0,-3.249823987E0,5.516532218E0,7.152947622E0
1.422090042E1,3.319458771E0,-3.312491229E0,4.985130243E0,6.844189376E0
1.423086742E1,3.319635065E0,-3.450437571E0,3.973110530E0,6.221824787E0
1.424083342E1,3.165335522E0,-3.757033400E0,2.861156639E0,5.685144348E0
1.425080042E1,2.987894454E0,-4.023499496E0,1.831333324E0,5.335713936E0
1.426076642E1,2.955068185E0,-4.134654481E0,7.073242289E-1,5.131091816E0
1.427073342E1,3.054500672E0,-4.148159795E0,-3.644785863E-1,5.164305247E0
1.428070042E1,3.215324246E0,-4.205582376E0,-1.129906597E0,5.413124980E0
1.429066642E1,3.420683722E0,-4.248267635E0,-1.498834915E0,5.656444212E0
1.430063342E1,3.446934212E0,-4.405342266E0,-1.586284118E0,5.814180359E0
1.431059942E1,3.168201535E0,-4.387872248E0,-1.582820227E0,5.638815806E0
1.432056642E1,2.746779839E0,-4.359472029E0,-1.450183157E0,5.352833553E0
1.433053342E1,2.556588040E0,-4.673333023E0,-1.442418054E0,5.518763793E0
1.434049942E1,2.167520742E0,-4.552928621E0,-1.045711370E0,5.149836644E0
1.435046642E1,1.772749486E0,-4.445718460E0,-8.731612051E-1,4.865127321E0
1.436043242E1,1.381777166E0,-4.357386035E0,-8.085342693E-1,4.642181476E0
1.437039942E1,9.609974939E-1,-4.303745140E0,-6.911502457E-1,4.463566632E0
1.438036642E1,4.959444594E-1,-4.312275935E0,-4.223052102E-1,4.361195517E0
1.439033242E1,1.416572776E-1,-4.300614833E0,-9.825193405E-2,4.304068793E0
1.440029942E1,-1.883079721E-1,-4.232771637E0,3.511907887E-1,4.251488044E0
1.441026542E1,-5.759288147E-1,-4.283042781E0,8.826190764E-1,4.410801049E0
1.442023242E1,-9.360702288E-1,-4.354460965E0,1.338903626E0,4.650830108E0
1.443019942E1,-1.234207768E0,-4.208000200E0,1.789310555E0,4.736260841E0
1.444016542E1,-1.391045149E0,-3.887784159E0,2.080266836E0,4.623568144E0
1.445013242E1,-1.371167539E0,-3.553223729E0,2.151153801E0,4.374124136E0
1.446009842E1,-1.290500375E0,-3.313153426E0,2.121851649E0,4.140607596E0
1.447006542E1,-1.209244835E0,-3.167093780E0,1.973596666E0,3.922733725E0
1.448003242E1,-9.965044186E-1,-3.055066975E0,1.795960009E0,3.681294287E0
1.448999842E1,-7.779277499E-1,-2.950511450E0,1.796715469E0,3.541027517E0
1.449996542E1,-5.581405614E-1,-2.804873096E0,1.858715250E0,3.410814617E0
1.450993142E1,-1.765729026E-1,-2.549912274E0,1.780482429E0,3.115019787E0
1.451989842E1,2.445197412E-1,-2.274821097E0,1.564210294E0,2.771525711E0
1.452986442E1,5.123893880E-1,-2.122157897E0,1.281236047E0,2.531336175E0
1.453983142E1,6.942178412E-1,-1.968490585E0,9.653413904E-1,2.299734244E0
1.454979842E1,9.052565718E-1,-1.757797278E0,6.389357793E-1,2.077878645E0
1.455976442E1,1.146020866E0,-1.520590942E0,3.715776908E-1,1.940007891E0
1.456973142E1,1.348562496E0,-1.344439331E0,2.325835276E-1,1.918393343E0
1.457969742E1,1.518378941E0,-1.218744806E0,1.905742067E-1,1.956305712E0
1.458966442E1,1.642211420E0,-1.086609866E0,2.223228335E-1,1.981667679E0
1.459963142E1,1.734872539E0,-9.277097337E-1,3.385438460E-1,1.996256499E0
1.460959742E1,1.780036140E0,-8.196699992E-1,4.793062073E-1,2.017454338E0
1.461956442E1,1.681476204E0,-7.996979570E-1,6.317191458E-1,1.966201446E0
1.462953042E1,1.522360163E0,-7.923048837E-1,7.687159002E-1,1.880492391E0
1.463949742E1,1.348218533E0,-7.458553335E-1,8.597435993E-1,1.764412777E0
1.464946442E1,1.303892838E0,-6.623706888E-1,8.853643441E-1,1.709602727E0
1.465943042E1,1.402640323E0,-5.566998075E-1,8.958390462E-1,1.754947905E0
1.466939742E1,1.557406181E0,-4.914470735E-1,9.804459178E-1,1.904811917E0
1.467936342E1,1.601961380E0,-5.883399685E-1,1.025801015E0,1.991153411E0
1.468933042E1,1.622945429E0,-7.606961516E-1,1.125515923E0,2.116458503E0
1.469929742E1,1.813383103E0,-8.616838516E-1,1.300274581E0,2.391980628E0
1.470926342E1,1.796787243E0,-8.401669751E-1,1.338057534E0,2.392639319E0
1.471923042E1,1.547906941E0,-8.750216429E-1,1.268002628E0,2.183920658E0
1.472919642E1,1.547303801E0,-8.733529937E-1,1.240765713E0,2.167116531E0
1.473916342E1,1.833365086E0,-8.877403602E-1,1.139545732E0,2.334068328E0
1.474913042E1,2.089600600E0,-9.883301573E-1,1.007702714E0,2.521644687E0
1.475909642E1,2.127774002E0,-1.137999436E0,7.866422939E-1,2.537965921E0
1.476906342E1,2.006550842E0,-1.285275303E0,5.169347942E-1,2.438319189E0
1.477902942E1,1.749514259E0,-1.379844076E0,2.403749424E-1,2.241104623E0
1.478899642E1,1.354756451E0,-1.360012513E0,-5.712144971E-2,1.920484818E0
1.479896242E1,9.593301603E-1,-1.206275619E0,-3.653357881E-1,1.583946168E0
1.480892942E1,6.489724519E-1,-9.910679698E-1,-7.583096105E-1,1.406561207E0
1.481889642E1,4.281432165E-1,-7.565265021E-1,-1.085986406E0,1.391044728E0
1.482886242E1,1.837797421E-1,-5.406575328E-1,-1.400899900E0,1.512813964E0
1.483882942E1,-1.346495359E-1,-2.767386304E-1,-1.652783332E0,1.681192288E0
1.484879542E1,-5.028439546E-1,-3.507466927E-2,-1.764435915E0,1.835024897E0
1.485876242E1,-8.932708760E-1,1.373598665E-1,-1.753324451E0,1.972548408E0
1.486872942E1,-1.231974132E0,2.717860387E-1,-1.602314844E0,2.039372642E0
1.487869542E1,-1.474540903E0,3.621215737E-1,-1.378567629E0,2.050817304E0
1.488866242E1,-1.632474052E0,4.185575835E-1,-1.125998318E0,2.026828605E0
1.489862842E1,-1.749720081E0,5.045875213E-1,-9.124246734E-1,2.036822946E0
1.490859542E1,-1.836483113E0,6.312279797E-1,-7.863996345E-1,2.095123713E0
1.491856242E1,-1.822718037E0,7.096739325E-1,-6.285791910E-1,2.054519392E0
1.492852842E1,-1.748318357E0,7.008817667E-1,-4.574481457E-1,1.938326891E0
1.493849542E1,-1.804660227E0,7.723204163E-1,-2.821936440E-1,1.983156729E0
1.494846142E1,-1.892080632E0,8.497368206E-1,-2.186490279E-1,2.085624410E0
1.495842842E1,-1.906538750E0,8.517918245E-1,-2.542135477E-1,2.103583572E0
1.496839542E1,-1.828697253E0,8.191569060E-1,-3.000557184E-1,2.026125641E0
1.497836142E1,-1.713107155E0,7.730492717E-1,-4.256597579E-1,1.927051513E0
1.498832842E1,-1.597585031E0,7.129999749E-1,-5.511585474E-1,1.834236256E0
1.499829442E1,-1.424175180E0,5.434793991E-1,-6.838716316E-1,1.670725953E0
1.500826142E1,-1.148774100E0,3.394400780E-1,-8.335913426E-1,1.459375218E0
1.501822742E1,-9.479079169E-1,1.407664543E-1,-9.304604101E-1,1.335702507E0
1.502819442E1,-7.898505150E-1,-1.396256626E-2,-9.196383834E-1,1.212350422E0
1.503816142E1,-7.489670755E-1,-9.575531915E-2,-7.651385736E-1,1.074968743E0
1.504812742E1,-8.629733089E-1,-2.059694870E-1,-4.045027775E-1,9.750737707E-1
1.505809442E1,-1.096870121E0,-4.796658111E-1,2.328472370E-1,1.219598782E0
1.506806042E1,-1.304609706E0,-1.015079122E0,1.009623524E0,1.936938763E0
1.507802742E1,-1.491387608E0,-1.432001971E0,1.849433380E0,2.774035052E0
1.508799442E1,-1.627884718E0,-1.600351203E0,2.652878818E0,3.499842661E0
1.509796042E1,-1.676752969E0,-1.809386385E0,3.263572546E0,4.091000534E0
1.510792742E1,-1.687166129E0,-1.903549215E0,3.732543799E0,4.516847615E0
1.511789342E1,-1.715904902E0,-1.843091052E0,3.860859777E0,4.609506750E0
1.512786042E1,-1.811384086E0,-1.682833050E0,3.744455162E0,4.487090800E0
1.513782742E1,-1.960813483E0,-1.444226013E0,3.288765859E0,4.092256000E0
1.514779342E1,-2.127759676E0,-1.256831523E0,2.588089330E0,3.578434447E0
1.515776042E1,-2.248550872E0,-1.155926341E0,1.828403285E0,3.120129052E0
1.516772642E1,-2.332191199E0,-1.099809809E0,1.035569374E0,2.778686980E0
1.517769342E1,-2.338003185E0,-9.984516875E-1,2.478354049E-1,2.554327124E0
1.518766042E1,-2.295248198E0,-8.606347881E-1,-4.863959563E-1,2.499087345E0
1.519762642E1,-2.246743205E0,-6.858965224E-1,-1.130186679E0,2.606843110E0
1.520759342E1,-2.087793226E0,-4.746722889E-1,-1.634150010E0,2.693444002E0
1.521755942E1,-1.877254725E0,-2.817440663E-1,-1.994854803E0,2.753708537E0
1.522752642E1,-1.678611068E0,-7.429106757E-2,-2.183756121E0,2.755366596E0
1.523749242E1,-1.488326006E0,1.134123024E-1,-2.153055316E0,2.619851874E0
1.524745942E1,-1.281043088E0,2.553250303E-1,-1.973909492E0,2.366977175E0
1.525742642E1,-1.125033893E0,3.417518478E-1,-1.728957934E0,2.090882857E0
1.526739242E1,-1.072829879E0,3.353514124E-1,-1.385643345E0,1.784217475E0
1.527735942E1,-1.030944299E0,3.338969176E-1,-1.032357498E0,1.496694793E0
1.528732542E1,-9.470259375E-1,3.723962279E-1,-7.030230170E-1,1.236842124E0
1.529729242E1,-7.867360687E-1,4.261922930E-1,-4.381704605E-1,9.962865375E-1
1.530725942E1,-6.183914410E-1,4.903069396E-1,-2.832391262E-1,8.384707937E-1
1.531722542E1,-4.565285980E-1,5.361025518E-1,-2.382050407E-1,7.433477976E-1
1.532719242E1,-4.253945135E-1,5.440695293E-1,-2.630942988E-1,7.390471940E-1
1.533715842E1,-4.220330954E-1,5.951356025E-1,-3.001796794E-1,7.889272203E-1
1.534712542E1,-4.209314800E-1,6.585983576E-1,-3.353360635E-1,8.505206540E-1
1.535709242E1,-3.931259231E-1,7.237002334E-1,-3.300343931E-1,8.872500886E-1
1.536705842E1,-3.415507767E-1,7.826634829E-1,-2.689076006E-1,8.952822785E-1
1.537702542E1,-3.649783771E-1,8.362529220E-1,-2.223853987E-1,9.391397292E-1
1.538699142E1,-4.319745315E-1,8.857387121E-1,-1.618977070E-1,9.986720831E-1
1.539695842E1,-4.690469751E-1,9.203086205E-1,-1.147352350E-1,1.039296491E0
1.540692442E1,-4.674293429E-1,9.760238148E-1,-1.179512036E-1,1.088588611E0
1.541689142E1,-4.013000382E-1,1.047506319E0,-2.198804516E-1,1.143091694E0
1.542685842E1,-3.638611203E-1,1.074947229E0,-3.006293303E-1,1.174003600E0
1.543682442E1,-3.255303559E-1,1.109595343E0,-3.336152279E-1,1.203524391E0
1.544679142E1,-2.657682306E-1,1.149813004E0,-3.316429621E-1,1.225842466E0
1.545675742E1,-9.821370788E-2,1.180500069E0,-2.827742726E-1,1.217861911E0
1.546672442E1,9.349339686E-2,1.236924823E0,-2.153587997E-1,1.259008914E0
1.547669142E1,2.710146448E-1,1.351985602E0,-1.739499879E-1,1.389810276E0
1.548665742E1,4.530495778E-1,1.449716549E0,-1.333065766E-1,1.524697555E0
1.549662442E1,5.448675281E-1,1.497153694E0,-6.828963161E-2,1.594682815E0
1.550659042E1,6.410758603E-1,1.488303056E0,2.232993186E-2,1.620655075E0
1.551655742E1,7.181490330E-1,1.465405798E0,7.779895842E-2,1.633770138E0
1.552652442E1,8.172654779E-1,1.424030754E0,1.264641649E-1,1.646748200E0
1.553649042E1,8.860872062E-1,1.364009816E0,9.519208610E-2,1.629335708E0
1.554645742E1,8.719760475E-1,1.341095601E0,4.794482946E-2,1.600368191E0
1.555642342E1,8.144031197E-1,1.290684124E0,-4.937973619E-3,1.526152788E0
1.556639042E1,7.255326046E-1,1.290125715E0,-7.356031179E-2,1.481969311E0
1.557635742E1,6.513695911E-1,1.302057543E0,-1.668216473E-1,1.465423369E0
1.558632342E1,6.197857095E-1,1.331010908E0,-2.544082600E-1,1.490116749E0
1.559629042E1,6.561894509E-1,1.414558995E0,-3.545815891E-1,1.599152854E0
1.560625642E1,7.033052914E-1,1.580490989E0,-4.146915507E-1,1.778920791E0
1.561622342E1,7.093378638E-1,1.828134897E0,-3.994349957E-1,2.001196073E0
1.562618942E1,6.839730808E-1,2.047391305E0,-3.547347862E-1,2.187571050E0
1.563615642E1,7.554396509E-1,1.922854236E0,-2.604004866E-1,2.082274212E0
1.564612342E1,9.448677302E-1,1.118009706E0,2.084532380E-3,1.463804999E0
1.565608942E1,1.096489906E0,-4.873347268E-2,6.625246167E-1,1.282031175E0
1.566605642E1,1.098802187E0,-8.391137454E-1,1.774981953E0,2.249897566E0
1.567602242E1,1.199057231E0,-1.083526336E0,3.139625022E0,3.531148941E0
1.568598942E1,1.481135100E0,-1.139058805E0,4.288897598E0,4.678232439E0
1.569595642E1,1.802113326E0,-1.259011072E0,5.063034452E0,5.519695569E0
1.570592333E1,2.015386716E0,-1.478761131E0,5.249462398E0,5.814238864E0
1.571589033E1,2.034007905E0,-1.720898132E0,4.886529230E0,5.565684725E0
1.572585633E1,1.836739952E0,-1.720185356E0,3.964567748E0,4.695790534E0
1.573582333E1,1.623329445E0,-1.512992924E0,2.712904580E0,3.504881929E0
1.574579033E1,1.603425523E0,-1.334397908E0,1.451350846E0,2.541261588E0
1.575575633E1,1.601214837E0,-1.240828278E0,2.573535025E-1,2.042002594E0
1.576572333E1,1.499975560E0,-1.146466935E0,-8.914290762E-1,2.087811992E0
1.577568933E1,1.449898690E0,-9.957330246E-1,-1.890518256E0,2.582198626E0
1.578565633E1,1.322136151E0,-8.127463111E-1,-2.628291276E0,3.052296774E0
1.579562333E1,1.139897223E0,-6.459340194E-1,-2.956497245E0,3.233801539E0
1.580558933E1,9.105814849E-1,-5.480320412E-1,-2.927556451E0,3.114495871E0
1.581555633E1,6.092747547E-1,-5.696860349E-1,-2.515955738E0,2.650620905E0
1.582552233E1,3.191974559E-1,-7.491208573E-1,-1.830195456E0,2.003168611E0
1.583548933E1,1.317442737E-1,-9.096003221E-1,-9.735555589E-1,1.338857620E0
1.584545533E1,-1.315068036E-2,-8.948342022E-1,-2.239805192E-1,9.225337191E-1
1.585542233E1,3.051303707E-2,-7.719318688E-1,2.608396125E-1,8.153816033E-1
1.586538933E1,1.284070484E-1,-6.900076997E-1,5.184930772E-1,8.726018948E-1
1.587535533E1,1.749614100E-1,-6.629450315E-1,4.744910252E-1,8.338161325E-1
1.588532233E1,1.465364867E-1,-6.641440031E-1,1.439923632E-1,6.951934979E-1
1.589528833E1,1.036888213E-1,-6.289408413E-1,-3.239696610E-1,7.150344710E-1
1.590525533E1,6.819790341E-2,-5.057859081E-1,-8.045569932E-1,9.527760987E-1
1.591522233E1,-1.093166202E-2,-3.082251558E-1,-1.302859050E0,1.338866667E0
1.592518833E1,-8.211851589E-2,-1.307392104E-1,-1.794390616E0,1.801020231E0
1.593515533E1,-1.992057203E-1,-3.942485154E-3,-2.207818583E0,2.216790779E0
1.594512133E1,-3.057779498E-1,1.482096675E-1,-2.463351263E0,2.486677644E0
1.595508833E1,-2.205896457E-1,3.644161673E-1,-2.589393259E0,2.624198236E0
1.596505533E1,-1.903559594E-1,5.016628902E-1,-2.719622446E0,2.772047491E0
1.597502133E1,-2.224134654E-1,5.701375861E-1,-2.698486515E0,2.767011762E0
1.598498833E1,-2.266430488E-1,6.131241229E-1,-2.420929129E0,2.507625591E0
1.599495433E1,-2.430925090E-1,6.331566837E-1,-2.044971873E0,2.154504889E0
1.600492133E1,-2.327282462E-1,6.199036771E-1,-1.587657044E0,1.720202864E0
1.601488733E1,-2.840286465E-1,5.916021301E-1,-1.074173276E0,1.258774634E0
1.602485433E1,-4.086602209E-1,5.301993491E-1,-5.431630647E-1,8.620560543E-1
1.603482133E1,-5.306405215E-1,4.975369486E-1,-1.454436421E-2,7.275533773E-1
1.604478733E1,-5.647290578E-1,5.709706682E-1,4.150043768E-1,9.039662856E-1
1.605475433E1,-6.466423365E-1,6.292966443E-1,7.969830948E-1,1.203886469E0
1.606472033E1,-8.214944766E-1,6.880689092E-1,1.059039513E0,1.506604357E0
1.607468733E1,-1.002108975E0,7.511334689E-1,1.158877212E0,1.706288451E0
1.608465433E1,-1.143859004E0,7.893603721E-1,1.141737269E0,1.798629258E0
1.609462033E1,-1.295283397E0,7.943049239E-1,1.093976042E0,1.872288165E0
1.610458733E1,-1.402363165E0,9.414688168E-1,9.330185670E-1,1.929639766E0
1.611455333E1,-1.408442808E0,1.103990860E0,6.936949539E-1,1.919301866E0
1.612452033E1,-1.329720866E0,1.211365474E0,4.201300460E-1,1.847179783E0
1.613448633E1,-1.164871412E0,1.187531200E0,1.176489025E-1,1.667632160E0
1.614445333E1,-9.520486227E-1,1.040850579E0,4.943236113E-3,1.410599498E0
1.615442033E1,-8.449926091E-1,9.750670642E-1,7.219615638E-2,1.292277282E0
1.616438633E1,-8.214819051E-1,1.085861714E0,3.763729924E-1,1.412651695E0
1.617435333E1,-6.981157413E-1,1.016620156E0,8.388520825E-1,1.491494199E0
1.618431933E1,-5.781230555E-1,3.423987691E-1,1.398831155E0,1.551834973E0
1.619428633E1,-5.428672687E-1,-5.672215797E-1,1.959102588E0,2.110575310E0
1.620425333E1,-4.812692638E-1,-1.099259586E0,2.450563987E0,2.728599567E0
1.621421933E1,-4.145338221E-1,-1.256553195E0,2.840628235E0,3.133677231E0
