"Time (s)","Linear Acceleration x (m/s^2)","Linear Acceleration y (m/s^2)","Linear Acceleration z (m/s^2)","Absolute acceleration (m/s^2)"
6.919583306E-3,2.628412606E-1,-4.040309072E-1,8.936662209E-1,1.015364869E0
1.688658330E-2,1.776568303E-1,-2.548035318E-1,6.470126845E-2,3.172901563E-1
2.685358329E-2,2.623571111E-1,2.240869385E-1,2.227356470E-1,4.106791670E-1
3.681958327E-2,-6.731022298E-2,7.902330691E-1,5.061308938E-1,9.408333812E-1
4.678658326E-2,-3.730377406E-2,1.576181298E-1,2.917691906E-1,3.337129110E-1
5.675358337E-2,-1.403431159E-1,2.187209487E-1,5.020395970E-1,5.653130112E-1
6.672058336E-2,-2.990146217E-1,9.095501822E-1,4.664717151E-1,1.065029173E0
7.668758335E-2,-2.559425694E-1,8.234405762E-1,2.687411012E-1,9.032069313E-1
8.665458334E-2,-7.144949618E-1,5.410785323E-1,4.806781103E-1,1.017015474E0
9.662158333E-2,-4.738279510E-1,7.815177941E-1,5.992973582E-1,1.092904531E0
1.065885833E-1,-5.432669990E-1,1.705236949E0,7.714985901E-1,1.948892547E0
1.165555833E-1,-4.051781309E-1,1.532424830E0,6.879804701E-1,1.727950319E0
1.265225833E-1,-3.974662381E-1,1.437105859E0,9.114318162E-1,1.747558473E0
1.364885833E-1,-2.080195208E-1,1.468656850E0,8.737679999E-1,1.721538725E0
1.464555833E-1,-1.029042712E-1,1.542760368E0,1.029000612E0,1.857294027E0
1.564225833E-1,-4.349188238E-2,1.670851228E0,1.354445964E0,2.151315700E0
1.663895833E-1,-2.222687468E-2,1.651941333E0,1.507009322E0,2.236175596E0
1.763565834E-1,-8.918319494E-2,1.485969286E0,1.588052754E0,2.176687830E0
1.863235834E-1,-1.903868034E-1,1.739812120E0,1.618105835E0,2.383581306E0
1.962905833E-1,-6.074610946E-1,1.565063403E0,1.540869963E0,2.278752439E0
2.062575833E-1,-9.899144603E-1,1.450688941E0,2.055071038E0,2.703284301E0
2.162245833E-1,-1.258852613E0,1.200772512E0,2.580604309E0,3.112247279E0
2.261915833E-1,-1.208597256E0,1.015207030E0,2.784003798E0,3.200317139E0
2.361585833E-1,-1.110763252E0,8.413213617E-1,2.628028736E0,2.974584286E0
2.461248334E-1,-9.463279992E-1,2.593842405E-1,2.318098825E0,2.517220496E0
2.560918333E-1,-8.933083713E-1,-3.711461663E-2,2.183517409E0,2.359475708E0
2.660588333E-1,-7.976049462E-1,-2.368578422E-1,2.191622673E0,2.344245130E0
2.760258333E-1,-6.513798237E-1,-5.737153512E-1,2.146170804E0,2.315058120E0
2.859928333E-1,-3.758625305E-1,-1.095538418E0,2.097581173E0,2.396105975E0
2.959598333E-1,7.406244144E-2,-1.544410452E0,2.359850429E0,2.821273283E0
3.059268333E-1,5.701777858E-1,-1.696489515E0,2.933549847E0,3.436407148E0
3.158938333E-1,8.627448289E-1,-1.801969192E0,3.275910171E0,3.837057343E0
3.258608333E-1,1.202218090E0,-1.411089842E0,3.279402128E0,3.767091875E0
3.358278333E-1,1.065919932E0,-1.274576653E0,3.178930006E0,3.586966257E0
3.457948333E-1,8.175875133E-1,-1.395743240E0,3.483981001E0,3.841181088E0
3.557608334E-1,8.254903176E-1,-1.647167081E0,3.718828570E0,4.150214403E0
3.657278334E-1,8.895247842E-1,-1.886363810E0,3.659851799E0,4.212379132E0
3.756948333E-1,5.828717986E-1,-1.904439307E0,3.602083063E0,4.116021258E0
3.856618333E-1,1.409725687E-1,-2.087718528E0,3.505621546E0,4.082624688E0
3.956288333E-1,-6.345030051E-1,-1.379365189E0,2.715544598E0,3.111177406E0
4.055958333E-1,-1.253680166E0,-4.080543762E-1,1.832053847E0,2.257131727E0
4.155628333E-1,-1.758613550E0,2.879513973E-1,3.576952314E-1,1.817576272E0
4.255298333E-1,-1.144442044E0,2.598046553E-1,-2.467998630E-1,1.199231514E0
4.354968333E-1,2.144632986E-1,4.016282862E-1,-5.852045453E-1,7.414608193E-1
4.454638333E-1,1.665758450E0,-3.267693079E-1,-8.335113819E-1,1.891103016E0
4.554298333E-1,2.203618821E0,-1.636949657E0,-1.354452688E0,3.061058995E0
4.653968334E-1,2.097976298E0,-1.612625824E0,-1.796142295E0,3.198154740E0
4.753638334E-1,1.775057821E0,-1.577303964E-1,-2.146953015E0,2.790182143E0
4.853308334E-1,1.441083574E0,1.997692457E0,-1.942447525E0,3.136972968E0
4.952978333E-1,1.132172832E0,2.617638234E0,-1.913451767E0,3.434405758E0
5.052648333E-1,3.556805733E-1,2.284767357E0,-2.647406409E0,3.515029337E0
5.152318333E-1,-1.911703303E-1,1.753165991E0,-2.945650660E0,3.433219320E0
5.251988333E-1,-4.721299195E-1,1.240108486E0,-2.716726905E0,3.023471646E0
5.351658333E-1,-4.915435526E-1,7.823597932E-1,-2.351105772E0,2.526143357E0
5.451328333E-1,-4.301651837E-1,3.739551687E-1,-1.997379777E0,2.077115916E0
5.550998333E-1,-7.052679093E-1,-3.985520661E-2,-1.922749279E0,2.048403293E0
5.650668333E-1,-1.189201018E0,-2.686035454E-1,-1.955754326E0,2.304630536E0
5.750338333E-1,-1.440942217E0,-2.525137621E-1,-1.812098908E0,2.328901056E0
5.849998334E-1,-1.191147995E0,6.519703925E-2,-1.605203953E0,1.999940982E0
5.949668334E-1,-6.700118302E-1,5.873703539E-1,-1.523090919E0,1.764575228E0
6.049338334E-1,-8.907794505E-2,1.107029951E0,-1.416183498E0,1.799729394E0
6.149008333E-1,2.665615515E-1,1.292577306E0,-1.206140841E0,1.787900132E0
6.248678333E-1,4.660407753E-1,1.193756438E0,-9.976537619E-1,1.624057101E0
6.348348333E-1,5.225861281E-1,8.496682620E-1,-8.138558934E-1,1.287398086E0
6.448018333E-1,6.042793322E-1,5.041896182E-1,-5.763115150E-1,9.754463823E-1
6.547688333E-1,6.630132978E-1,2.037403822E-1,-3.178371012E-1,7.629660538E-1
6.647358333E-1,5.817801234E-1,7.721248269E-3,-1.844709561E-1,6.103746909E-1
6.747028333E-1,1.108322185E-1,-2.716657323E-1,-1.897053105E-1,3.493911212E-1
6.846698333E-1,1.341105688E-1,3.395624310E-1,-2.512197733E-2,3.659500006E-1
6.946368333E-1,-3.170474347E-1,5.243765455E-1,-1.184728849E-1,6.241199098E-1
7.046028334E-1,-7.238047524E-1,5.834445333E-1,-1.347876763E-1,9.393979778E-1
7.145698334E-1,-9.357974562E-1,8.398765147E-1,-2.128726001E-1,1.275313367E0
7.245368334E-1,-9.295533608E-1,1.001872455E0,-2.510723869E-1,1.389552162E0
7.345038333E-1,-1.313303639E0,6.736623931E-1,-7.198803205E-2,1.477758351E0
7.444708333E-1,-4.457117607E-1,1.621835774E0,-1.181272413E-1,1.686109218E0
7.544378333E-1,-6.459705645E-1,1.245774438E0,3.730112454E-2,1.403788906E0
7.644048333E-1,-5.504580510E-1,6.814304191E-1,1.890662098E-1,8.961570809E-1
7.743718333E-1,-3.553950830E-1,2.688602382E-1,2.443276785E-1,5.082199397E-1
7.843388333E-1,-9.078971744E-2,3.423468751E-1,3.597914582E-1,5.048703290E-1
7.943058333E-1,-3.315998389E-1,-1.745510817E-2,4.779595935E-1,5.819866897E-1
8.042728333E-1,4.845441431E-3,3.880335099E-1,7.631832647E-1,8.561788240E-1
8.142398333E-1,-3.307230489E-1,7.833748698E-2,7.433951175E-1,8.174049166E-1
8.242068333E-1,-4.823552379E-1,1.531853557E-2,8.240726602E-1,9.549853310E-1
8.341728334E-1,-4.445668758E-1,5.642791146E-1,8.012077081E-1,1.076096844E0
8.441398334E-1,-1.100531355E0,-2.984886646E-1,7.390927362E-1,1.358868213E0
8.541068333E-1,-1.031371219E0,2.364187163E-1,9.532692289E-1,1.424198941E0
8.640738333E-1,-1.268880588E0,3.271984935E-1,7.445809329E-1,1.507155455E0
8.740408333E-1,-1.661776496E0,-2.963830823E-1,8.077729619E-1,1.871320713E0
8.840078333E-1,-1.485327993E0,4.296691936E-1,1.112476047E0,1.904840628E0
8.939748333E-1,-2.090038557E0,-3.728067756E-1,1.107397156E0,2.394488363E0
9.039418333E-1,-2.350793969E0,-6.464821959E-1,1.542736394E0,2.885170203E0
9.139088333E-1,-2.081881983E0,1.930791539E-1,1.781133224E0,2.746624786E0
9.238758333E-1,-3.090642312E0,-5.073634869E-1,1.430706081E0,3.443313448E0
9.338428333E-1,-3.773465538E0,-4.477669108E-1,1.779534595E0,4.195983883E0
9.438098333E-1,-3.870058032E0,-3.388642734E-1,1.580876613E0,4.194204219E0
9.537768334E-1,-3.791081737E0,-9.228391492E-1,1.541991459E0,4.195434482E0
9.637428334E-1,-3.296620131E0,-7.704156858E-1,1.974085493E0,3.918961362E0
9.737098333E-1,-2.612400883E0,-4.153096014E-1,2.300420938E0,3.505575121E0
9.836768333E-1,-2.703053775E0,-1.473979570E0,1.412465985E0,3.387355258E0
9.936438333E-1,-2.795399437E0,-1.571308814E0,1.228024922E0,3.433848367E0
1.003610833E0,-1.936763446E0,-1.943676463E0,1.053764009E0,2.939277025E0
1.013577833E0,-8.529358323E-1,-2.623658527E0,7.943783064E-1,2.870909350E0
1.023544833E0,5.521530126E-1,-2.466494726E0,6.844529910E-1,2.618576919E0
1.033511833E0,2.567065081E-1,-4.095126718E0,-4.195014703E-1,4.124553619E0
1.043478833E0,-7.129948586E-3,-3.663519173E0,-1.292846132E0,3.884954914E0
1.053445833E0,1.028174400E-2,-2.987337799E0,-2.407999181E0,3.837023963E0
1.063412833E0,4.756065278E-1,-2.491424915E0,-2.604745123E0,3.635670066E0
1.073379833E0,1.810354976E0,-1.663810596E0,-2.382586012E0,3.423794232E0
1.083346833E0,3.345392050E0,-8.581157345E-1,-2.173252329E0,4.080568130E0
1.093312833E0,4.031073979E0,5.058543205E-2,-2.117068773E0,4.553470819E0
1.103279833E0,4.017599655E0,1.097735801E0,-1.589868461E0,4.458005451E0
1.113246833E0,3.780116161E0,1.625942858E0,-6.634344435E-1,4.168106720E0
1.123213833E0,3.457665607E0,1.315736958E0,-1.278797027E-1,3.701752073E0
1.133180833E0,3.176652223E0,7.469695204E-1,2.833794594E-2,3.263416285E0
1.143147833E0,2.679728063E0,-3.309816420E-2,3.619543433E-2,2.680176876E0
1.153114833E0,2.007291831E0,-6.247744077E-1,-2.572564022E-1,2.117957604E0
1.163081833E0,1.178904803E0,-9.754553193E-1,-5.326614289E-1,1.620203015E0
1.173048833E0,4.260753487E-1,-1.245507220E0,-7.123452330E-1,1.496751205E0
1.183015833E0,-1.567214593E-1,-1.511755507E0,-7.325064325E-1,1.687166857E0
1.192982833E0,-4.672988769E-1,-1.447874091E0,-5.560895044E-1,1.619858994E0
1.202949833E0,-2.619121380E-1,-1.196909257E0,-4.136542547E-1,1.293174226E0
1.212916833E0,1.051231433E-1,-8.699464059E-1,-3.887550197E-1,9.586386648E-1
1.222883833E0,5.424827412E-1,-2.310655904E-1,-4.140453969E-1,7.204945678E-1
1.232849833E0,5.892961344E-1,3.183580881E-1,-4.226495747E-1,7.919939831E-1
1.242817083E0,5.307391933E-1,7.634727019E-1,-1.770373908E-1,9.465288667E-1
1.252784083E0,5.899888102E-1,1.084753228E0,-1.026648277E-1,1.239078863E0
1.262751083E0,8.726595870E-1,1.337305582E0,-2.306457603E-1,1.613418248E0
1.272718083E0,1.017693632E0,1.440261601E0,-2.894313276E-1,1.787127388E0
1.282685083E0,1.132807693E0,1.405649008E0,-3.348231896E-1,1.836085230E0
1.292652083E0,1.210287686E0,1.669464853E0,-2.742157761E-1,2.080169097E0
1.302619083E0,1.292117276E0,1.984921553E0,-1.160327321E-1,2.371274810E0
1.312586083E0,1.395977275E0,2.098583239E0,-3.297829628E-2,2.520692709E0
1.322553083E0,1.083974818E0,1.698735430E0,9.482941255E-3,2.015141036E0
1.332520083E0,5.579702613E-1,1.704154045E0,3.800467980E-1,1.833005016E0
1.342487083E0,-1.748829111E-2,1.405178892E0,7.906955107E-1,1.612461767E0
1.352454083E0,-5.331267576E-1,1.003374020E0,1.125035866E0,1.598965060E0
1.362420083E0,-5.371037413E-1,1.298054393E0,1.410968366E0,1.991044291E0
1.372387083E0,-5.089743948E-1,1.462316714E0,1.396533930E0,2.085121609E0
1.382354083E0,-4.916026095E-1,1.376246284E0,1.589393082E0,2.159142730E0
1.392321083E0,-6.112231931E-1,1.419584677E0,1.604345728E0,2.227720733E0
1.402288083E0,-9.097729611E-1,1.402999635E0,1.482292118E0,2.234565895E0
1.412255083E0,-9.767693348E-1,1.155226795E0,1.557768416E0,2.171467182E0
1.422222083E0,-8.070591630E-1,6.809772599E-1,1.910430365E0,2.182846467E0
1.432189083E0,-6.076938137E-1,2.289477289E-2,2.330796638E0,2.408823138E0
1.442156083E0,-4.551525289E-1,-6.640086401E-1,2.644641845E0,2.764453253E0
1.452123083E0,-4.168164289E-1,-1.114931293E0,2.556187506E0,2.819734436E0
1.462090083E0,-4.225769596E-1,-1.163316418E0,2.018862301E0,2.368054342E0
1.472057083E0,-3.401543154E-1,-8.656042635E-1,1.659600747E0,1.902432742E0
1.482024083E0,-1.169524992E-1,-4.673381263E-1,1.651056795E0,1.719904460E0
1.491990083E0,1.231148797E-1,-1.286650568E-1,1.925677272E0,1.933893721E0
1.501957083E0,1.988129336E-1,4.015692294E-2,2.328986779E0,2.337802082E0
1.511924083E0,3.038740964E-1,1.329984283E-1,2.601945477E0,2.623003681E0
1.521891083E0,3.128213596E-1,5.149835783E-1,2.754167796E0,2.819309408E0
1.531858083E0,3.241442004E-1,3.817892683E-1,3.625794691E0,3.660221257E0
1.541825083E0,9.714366741E-1,-1.862800115E-1,4.014174356E0,4.134245423E0
1.551792083E0,1.378937904E0,-1.008659318E0,3.713639166E0,4.087784146E0
1.561759083E0,1.474984268E0,-1.826286008E0,2.071976800E0,3.131131909E0
1.571726083E0,1.271219035E0,-2.286144376E0,-7.732866687E-1,2.727714467E0
1.581693083E0,1.283909686E0,-2.254233781E0,-2.070655183E0,3.319278070E0
1.591660083E0,1.974956436E0,-7.995038295E-1,-2.146015999E0,3.024077374E0
1.601627083E0,3.129096526E0,-9.889530319E-1,-1.303698856E0,3.531133511E0
1.611593083E0,4.358787612E0,-3.718136845E0,-2.675745524E0,6.323225850E0
1.621560083E0,3.422423561E0,-4.531169962E0,-4.828302072E0,7.453655825E0
1.631527083E0,1.477257958E0,-2.037667531E0,-5.338948771E0,5.902436278E0
1.641494083E0,8.961944108E-1,6.070169985E-1,-5.779532377E0,5.880019435E0
1.651461083E0,2.815365632E-1,1.970923319E0,-5.074568084E0,5.451150595E0
1.661428083E0,-2.920390396E-1,2.326609447E0,-3.831876884E0,4.492402338E0
1.671395083E0,-3.372119965E-1,2.317673732E0,-3.291046858E0,4.039345600E0
1.681362083E0,1.349904285E-1,2.491907310E0,-3.473349009E0,4.276912180E0
1.691329083E0,7.617999597E-1,2.494228655E0,-3.627483952E0,4.467678993E0
1.701296083E0,1.075802457E0,2.031099354E0,-3.541713485E0,4.222138074E0
1.711263083E0,7.437029734E-1,1.418195379E0,-3.082412356E0,3.473562750E0
1.721230083E0,3.554580867E-2,6.261444104E-1,-2.556400344E0,2.632204978E0
1.731196083E0,-5.513519441E-1,-1.483684194E-1,-2.377223530E0,2.444830028E0
1.741163083E0,-6.476364362E-1,-4.597917098E-1,-2.370962770E0,2.500461123E0
1.751130083E0,-3.560144493E-1,-3.505166048E-1,-2.184731437E0,2.241129097E0
1.761097083E0,-4.616727591E-2,-8.780179024E-3,-1.766561816E0,1.767186792E0
1.771064083E0,2.048083761E-1,2.858101469E-1,-1.320764248E0,1.366767028E0
1.781031083E0,4.945197853E-1,4.169538385E-1,-9.935425115E-1,1.185549258E0
1.790998083E0,6.125778468E-1,6.089044797E-1,-7.957165148E-1,1.174385395E0
1.800965083E0,6.828682494E-1,7.385653174E-1,-6.653892408E-1,1.206039226E0
1.810932083E0,6.764157008E-1,6.879752076E-1,-7.044707146E-1,1.194624240E0
1.820899083E0,4.988497947E-1,7.267416626E-1,-7.177959343E-1,1.136765396E0
1.830866083E0,4.215206601E-1,6.553851664E-1,-6.301070684E-1,1.002119903E0
1.840833083E0,1.905842932E-1,3.674115497E-1,-5.986958259E-1,7.278394821E-1
1.850799083E0,9.263963029E-2,4.076696295E-1,-5.919171123E-1,7.246671620E-1
1.860766083E0,-8.676113203E-2,4.246423423E-1,-4.042828856E-1,5.926999785E-1
1.870733083E0,-2.459531862E-1,5.289917529E-1,-1.436596566E-1,6.008022481E-1
1.880700083E0,-4.738970943E-1,3.068969607E-1,1.507511415E-1,5.843715489E-1
1.890667083E0,-5.322202930E-1,3.740978408E-1,2.618839252E-1,7.012779941E-1
1.900634083E0,-4.618965612E-1,7.385635632E-1,4.135109979E-1,9.642696281E-1
1.910601083E0,-6.275541741E-1,5.102648753E-1,6.022906941E-1,1.008438677E0
1.920568083E0,-5.788892600E-1,8.540864182E-1,8.186213011E-1,1.317086641E0
1.930535083E0,-9.226058453E-1,5.360844254E-2,6.284669244E-1,1.117607304E0
1.940502083E0,-1.127256785E0,2.416876423E-1,1.075123449E0,1.576391832E0
1.950469083E0,-1.591491794E0,-1.356144726E-2,9.563232297E-1,1.856767127E0
1.960436083E0,-2.176801882E0,-1.297660875E-1,1.117080730E0,2.450137757E0
1.970402083E0,-2.448710566E0,2.772030455E-1,9.539241171E-1,2.642535938E0
1.980369083E0,-2.618701550E0,5.064624310E-1,7.752653664E-1,2.777613794E0
1.990336083E0,-2.643726756E0,8.249953508E-1,8.803907025E-1,2.906027577E0
2.000303083E0,-2.630398905E0,5.621402031E-1,8.309478164E-1,2.815221888E0
2.010270083E0,-2.473984424E0,1.892024499E-1,8.980492938E-1,2.638728678E0
2.020237083E0,-1.928112637E0,5.295957702E-1,9.325689161E-1,2.206303425E0
2.030204083E0,-1.344584927E0,1.068219057E0,1.000311248E0,1.987365888E0
2.040171083E0,-1.884621339E0,-5.282006246E-1,7.347412384E-1,2.090607132E0
2.050138083E0,-1.855443441E0,-8.292579710E-2,1.180511910E0,2.200717024E0
2.060105083E0,-1.584520159E0,6.454840761E-1,1.048501661E0,2.006666280E0
2.070072083E0,-2.648810325E0,-9.338383466E-1,1.029918040E0,2.991484810E0
2.080039083E0,-2.623315588E0,-1.891258514E-1,1.558543757E0,3.057222907E0
2.090005083E0,-2.639932205E0,-5.357686758E-2,1.313960574E0,2.949339743E0
2.099972083E0,-3.172721432E0,-1.214400033E0,1.638099804E0,3.771511593E0
2.109939083E0,-2.879132442E0,-9.260691512E-1,2.172748299E0,3.723955272E0
2.119906083E0,-2.661820380E0,-8.043529254E-1,2.730990018E0,3.897509184E0
2.129873083E0,-3.197230622E0,-1.887134473E0,2.048742743E0,4.240389957E0
2.139840083E0,-2.913151835E0,-1.944561732E0,1.802592505E0,3.939176777E0
2.149807083E0,-1.590971100E0,-2.245340166E0,1.197329744E0,3.001056484E0
2.159774083E0,-7.058131622E-1,-2.846519889E0,3.510364223E-1,2.953654392E0
2.169741083E0,-1.005415283E0,-3.076832943E0,4.516506314E-2,3.237252034E0
2.179708083E0,-1.784797966E0,-3.158017439E0,-2.902243562E-1,3.639066928E0
2.189675083E0,-2.205449438E0,-2.824470624E0,-1.099336184E0,3.748357183E0
2.199642083E0,-2.208723148E0,-2.288618917E0,-2.024348159E0,3.770175057E0
2.209608083E0,-1.574659268E0,-1.857118961E0,-2.275300276E0,3.332481656E0
2.219575083E0,3.022820458E-1,-1.223814635E0,-2.100889527E0,2.450068061E0
2.229542083E0,2.414901380E0,-2.373308820E-1,-2.310095741E0,3.350315948E0
2.239509083E0,3.979798868E0,8.731571120E-1,-2.347201002E0,4.702186185E0
2.249475750E0,4.393554280E0,1.723986631E0,-2.329982121E0,5.263484188E0
2.259442750E0,4.055035869E0,1.908480318E0,-2.473686801E0,5.119056496E0
2.269409750E0,3.825251403E0,1.429578738E0,-2.006657993E0,4.550046150E0
2.279376750E0,3.660619538E0,5.480250245E-1,-1.555700841E0,4.015055658E0
2.289343750E0,3.307740659E0,-3.698024762E-1,-1.193435426E0,3.535843641E0
2.299310750E0,2.679150358E0,-8.210139817E-1,-8.450396061E-1,2.926773400E0
2.309277750E0,2.370218128E0,-1.212881511E0,-6.775110304E-1,2.747369056E0
2.319244750E0,2.294694175E0,-1.534762546E0,-9.370198166E-1,2.915325636E0
2.329210750E0,2.054822677E0,-1.611024857E0,-7.804582787E-1,2.725217872E0
2.339177750E0,1.623537021E0,-1.746057531E0,-4.608816308E-1,2.428374197E0
2.349144750E0,8.978598440E-1,-1.685256429E0,-3.400097430E-2,1.909816116E0
2.359111750E0,-1.923396273E-1,-1.267845923E0,2.098226559E-1,1.299405003E0
2.369078750E0,-1.188882345E0,-8.029770756E-1,2.035584607E-1,1.449016722E0
2.379045750E0,-1.835393923E0,-2.090221721E-1,2.062569873E-1,1.858736955E0
2.389012750E0,-1.876916463E0,3.874189675E-1,1.439374725E-1,1.921881074E0
2.398979750E0,-1.842088254E0,3.171588242E-1,1.125255722E-1,1.872575996E0
2.408946750E0,-2.050919661E0,-2.607390404E-2,4.133320000E-1,2.092318008E0
2.418913750E0,-1.822710143E0,1.724998784E-1,4.248868290E-1,1.879509854E0
2.428880750E0,-1.252406642E0,7.556906426E-1,5.363686001E-1,1.557973690E0
2.438846750E0,-7.715000519E-1,1.049375820E0,8.094282355E-1,1.533484923E0
2.448813750E0,-1.935906391E-1,1.002190543E0,8.865980335E-1,1.352005656E0
2.458780750E0,4.164464463E-1,5.562491333E-1,8.509569152E-1,1.098621142E0
2.468747750E0,3.101668699E-1,1.119651166E0,1.540185693E0,1.929247052E0
2.478714750E0,2.725955857E-1,7.473390645E-1,1.530971212E0,1.725310662E0
2.488681750E0,-6.558237076E-3,7.911692083E-1,1.828343643E0,1.992192813E0
2.498648750E0,-4.362508196E-1,7.877924412E-1,2.035946696E0,2.226209931E0
2.508615750E0,-8.447709265E-1,2.444687535E0,1.981471257E0,3.258276140E0
2.518582750E0,-8.146839322E-1,2.680023932E0,1.039009803E0,2.987604317E0
2.528549750E0,-9.655026273E-1,3.120426275E0,5.854939093E-1,3.318442191E0
2.538516750E0,-9.964823453E-1,3.399036745E0,2.579445098E-1,3.551473388E0
2.548483750E0,-9.463518266E-1,3.276555703E0,1.596845359E-1,3.414220000E0
2.558449750E0,-7.429421045E-1,2.783845339E0,2.779931505E-1,2.894656807E0
2.568416750E0,-4.360207316E-1,2.055347757E0,4.643326575E-1,2.151783748E0
2.578383750E0,-7.895115227E-2,1.322123871E0,6.995259435E-1,1.497858926E0
2.588350750E0,3.781632636E-1,6.041565406E-1,1.073077508E0,1.288218894E0
2.598317750E0,9.015030979E-1,-1.222500765E-1,1.407846977E0,1.676211808E0
2.608284750E0,1.383522559E0,-7.079639143E-1,1.642461096E0,2.261200130E0
2.618251750E0,1.613519571E0,-9.962702376E-1,1.756527556E0,2.584838263E0
2.628218750E0,1.682562032E0,-9.960930669E-1,1.717098026E0,2.602237887E0
2.638185750E0,1.729338441E0,-7.285449439E-1,1.608018657E0,2.471257409E0
2.648152750E0,1.717866789E0,-3.025039476E-1,1.491649856E0,2.295124013E0
2.658119750E0,1.706607829E0,7.987530470E-2,1.498183535E0,2.272321335E0
2.668086750E0,1.697104788E0,1.755766833E-1,1.879809519E0,2.538636576E0
2.678053750E0,1.484794580E0,2.354369688E-1,2.372023602E0,2.808298680E0
2.688019750E0,1.319760427E0,5.629699230E-2,3.073791806E0,3.345613995E0
2.697986750E0,1.362007876E0,-9.573663729E-1,4.186432745E0,4.505311860E0
2.707953750E0,1.843562630E0,-1.749163572E0,4.201171237E0,4.910003679E0
2.717920750E0,1.924441901E0,-3.118669771E0,3.448398939E0,5.032000896E0
2.727887750E0,1.366955936E0,-3.594187567E0,1.854003564E0,4.268967324E0
2.737854750E0,2.204318440E-1,-2.774773384E0,-6.768725145E-1,2.864631552E0
2.747821750E0,2.836678733E-1,-1.136162533E0,-1.766007793E0,2.118989450E0
2.757788750E0,1.395968504E0,-6.397783631E-1,-1.734236946E0,2.316381273E0
2.767755750E0,2.304575238E0,-2.193768309E0,-2.597751269E0,4.107553782E0
2.777722750E0,3.272386639E0,-4.697418582E0,-3.891938313E0,6.922531291E0
2.787689750E0,4.080214857E0,-5.736959385E0,-5.285017562E0,8.802969209E0
2.797656750E0,3.656539351E0,-3.636194549E0,-6.173411933E0,8.043830289E0
2.807623750E0,2.534493166E0,-3.321224338E-1,-5.752664421E0,6.295006661E0
2.817590750E0,1.737590324E0,2.117211299E0,-4.296465064E0,5.095234624E0
2.827556750E0,7.622877637E-1,3.126882185E0,-3.370590625E0,4.660402987E0
2.837523750E0,2.995021333E-1,3.601287256E0,-2.622610121E0,4.465092976E0
2.847490750E0,2.545608723E-1,4.292783073E0,-2.345581323E0,4.898422143E0
2.857457750E0,-5.399475347E-1,4.178183493E0,-2.908809108E0,5.119563562E0
2.867424750E0,-1.740651780E0,3.379883021E0,-3.507050021E0,5.172318407E0
2.877391750E0,-2.338624306E0,2.395239971E0,-3.813139481E0,5.074088181E0
2.887358750E0,-2.224948440E0,9.840390319E-1,-3.769306998E0,4.486246050E0
2.897325750E0,-1.849626192E0,-8.233446819E-1,-3.419404936E0,3.973832361E0
2.907292750E0,-1.670224991E0,-2.446073910E0,-2.486486356E0,3.867239777E0
2.917259750E0,-1.204331858E0,-2.724216603E0,-1.652194663E0,3.406100194E0
2.927226750E0,-7.253152344E-1,-1.869940735E0,-1.598555084E0,2.564788276E0
2.937193750E0,-6.358924498E-1,-6.250223297E-1,-1.792052753E0,2.001615645E0
2.947159750E0,-1.370542033E-1,4.453718913E-1,-1.744474690E0,1.805638923E0
2.957126750E0,1.822917719E-1,1.453790889E0,-1.347009767E0,1.990269718E0
2.967093750E0,7.437962365E-1,1.804180024E0,-8.621264128E-1,2.133438622E0
2.977060750E0,6.890415935E-1,1.754153001E0,-6.636963987E-1,1.998080073E0
2.987027750E0,7.305331434E-1,1.573585719E0,-6.403157222E-1,1.849284974E0
2.996994750E0,4.473624296E-1,1.087468091E0,-5.568869184E-1,1.301093014E0
3.006961750E0,3.083353758E-2,7.390699321E-1,-6.648616026E-1,9.945933954E-1
3.016928750E0,-2.938290185E-1,5.143596804E-1,-6.436633263E-1,8.747593101E-1
3.026895750E0,-6.858329339E-1,1.845533288E-1,-2.934857869E-1,7.684794412E-1
3.036862750E0,-6.631451525E-1,1.285861194E-1,-2.564647257E-2,6.759834502E-1
3.046829750E0,-8.510157529E-1,3.767010212E-2,5.015332282E-2,8.533242080E-1
3.056796750E0,-1.080986160E0,-3.728746033E-1,7.448658384E-2,1.145912212E0
3.066763750E0,-1.126624263E0,-3.796357387E-1,1.185300779E-1,1.194761442E0
3.076729750E0,-1.137095310E0,-1.153176177E-1,-1.070205648E-1,1.147927393E0
3.086696750E0,-8.016249070E-1,2.248950237E-1,-1.271067739E-2,8.326714985E-1
3.096663750E0,-5.530036363E-1,6.244633359E-1,3.221640408E-1,8.941795954E-1
3.106630750E0,-3.836437127E-1,1.057159048E0,5.283988452E-1,1.242567138E0
3.116597750E0,-5.471546665E-1,6.321816605E-1,6.563598973E-1,1.062939413E0
3.126564750E0,-4.260360262E-1,7.547480714E-1,1.011387629E0,1.331937042E0
3.136531750E0,-6.634877993E-1,7.371976537E-1,1.078801348E0,1.465431263E0
3.146498750E0,-7.116374275E-1,9.226333272E-1,1.007921399E0,1.540644551E0
3.156465750E0,-1.049744925E0,9.391289073E-1,7.282122374E-1,1.585629394E0
3.166432750E0,-1.454343743E0,4.170871550E-1,7.796127713E-1,1.702020414E0
3.176399750E0,-1.335403191E0,1.132720862E0,7.465882820E-1,1.903615585E0
3.186366750E0,-1.586876879E0,7.948213792E-1,6.263899934E-1,1.882095555E0
3.196333750E0,-1.980949101E0,-3.915289754E-1,8.851620305E-1,2.204759873E0
3.206299750E0,-1.522445240E0,9.399334842E-1,1.198617228E0,2.153601106E0
3.216266750E0,-2.203171070E0,-4.054792625E-1,1.011912124E0,2.458117642E0
3.226233750E0,-2.032718156E0,1.584022415E-1,1.333418938E0,2.436193842E0
3.236200750E0,-2.655211857E0,-6.413641280E-1,7.723598119E-1,2.838668284E0
3.246167208E0,-2.717520956E0,-6.021328193E-1,1.397168791E0,3.114412418E0
3.256134208E0,-2.981946082E0,-7.253278059E-1,1.681977310E0,3.499592909E0
3.266101208E0,-3.412051770E0,-2.063605195E0,1.268788494E0,4.184541543E0
3.276068208E0,-2.672534818E0,-1.194275086E0,1.528665655E0,3.302355829E0
3.286035208E0,-2.494616325E0,-1.094687063E0,2.023969259E0,3.393803462E0
3.296002208E0,-3.231838829E0,-2.085456240E0,1.820724721E0,4.255461016E0
3.305969208E0,-3.096134894E0,-1.698688653E0,1.509659865E0,3.840659752E0
3.315936208E0,-2.718694493E0,-2.784021340E0,8.762122822E-1,3.988711888E0
3.325903208E0,-2.002194813E0,-3.526840507E0,4.796424222E-1,4.083802748E0
3.335869208E0,-1.823348367E0,-3.473589914E0,3.550780177E-2,3.923224052E0
3.345836208E0,-1.518289478E0,-3.144544870E0,-5.240031277E-1,3.530997685E0
3.355803208E0,-9.989707741E-1,-2.701529406E0,-1.042836878E0,3.063284593E0
3.365770208E0,-2.472034670E-1,-2.232286842E0,-1.617295411E0,2.767644945E0
3.375737208E0,9.470998317E-1,-1.656865858E0,-2.288561615E0,2.979885371E0
3.385704208E0,2.116571029E0,-6.708200616E-1,-2.786209953E0,3.562700995E0
3.395671208E0,2.903017733E0,6.046827900E-1,-2.974000300E0,4.199741780E0
3.405638208E0,3.405368110E0,1.574903682E0,-2.990235679E0,4.797745615E0
3.415605208E0,3.662246526E0,2.072882388E0,-2.796955966E0,5.052905470E0
3.425572208E0,3.816146119E0,2.318574203E0,-2.044875248E0,4.911239387E0
3.435539208E0,3.498262533E0,1.824069913E0,-1.346577512E0,4.168733955E0
3.445506208E0,3.240875993E0,9.498310661E-1,-8.983849239E-1,3.494646152E0
3.455473208E0,2.897764595E0,1.918717039E-1,-9.814949083E-1,3.065483103E0
3.465439208E0,2.445939424E0,-3.878019601E-1,-1.344016432E0,2.817692353E0
3.475406208E0,2.017154622E0,-7.951084775E-1,-1.492462034E0,2.632214502E0
3.485373208E0,1.962469268E0,-1.125372081E0,-1.607918231E0,2.775454735E0
3.495340208E0,2.197063946E0,-1.217404917E0,-1.922585557E0,3.163147157E0
3.505307208E0,2.359992371E0,-1.078428295E0,-2.065093312E0,3.316199928E0
3.515274208E0,2.002113244E0,-9.121089238E-1,-1.523479759E0,2.676077485E0
3.525241208E0,1.415111703E0,-5.540768927E-1,-6.317425346E-1,1.645794934E0
3.535208208E0,1.007154537E0,-3.893964958E-1,-2.280144767E-1,1.103621536E0
3.545175208E0,7.574437109E-1,-1.529508823E-1,-2.257293848E-1,8.050271441E-1
3.555142208E0,2.519484095E-1,-3.164659292E-1,7.018877070E-2,4.105546844E-1
3.565109208E0,-1.170548254E-1,-8.262215120E-1,3.572473347E-1,9.077276448E-1
3.575076208E0,-3.015666389E-1,-9.968561286E-1,6.135951161E-1,1.208785980E0
3.585042208E0,-2.666271865E-2,-8.958197504E-1,6.903884266E-1,1.131300184E0
3.595009208E0,3.389303470E-1,-5.354172581E-1,8.390398512E-1,1.051443433E0
3.604976208E0,6.740441432E-1,-2.332647282E-1,1.012244319E0,1.238299843E0
3.614943208E0,9.350722553E-1,-1.570755082E-1,1.003786906E0,1.380804473E0
3.624910208E0,9.083607124E-1,1.198264056E-1,8.810051718E-1,1.271081297E0
3.634877208E0,4.978174688E-1,2.559911013E-3,7.134328882E-1,8.699513040E-1
3.644844208E0,-3.819309171E-1,1.055732328E-1,7.578979665E-1,8.552346231E-1
3.654811208E0,-8.111158150E-1,1.037271498E0,9.959971726E-1,1.651015262E0
3.664778208E0,-1.287807294E0,1.547612388E0,9.951985891E-1,2.245878884E0
3.674745208E0,-1.631159451E0,1.684493367E0,1.094498929E0,2.587687571E0
3.684712208E0,-1.923422878E0,1.649666181E0,1.119766867E0,2.770348699E0
3.694679208E0,-1.935217443E0,1.560768038E0,9.081146908E-1,2.646835037E0
3.704645208E0,-1.714672163E0,1.608960205E0,6.008054283E-1,2.426895286E0
3.714612208E0,-1.320773457E0,1.663068584E0,3.437906988E-1,2.151379019E0
3.724579208E0,-8.599519064E-1,1.588261061E0,2.005939955E-1,1.817230979E0
3.734546208E0,-3.660737067E-1,1.310289107E0,2.589587094E-1,1.384892456E0
3.744513208E0,8.704457581E-2,8.130553365E-1,4.112574810E-1,9.152969212E-1
3.754480208E0,3.760806316E-1,3.781616557E-1,5.172989295E-1,7.429946580E-1
3.764447208E0,5.572674260E-1,1.638974547E-3,6.218864679E-1,8.350403878E-1
3.774414208E0,6.551862149E-1,-2.617874461E-1,8.008276391E-1,1.067298717E0
3.784381208E0,6.540512703E-1,-9.982015729E-2,7.790390132E-1,1.022080678E0
3.794348208E0,7.539595744E-1,3.128178513E-1,5.871152692E-1,1.005492112E0
3.804315208E0,8.540120123E-1,5.858857459E-1,4.457852894E-1,1.127529666E0
3.814282208E0,8.214352736E-1,5.074465173E-1,6.345785804E-1,1.155399434E0
3.824248208E0,6.327880168E-1,2.702477825E-1,1.414604457E0,1.573073523E0
3.834215208E0,9.521869093E-2,9.308358014E-2,2.483642855E0,2.487209879E0
3.844182208E0,-4.732072690E-1,-1.769425929E-2,3.257973837E0,3.292207728E0
3.854149208E0,-9.727707164E-1,-5.628120482E-2,3.413271791E0,3.549630229E0
3.864116208E0,-1.288047176E0,-2.158558130E-2,2.862088101E0,3.138642981E0
3.874083208E0,-1.436020762E0,-1.844550955E-1,2.114373060E0,2.562567609E0
3.884050208E0,-1.546265335E0,-5.815453577E-1,7.455642883E-1,1.812456233E0
3.894017208E0,-1.422410344E0,-9.524734229E-1,-5.889586039E-1,1.810339484E0
3.903984208E0,-7.764590755E-1,-1.650226344E0,-5.706401543E-1,1.910959411E0
3.913951208E0,-1.549618860E-1,-2.238687204E0,-6.237341881E-1,2.329115266E0
3.923918208E0,3.947573693E-1,-2.394980355E0,-1.402278235E0,2.803238935E0
3.933885208E0,1.432132948E0,-2.041671120E0,-1.949112035E0,3.165195645E0
3.943851208E0,1.680509221E0,-1.508361198E0,-2.347463103E0,3.257276127E0
3.953818208E0,1.721855175E0,-2.076597708E0,-2.762473766E0,3.861127373E0
3.963785208E0,1.098099498E0,-2.345558519E0,-2.883318172E0,3.875692319E0
3.973752208E0,6.737350447E-1,-2.045466548E0,-2.889796302E0,3.603994308E0
3.983719208E0,3.244437240E-1,-1.914995871E0,-2.302923984E0,3.012628718E0
3.993686208E0,-4.578390321E-1,-1.472600212E0,-1.653514234E0,2.261034561E0
4.003653208E0,-1.276328040E0,-8.387123340E-1,-1.451566754E0,2.107011553E0
4.013620208E0,-1.766157920E0,-8.522960007E-2,-1.465036985E0,2.296282049E0
4.023587208E0,-2.315365544E0,3.389110512E-1,-1.794140794E0,2.948680974E0
4.033554208E0,-2.897328977E0,3.374293667E-1,-1.976846110E0,3.523676251E0
4.043521208E0,-3.120851367E0,4.550829470E-2,-2.295891246E0,3.874648484E0
4.053487208E0,-3.516926553E0,-2.600666106E-1,-2.529762769E0,4.340058373E0
4.063454208E0,-3.880980631E0,-3.397015947E-1,-2.669303062E0,4.722561452E0
4.073421208E0,-3.930732835E0,-1.880797845E-1,-2.485085363E0,4.654211414E0
4.083388208E0,-3.863121480E0,8.506295443E-2,-2.693919255E0,4.710429304E0
4.093355208E0,-3.916858854E0,1.531017405E-1,-3.041141539E0,4.961226187E0
4.103322208E0,-3.722961090E0,1.228195953E-1,-3.268525722E0,4.955682024E0
4.113289208E0,-3.551347357E0,-1.176781386E-1,-3.470690280E0,4.967052165E0
4.123256208E0,-3.423224922E0,-4.773754567E-1,-3.458419020E0,4.889480373E0
4.133223208E0,-3.459600743E0,-6.763988900E-1,-3.404127331E0,4.900452596E0
4.143190208E0,-3.495060013E0,-6.615855539E-1,-3.397947993E0,4.919267273E0
4.153157208E0,-3.411919915E0,-5.412621349E-1,-3.485332877E0,4.907311634E0
4.163123208E0,-3.196929198E0,-2.524096817E-1,-3.643787159E0,4.853993387E0
4.173090208E0,-2.944526533E0,8.526175976E-2,-3.620910512E0,4.667815228E0
4.183057208E0,-2.666520080E0,2.597912067E-1,-3.505181251E0,4.411815545E0
4.193024208E0,-2.540582749E0,2.497234708E-1,-3.439620515E0,4.283446253E0
4.202991208E0,-2.427911581E0,1.536303288E-1,-3.336671512E0,4.129374493E0
4.212958208E0,-2.403535708E0,-3.168723106E-2,-3.217489470E0,4.016245320E0
4.222925208E0,-2.378655806E0,-2.166943038E-1,-3.021169789E0,3.851288973E0
4.232892208E0,-2.306408486E0,-3.977854961E-1,-2.621647085E0,3.514368627E0
4.242859125E0,-2.255894683E0,-4.542421174E-1,-2.369623904E0,3.303106745E0
4.252826125E0,-2.208826643E0,-4.272677422E-1,-2.343406159E0,3.248542025E0
4.262793125E0,-2.314883441E0,-4.621294266E-1,-2.460781996E0,3.409940906E0
4.272760125E0,-2.575690016E0,-5.572870141E-1,-2.368228174E0,3.543056951E0
4.282726125E0,-2.903842483E0,-5.953459561E-1,-2.453961804E0,3.848203023E0
4.292693125E0,-3.006867792E0,-5.514438915E-1,-2.735543244E0,4.102260490E0
4.302660125E0,-3.137326190E0,-6.756194562E-1,-2.732778096E0,4.215133852E0
4.312627125E0,-3.219253575E0,-8.155871809E-1,-2.779679198E0,4.330749643E0
4.322594125E0,-3.151846580E0,-8.332820249E-1,-2.768920906E0,4.277314435E0
4.332561125E0,-2.987424338E0,-8.413032353E-1,-2.912327378E0,4.256071670E0
4.342528125E0,-2.825844135E0,-7.335162467E-1,-3.078218733E0,4.242507717E0
4.352495125E0,-2.680205196E0,-4.718761504E-1,-3.112351270E0,4.134355744E0
4.362462125E0,-2.556787430E0,-4.374436516E-1,-2.991342557E0,3.959374850E0
4.372429125E0,-2.390278316E0,-5.275077295E-1,-2.995564831E0,3.868475603E0
4.382396125E0,-2.051606709E0,-4.050834060E-1,-3.057014975E0,3.703852482E0
4.392362125E0,-1.954535035E0,-4.079754388E-1,-3.091738665E0,3.680421054E0
4.402329125E0,-1.732638464E0,-3.692399740E-2,-2.900920630E0,3.379162607E0
4.412296125E0,-1.739431759E0,-2.098331809E-2,-2.782885811E0,3.281846520E0
4.422263125E0,-1.642151632E0,1.889083350E-1,-2.647913947E0,3.121505504E0
4.432230125E0,-1.704025406E0,4.615873897E-1,-2.745016319E0,3.263721816E0
4.442197125E0,-1.835380767E0,7.009659666E-1,-3.171078365E0,3.730377172E0
4.452164125E0,-1.655790847E0,6.456472135E-1,-3.512444662E0,3.936466837E0
4.462131125E0,-9.721124661E-1,5.893642545E-1,-3.559555678E0,3.736681616E0
4.472098125E0,-9.935968906E-1,5.262786448E-2,-3.217609338E0,3.367939180E0
4.482065125E0,-1.538358292E0,-1.563130313E-1,-2.614107685E0,3.037192616E0
4.492032125E0,-2.048257131E0,-1.013872111E-1,-2.252179070E0,3.045972292E0
4.501998125E0,-2.341064056E0,-1.763765824E-1,-1.781806823E0,2.947291158E0
4.511965125E0,-2.227739608E0,-2.228783190E-1,-1.366860334E0,2.623128987E0
4.521932125E0,-2.112377844E0,-2.553537548E-1,-1.576223398E0,2.647985253E0
4.531899125E0,-1.972737564E0,-4.391370052E-1,-1.458810139E0,2.492521179E0
4.541866125E0,-1.953147783E0,-7.320713997E-1,-1.488289461E0,2.562366156E0
4.551833125E0,-2.192682773E0,-8.122156763E-1,-1.186927475E0,2.622279329E0
4.561800125E0,-2.027542200E0,-5.409212422E-1,-9.826153079E-1,2.317122355E0
4.571767125E0,-1.843572862E0,-4.101786697E-1,-1.078097854E0,2.174695938E0
4.581734125E0,-1.866649337E0,-2.760242468E-1,-1.086913190E0,2.177601758E0
4.591701125E0,-2.013571156E0,5.156191707E-2,-8.388427269E-1,2.181922215E0
4.601668125E0,-1.973310591E0,6.326278031E-1,-3.401114114E-1,2.099963904E0
4.611634125E0,-1.770699452E0,1.033908180E0,-1.810929465E-1,2.058430793E0
4.621601125E0,-1.207196848E0,9.835010880E-1,1.221085739E-1,1.561892801E0
4.631568125E0,-5.447340654E-1,8.051960939E-1,5.777751461E-1,1.130884641E0
4.641535125E0,-2.524707851E-1,6.290814668E-1,4.700763774E-1,8.248980481E-1
4.651502125E0,-4.643765116E-1,5.101303893E-1,3.604456155E-1,7.783312922E-1
4.661469125E0,-7.470383714E-1,6.133431011E-1,4.886706693E-1,1.083076688E0
4.671436125E0,-6.831250884E-1,3.851058090E-1,5.397202241E-1,9.519791441E-1
4.681403125E0,-3.915335070E-1,2.921806884E-1,8.918582618E-1,1.016896849E0
4.691370125E0,-4.090568814E-1,9.051372886E-2,1.317931856E0,1.382918886E0
4.701337125E0,-7.238605933E-1,-1.941275597E-3,1.134349458E0,1.345632424E0
4.711304125E0,-1.404386887E0,-5.078148919E-1,1.274928363E-1,1.498810500E0
4.721270125E0,-2.252543497E0,-1.704980257E0,-6.747816963E-1,2.904520652E0
4.731237125E0,-1.931845646E0,-2.636548714E0,-6.201592004E-1,3.326862509E0
4.741204125E0,-1.141814159E0,-3.263328132E0,-4.909005050E-1,3.491995615E0
4.751171125E0,5.477262318E-2,-2.891996024E0,6.773414612E-3,2.892522588E0
4.761138125E0,-5.681008548E-2,-3.717615858E0,-3.779222122E-1,3.737207547E0
4.771105125E0,3.837463313E-1,-3.497886849E0,-7.603979436E-1,3.600094261E0
4.781072125E0,6.978343441E-1,-2.386326476E0,-1.129239576E0,2.730697501E0
4.791039125E0,5.660544755E-1,-1.680243611E0,-1.095748333E0,2.084298604E0
4.801006125E0,5.702928297E-1,-8.121741611E-1,-8.270442152E-1,1.291844771E0
4.810973125E0,8.241204612E-1,-8.431801915E-2,-5.554296461E-1,9.973896704E-1
4.820940125E0,1.072075588E0,4.593566769E-1,-5.444146612E-1,1.287144882E0
4.830906125E0,1.200168202E0,6.952894896E-1,-7.766751301E-1,1.589671490E0
4.840873125E0,1.287902311E0,6.621112186E-1,-1.119263641E0,1.830255372E0
4.850840125E0,1.401109230E0,5.483735186E-1,-1.375653523E0,2.038686637E0
4.860807125E0,1.716335842E0,5.109115773E-1,-1.341993441E0,2.237808249E0
4.870774125E0,2.312985873E0,3.387151694E-1,-1.053548831E0,2.564097649E0
4.880741125E0,2.923969769E0,-3.525344789E-2,-7.516490471E-1,3.019241346E0
4.890708125E0,3.206682646E0,-4.925840646E-1,-8.765244504E-1,3.360617170E0
4.900675125E0,3.306782885E0,-7.470578134E-1,-1.006097799E0,3.536260907E0
4.910642125E0,3.161679550E0,-8.869284743E-1,-1.158540412E0,3.482107923E0
4.920609125E0,2.658742990E0,-8.492653888E-1,-1.311212382E0,3.083738624E0
4.930576125E0,2.071347494E0,-6.925477302E-1,-1.253006859E0,2.517961276E0
4.940543125E0,1.478051571E0,-5.294215232E-1,-8.888621485E-1,1.804161721E0
4.950509125E0,9.889799291E-1,-4.348229295E-1,-3.891415207E-1,1.148295869E0
4.960476125E0,6.753297266E-1,-5.137843144E-1,7.040047646E-2,8.514697813E-1
4.970443125E0,2.871586610E-1,-6.501963472E-1,3.240094221E-1,7.811513888E-1
4.980410125E0,-1.554219157E-1,-7.704794204E-1,5.710156918E-1,9.715211935E-1
4.990377125E0,-3.995721129E-1,-1.168791751E0,6.581918299E-1,1.399624419E0
5.000344125E0,-5.940961137E-1,-1.226256432E0,6.421704590E-1,1.506332609E0
5.010311125E0,-7.794461256E-1,-1.111617091E0,5.972433776E-1,1.483215585E0
5.020278125E0,-9.318155023E-1,-6.751680511E-1,4.239148756E-1,1.226309851E0
5.030245125E0,-1.062679551E0,-1.757310498E-1,3.793789729E-1,1.141970943E0
5.040212125E0,-1.097380437E0,2.435944194E-1,4.730660222E-1,1.219579241E0
5.050179125E0,-9.910039428E-1,3.958418816E-1,4.393691397E-1,1.154047161E0
5.060146125E0,-1.193820173E0,-6.518476009E-3,5.846028668E-1,1.329289136E0
5.070112125E0,-1.133988831E0,3.536781943E-1,6.124502313E-1,1.336455843E0
5.080079125E0,-6.424376768E-1,-1.806789637E-1,1.889451724E-1,6.935930613E-1
5.090046125E0,-9.279582404E-1,1.453290952E0,8.344110491E-1,1.915568554E0
5.100013125E0,-7.580904861E-1,2.484998825E0,7.352246569E-1,2.700088080E0
5.109980125E0,-5.191967896E-1,2.388168933E0,5.867585890E-1,2.513404425E0
5.119947125E0,-4.341643868E-1,2.144755193E0,7.193618187E-1,2.303465862E0
5.129914125E0,-4.857289352E-1,2.124612120E0,8.246000791E-1,2.330209121E0
5.139881125E0,-6.212904905E-1,2.124081777E0,8.254485101E-1,2.362009846E0
5.149848125E0,-7.641164804E-1,2.293838142E0,9.991757190E-1,2.616088595E0
5.159815125E0,-1.039802027E0,3.199165465E0,1.077078904E0,3.532130645E0
5.169782125E0,-1.109630938E0,3.084695109E0,1.077216606E0,3.450655061E0
5.179749125E0,-9.094998962E-1,2.702171431E0,1.313823749E0,3.139275927E0
5.189716125E0,-7.105483836E-1,2.070802533E0,1.298307577E0,2.545329979E0
5.199682125E0,-6.237838894E-1,1.399162107E0,1.487340458E0,2.135168045E0
5.209649125E0,-5.977386367E-1,7.588726974E-1,2.150443364E0,2.357453268E0
5.219616125E0,-6.817099160E-1,3.116618568E-1,2.607141897E0,2.712756973E0
5.229583125E0,-7.500469100E-1,-1.778079808E-2,2.598367565E0,2.704514842E0
5.239550125E0,-5.537756149E-1,-2.004735428E-1,2.190849379E0,2.268629118E0
5.249517458E0,-2.218878007E-1,-2.632264459E-1,1.964948634E0,1.994879819E0
5.259484458E0,-6.820660114E-2,-4.235687935E-1,2.142090032E0,2.184630946E0
5.269451458E0,2.353270411E-2,-6.937627816E-1,2.372516522E0,2.471982045E0
5.279418458E0,1.686756532E-1,-8.192311656E-1,2.566797279E0,2.699636910E0
5.289385458E0,-2.403731883E-2,-7.397809535E-1,2.723801451E0,2.822578253E0
5.299352458E0,-2.553778745E-1,-4.937880063E-1,2.886655762E0,2.939698274E0
5.309319458E0,-2.560862647E-1,-6.149984479E-1,3.270999679E0,3.338149512E0
5.319285458E0,1.031396216E-1,-1.423416358E0,3.311924926E0,3.606327581E0
5.329252458E0,4.227199240E-1,-2.615527389E0,3.063513570E0,4.050282836E0
5.339219458E0,7.795428970E-1,-3.903065565E0,2.064207605E0,4.483587957E0
5.349186458E0,3.388832769E-1,-4.436346250E0,-3.990911794E-1,4.467133723E0
5.359153458E0,-1.133744417E-1,-3.877795653E0,-1.610840815E0,4.200590556E0
5.369120458E0,-2.000654072E-2,-1.729476582E0,-1.903412536E0,2.571860959E0
5.379087458E0,2.183003877E-1,7.992605853E-1,-1.828207403E0,2.007190786E0
5.389054458E0,8.657282245E-1,1.615837700E0,-9.155197509E-1,2.049046911E0
5.399021458E0,1.774003129E0,1.131453770E-1,-2.191665065E-1,1.791067541E0
5.408988458E0,2.407193873E0,-2.590266248E0,-1.006802827E0,3.676644327E0
5.418955458E0,2.379330575E0,-4.131792853E0,-2.743320626E0,5.500793963E0
5.428922458E0,1.245869894E0,-2.391324676E0,-3.875697672E0,4.721404234E0
5.438889458E0,9.535672908E-1,5.975445092E-1,-3.396083316E0,3.577671297E0
5.448855458E0,5.884228528E-1,2.770861012E0,-2.839218471E0,4.010620117E0
5.458822458E0,-9.028789477E-1,3.252425414E0,-3.160012509E0,4.623758268E0
5.468789458E0,-1.712696827E0,2.865743195E0,-3.785254110E0,5.047173779E0
5.478756458E0,-1.553388852E0,2.552868041E0,-3.826150705E0,4.854851324E0
5.488723458E0,-1.264446059E0,1.855069512E0,-3.403414555E0,4.077172717E0
5.498690458E0,-1.191958127E0,1.030111583E0,-3.078908705E0,3.458550688E0
5.508657458E0,-1.299466349E0,8.577397585E-2,-3.003957340E0,3.274099826E0
5.518624458E0,-1.457538369E0,-4.942294711E-1,-3.062986152E0,3.427909718E0
5.528591458E0,-9.419762090E-1,-1.093290163E0,-2.921367173E0,3.258372097E0
5.538558458E0,-7.941454411E-1,-8.125758648E-1,-2.544008048E0,2.786202337E0
5.548525458E0,-4.136760356E-1,-2.353814203E-1,-2.192976450E0,2.244031636E0
5.558492458E0,1.411359984E-1,2.969280428E-1,-2.065932972E0,2.091928459E0
5.568459458E0,7.184959191E-1,6.527930957E-1,-2.037445922E0,2.256891911E0
5.578425458E0,9.558998913E-1,1.034780000E0,-1.898445327E0,2.364023881E0
5.588392458E0,1.217017685E0,1.058004556E0,-1.531680333E0,2.224084155E0
5.598359458E0,1.383620939E0,9.159867972E-1,-1.215275434E0,2.056777357E0
5.608326458E0,1.312534438E0,6.137348646E-1,-8.105691004E-1,1.660252812E0
5.618293458E0,1.033240136E0,1.397735971E-1,-4.553753078E-1,1.137755908E0
5.628260458E0,7.532421210E-1,-2.320116699E-2,-4.000740963E-1,8.532123239E-1
5.638227458E0,6.276155698E-1,2.691414893E-2,-3.893205551E-1,7.390508572E-1
5.648194458E0,4.109040168E-1,1.584975511E-1,-2.930385480E-1,5.289944946E-1
5.658161458E0,1.957066002E-1,1.867173833E-1,6.187399350E-2,2.774758470E-1
5.668128458E0,1.519765900E-1,5.154455084E-1,3.020057648E-1,6.164320222E-1
5.678095458E0,1.804743111E-3,6.344462872E-1,6.506244365E-1,9.087560210E-1
5.688062458E0,-1.546214318E-1,6.367688012E-1,9.114751587E-1,1.122572607E0
5.698028458E0,-1.818077686E-1,7.784953684E-1,1.087477446E0,1.349709709E0
5.707995458E0,-2.362656654E-1,7.328151655E-1,9.927671707E-1,1.256354324E0
5.717962458E0,-3.732751375E-1,5.486091614E-1,9.757125968E-1,1.179966699E0
5.727929458E0,-4.418369570E-1,6.963197690E-1,9.966175622E-1,1.293571677E0
5.737896458E0,-4.999813771E-1,4.813807994E-1,8.588770419E-1,1.104254783E0
5.747863458E0,-5.162335669E-1,6.890662980E-1,9.550058520E-1,1.285824885E0
5.757830458E0,-6.890184970E-1,8.141809255E-1,8.203602630E-1,1.345595790E0
5.767797458E0,-8.013155892E-1,6.995263821E-1,8.919336909E-1,1.388160488E0
5.777764458E0,-9.002605645E-1,1.150053763E0,9.472056663E-1,1.740773195E0
5.787731458E0,-8.947456169E-1,4.137495643E-1,7.001514494E-1,1.209119710E0
5.797698458E0,-5.816858371E-1,1.214312325E0,8.257812166E-1,1.579502280E0
5.807665458E0,-7.360827358E-1,2.377021801E-1,5.499037349E-1,9.490596599E-1
5.817631458E0,-6.708677164E-1,2.686842370E-1,9.199763525E-1,1.169876575E0
5.827598458E0,-6.895878696E-1,6.367074054E-1,8.449425423E-1,1.262875944E0
5.837565458E0,-1.248217551E0,-8.261823356E-1,8.333019054E-1,1.713188948E0
5.847532458E0,-1.203238721E0,3.345560449E-1,1.226653458E0,1.750539881E0
5.857499458E0,-2.082443462E0,-5.096398079E-1,6.993375170E-1,2.255077930E0
5.867466458E0,-2.574800947E0,-7.972011960E-1,8.551518539E-1,2.827793196E0
5.877433458E0,-2.661232735E0,-1.593313640E-1,9.766651082E-1,2.839264145E0
5.887400458E0,-3.235443345E0,-1.586840773E0,1.014588979E0,3.743734509E0
5.897367458E0,-3.420469129E0,-1.235395045E0,1.442271874E0,3.912282983E0
5.907334458E0,-3.363238921E0,-6.812637734E-1,1.546073985E0,3.763753597E0
5.917301458E0,-3.819788350E0,-6.895025003E-1,1.516160799E0,4.167126145E0
5.927268458E0,-4.332763117E0,-1.425525448E0,1.459047536E0,4.788922504E0
5.937235458E0,-3.914844781E0,-4.990926003E-1,1.679696896E0,4.289112349E0
5.947201458E0,-3.567609048E0,-7.247039080E-2,1.542019526E0,3.887275460E0
5.957168458E0,-3.880653187E0,-1.504447072E0,1.145758472E0,4.316896180E0
5.967135458E0,-3.628500490E0,-1.251423433E0,7.427566016E-1,3.909445458E0
5.977102458E0,-3.583758473E0,-2.466664295E0,4.648045278E-1,4.375362932E0
5.987069458E0,-2.565541589E0,-3.323087845E0,7.914380340E-1,4.272152927E0
5.997036458E0,-1.434889910E0,-2.962880650E0,4.619923094E-1,3.324305596E0
6.007003458E0,-1.031505851E-1,-2.599687282E0,6.303943129E-1,2.677015315E0
6.016970458E0,-2.756919788E-1,-3.467943842E0,-4.717301162E-1,3.510722129E0
6.026937458E0,2.737119654E-1,-3.532004768E0,-2.015593708E-1,3.548323844E0
6.036904458E0,1.224063872E0,-2.631704881E0,-4.654279871E-1,2.939528219E0
6.046871458E0,1.619902099E0,-2.302297309E0,-8.709803398E-1,2.946737597E0
6.056838458E0,1.973180783E0,-1.503802709E0,-9.823450935E-1,2.668307867E0
6.066804458E0,2.055375532E0,-8.234399915E-1,-9.181029046E-1,2.396984551E0
6.076771458E0,2.132820003E0,-2.282560033E-1,-7.011618483E-1,2.256690033E0
6.086738458E0,2.110587719E0,4.427038068E-1,-4.099025349E-1,2.195128076E0
6.096705458E0,1.958336895E0,1.095046082E0,-1.312638518E-1,2.247540770E0
6.106672458E0,1.795445454E0,1.639518338E0,-3.314842102E-1,2.453879895E0
6.116639458E0,1.915562320E0,2.003691700E0,-4.133164318E-1,2.802675490E0
6.126606458E0,1.876840011E0,1.909995332E0,-6.373112766E-1,2.752594459E0
6.136573458E0,2.026013738E0,1.390176691E0,-9.660522656E-1,2.640185577E0
6.146540458E0,2.781407050E0,7.444411844E-1,-8.075729140E-1,2.990416671E0
6.156507458E0,3.308864786E0,-2.194109201E-2,-6.922552963E-1,3.380574652E0
6.166474458E0,3.515035855E0,-5.490605664E-1,-8.030390561E-1,3.647165515E0
6.176441458E0,3.255095837E0,-7.463374364E-1,-1.408602437E0,3.624476418E0
6.186407458E0,2.691472195E0,-6.918220907E-1,-1.654733963E0,3.234313663E0
6.196374458E0,1.893382515E0,-4.888909632E-1,-1.068428972E0,2.228329462E0
6.206341458E0,9.019303831E-1,-4.202113223E-1,-4.059954985E-1,1.074657302E0
6.216308458E0,-2.255271077E-2,-5.029511780E-1,1.702358365E-2,5.037442948E-1
6.226275458E0,-6.047143650E-1,-5.556106174E-1,5.157781784E-1,9.697472613E-1
6.236242458E0,-9.413766501E-1,-6.409150618E-1,7.280847681E-1,1.351691364E0
6.246210083E0,-9.984171159E-1,-4.124111366E-1,5.909546971E-1,1.231319267E0
6.256177083E0,-1.055737371E0,-2.649548829E-2,5.449406183E-1,1.188378595E0
6.266144083E0,-8.769842608E-1,2.814837921E-1,5.873621678E-1,1.092395915E0
6.276111083E0,-5.469497216E-1,3.126108599E-1,4.079081959E-1,7.505122543E-1
6.286078083E0,-3.359813038E-1,1.267857617E-1,2.897569809E-1,4.614294896E-1
6.296045083E0,-2.455801338E-1,2.489855522E-1,3.374533037E-1,4.859816247E-1
6.306011083E0,8.661422074E-2,5.899472219E-1,3.001405030E-1,6.675507991E-1
6.315978083E0,4.226409866E-1,1.058929585E0,5.819522874E-1,1.280088175E0
6.325945083E0,5.691653404E-1,1.260329327E0,1.141882280E0,1.793397429E0
6.335912083E0,5.813243330E-1,1.022137150E0,1.583159366E0,1.972079083E0
6.345879083E0,4.869071491E-1,5.415205818E-1,1.862406598E0,1.999720342E0
6.355846083E0,1.560130692E-1,5.139351726E-2,1.987361012E0,1.994137699E0
6.365813083E0,-5.207360691E-1,-2.028703165E-1,2.080067446E0,2.153834488E0
6.375780083E0,-1.177602920E0,-1.719139874E-1,1.973212504E0,2.304315656E0
6.385747083E0,-1.588944162E0,5.930871767E-1,1.475260549E0,2.247863349E0
6.395714083E0,-1.435272318E0,1.738057371E0,8.288363137E-1,2.401628549E0
6.405681083E0,-1.133059708E0,2.529221317E0,5.157747066E-1,2.819008393E0
6.415647083E0,-1.133278248E0,2.519478101E0,4.943217840E-1,2.806500225E0
6.425614083E0,-1.209224077E0,2.036520892E0,7.878935981E-1,2.496080234E0
6.435581083E0,-1.269624207E0,1.416861629E0,1.347639220E0,2.331431743E0
6.445548083E0,-1.327277315E0,8.602318418E-1,2.087243003E0,2.618825547E0
6.455515083E0,-1.192480575E0,4.414156651E-1,2.633305848E0,2.924236208E0
6.465482083E0,-8.054697436E-1,9.707313538E-2,2.838318585E0,2.951992054E0
6.475449083E0,-2.969416375E-1,-6.237224936E-2,2.770132449E0,2.786700274E0
6.485416083E0,1.602384134E-1,-1.127822649E-1,2.630037839E0,2.637327288E0
6.495383083E0,6.179713185E-1,-1.482310098E-1,2.557057571E0,2.634844285E0
6.505350083E0,1.025206938E0,-3.264968276E-2,2.239512246E0,2.463235752E0
6.515317083E0,1.037592949E0,1.828728390E-1,1.570675560E0,1.891312592E0
6.525284083E0,9.587890005E-1,5.058034497E-1,1.148006799E0,1.578934162E0
6.535250083E0,5.604278460E-1,8.877003068E-1,1.331228425E0,1.695364363E0
6.545217083E0,7.397289133E-1,8.648154742E-1,2.757079709E0,2.982715741E0
6.555184083E0,1.890457153E0,-3.749772620E-1,2.827468491E0,3.421843694E0
6.565151083E0,2.806871966E0,-2.760453553E0,2.605373114E0,4.720868894E0
6.575118083E0,3.796603555E0,-5.252210004E0,1.857439973E0,6.741660903E0
6.585085083E0,3.623068720E0,-6.012774886E0,-9.918025263E-1,7.089694001E0
6.595052083E0,3.066079913E0,-3.503944564E0,-2.488194036E0,5.279165001E0
6.605019083E0,3.193046939E0,1.052671310E0,-1.437442366E0,3.656488233E0
6.614986083E0,2.550035650E0,2.541229159E0,-7.035709012E-1,3.668179312E0
6.624953083E0,1.898262894E0,-1.652160019E-1,-2.369574495E0,3.040654803E0
6.634920083E0,1.532196642E0,-2.446629395E0,-4.737439265E0,5.547697967E0
6.644886083E0,1.235035003E0,-2.305150166E0,-6.074851266E0,6.613837513E0
6.654853083E0,7.130397360E-1,-1.017114392E0,-5.733627641E0,5.866637306E0
6.664820083E0,-3.721485253E-1,4.157136440E-2,-4.590672398E0,4.605919644E0
6.674787083E0,-1.701183659E0,7.834257406E-1,-3.774727367E0,4.213828239E0
6.684754083E0,-1.938163562E0,1.501016511E0,-3.280262253E0,4.095076191E0
6.694721083E0,-1.370070601E0,1.921742388E0,-3.266286823E0,4.029741539E0
6.704688083E0,-6.121042223E-1,2.151125150E0,-3.610922298E0,4.247442858E0
6.714655083E0,-3.130824378E-1,2.141578401E0,-3.856902966E0,4.422677826E0
6.724622083E0,-4.699665959E-1,1.861382166E0,-3.662705825E0,4.135338696E0
6.734589083E0,-3.588563423E-1,9.506373972E-1,-3.069949016E0,3.233740295E0
6.744556083E0,-1.416736498E-1,6.571802616E-2,-2.293338936E0,2.298650421E0
6.754522083E0,5.074203511E-1,-4.499064070E-1,-1.821173787E0,1.943338661E0
6.764489083E0,6.830173534E-1,-2.037666947E-1,-1.550712581E0,1.706676033E0
6.774456083E0,7.617610757E-1,3.139130348E-1,-1.406820936E0,1.630327107E0
6.784423083E0,5.564347824E-1,6.649927264E-1,-1.195003210E0,1.476437492E0
6.794390083E0,2.169425181E-1,7.990553480E-1,-1.031024333E0,1.322333045E0
6.804357083E0,4.117638499E-2,7.208003068E-1,-8.200059217E-1,1.092546699E0
6.814324083E0,-1.443816416E-1,6.386615449E-1,-4.979712506E-1,8.226238471E-1
6.824291083E0,-3.118051136E-1,5.165488780E-1,3.963184297E-2,6.046617692E-1
6.834258083E0,-5.664785448E-1,1.932457995E-1,4.998411901E-1,7.797968300E-1
6.844225083E0,-1.052779338E0,-7.277444601E-3,6.728572315E-1,1.249453540E0
6.854192083E0,-1.609262506E0,-2.163504875E-1,7.076392476E-1,1.771238733E0
6.864158083E0,-2.049901076E0,9.074469388E-2,6.224886581E-1,2.144253052E0
6.874125083E0,-2.018971644E0,5.321726382E-1,6.676947248E-1,2.192092713E0
6.884092083E0,-2.186105386E0,4.026351768E-1,6.511721744E-1,2.316289500E0
6.894059083E0,-1.891987808E0,7.030563462E-1,2.081059865E-1,2.029091963E0
6.904026083E0,-1.451223084E0,9.349007857E-1,3.159239653E-1,1.754963211E0
6.913993083E0,-1.273097015E0,1.047950268E0,6.037659101E-1,1.755992326E0
6.923960083E0,-1.086646264E0,8.654393721E-1,8.403968438E-1,1.623592395E0
6.933927083E0,-7.631595835E-1,9.234694791E-1,1.141225052E0,1.654570352E0
6.943894083E0,-8.022398879E-1,4.400877625E-1,8.938333782E-1,1.279141972E0
6.953861083E0,-6.576876538E-1,3.965260059E-1,9.397621608E-1,1.213646918E0
6.963828083E0,-5.993608005E-1,5.597644794E-1,4.181133413E-1,9.205370214E-1
6.973794083E0,-6.405485876E-1,6.014101034E-1,4.476312554E-1,9.860884070E-1
6.983761083E0,-1.172386034E0,2.351779372E-1,3.315792274E-1,1.240863594E0
6.993728083E0,-1.288133861E0,-3.421907544E-2,2.658466015E-1,1.315725733E0
7.003695083E0,-1.029002074E0,1.804836667E-1,4.684052432E-1,1.144911828E0
7.013662083E0,-1.095475852E0,1.351700842E-2,6.181699777E-1,1.257928525E0
7.023629083E0,-1.116699784E0,1.425931245E-1,6.140020823E-1,1.282322020E0
7.033596083E0,-1.135792843E0,2.067183691E-1,4.823321414E-1,1.251160326E0
7.043563083E0,-1.353949243E0,-7.052853048E-2,3.353834260E-1,1.396651305E0
7.053530083E0,-1.568770830E0,6.852235079E-2,3.801812840E-1,1.615634562E0
7.063497083E0,-2.092960557E0,-8.754965830E-1,4.826092994E-1,2.319458966E0
7.073464083E0,-2.093538408E0,-3.197339380E-1,6.306350720E-1,2.209713432E0
7.083430083E0,-2.829463561E0,-8.731331384E-1,4.987780201E-1,3.002832835E0
7.093397083E0,-3.350628231E0,-8.559967035E-1,7.647877407E-1,3.541799004E0
7.103364083E0,-3.742777596E0,-5.480834967E-1,5.777984985E-1,3.826569058E0
7.113331083E0,-4.337898727E0,-1.341184625E0,7.709694171E-1,4.605489703E0
7.123298083E0,-3.825585864E0,-6.125788701E-1,1.115722421E0,4.031773381E0
7.133265083E0,-3.823340241E0,-1.516921522E0,1.278518261E0,4.307387891E0
7.143232083E0,-3.287240905E0,-1.654166783E0,1.766598215E0,4.082044802E0
7.153199083E0,-2.082896475E0,-5.595937407E-1,1.902914354E0,2.876227724E0
7.163166083E0,-2.292830667E0,-1.249907835E0,1.530205811E0,3.026693226E0
7.173133083E0,-2.309932603E0,-1.087767468E0,1.131523937E0,2.792735776E0
7.183100083E0,-2.679683624E0,-1.139232321E0,2.893469815E-1,2.926136750E0
7.193066083E0,-1.337921586E0,-2.281040926E0,1.082023529E0,2.857263865E0
7.203033083E0,-8.138131356E-1,-3.703351575E0,2.758423984E-4,3.791715283E0
7.213000083E0,-9.150315084E-1,-3.220411908E0,-1.060093181E0,3.511713694E0
7.222967083E0,-1.431040104E0,-2.057746285E0,-2.060151830E0,3.244444654E0
7.232934083E0,-1.089272395E0,-1.426912408E0,-2.152040824E0,2.802476240E0
7.242901083E0,5.114670628E-1,-8.545881093E-1,-2.141537032E0,2.361800214E0
7.252868083E0,2.098806018E0,-4.334160894E-1,-1.920240677E0,2.877526797E0
7.262835083E0,3.380697538E0,-1.327955300E-1,-1.902324954E0,3.881441836E0
7.272802083E0,4.145955395E0,1.469381905E-1,-1.271758733E0,4.339113647E0
7.282769083E0,4.531430455E0,1.735687494E-1,-1.070952484E0,4.659498611E0
7.292736083E0,4.232490093E0,-2.220176089E-1,-1.386055573E0,4.459194351E0
7.302702083E0,3.837596630E0,-2.826239991E-1,-1.271832408E0,4.052725243E0
7.312669083E0,3.297100773E0,-1.781056041E-1,-1.321111718E0,3.556393016E0
7.322636083E0,2.690874610E0,-2.784601969E-1,-6.972499879E-1,2.793654201E0
7.332603083E0,2.283631681E0,-4.729350811E-1,-5.984601101E-1,2.407653577E0
7.342570083E0,1.857487335E0,-7.129369712E-1,-1.107680161E0,2.277167904E0
7.352537083E0,1.473279659E0,-9.192840421E-1,-1.171323595E0,2.094668247E0
7.362504083E0,1.183094625E0,-1.203300263E0,-8.557212996E-1,1.892063254E0
7.372471083E0,9.439742026E-1,-1.481822441E0,-6.556728494E-1,1.875311154E0
7.382438083E0,6.611749332E-1,-1.600365967E0,-3.203911650E-1,1.760958267E0
7.392405083E0,3.809363788E-1,-1.524118275E0,9.353205016E-3,1.571030402E0
7.402371083E0,1.232776516E-1,-1.134318321E0,9.022780001E-2,1.144559518E0
7.412338083E0,-3.920974709E-2,-6.795289046E-1,-1.919126526E-1,7.071968627E-1
7.422305083E0,-1.451952086E-1,-6.437901378E-2,-4.315607679E-1,4.598597638E-1
7.432272083E0,-1.420260908E-1,6.726993567E-1,-3.576941351E-1,7.750102768E-1
7.442239083E0,3.587398365E-2,1.199711827E0,-1.599570527E-1,1.210859888E0
7.452206083E0,2.988735576E-1,1.575551553E0,-2.307399370E-1,1.620163269E0
7.462173083E0,4.113494284E-1,1.549172425E0,-2.465496022E-1,1.621705972E0
7.472140083E0,2.527274778E-1,1.583583289E0,-1.124863958E-1,1.607563498E0
7.482107083E0,6.774598673E-2,1.686299572E0,1.460699520E-1,1.693969361E0
7.492074083E0,1.458077775E-1,1.836295272E0,3.367564253E-1,1.872603835E0
7.502041083E0,2.321644284E-1,2.038232372E0,5.338958126E-1,2.119749104E0
7.512007083E0,1.497072856E-1,2.143041374E0,8.290913254E-1,2.302700812E0
7.521974083E0,-2.569295794E-2,2.206772516E0,1.094861895E0,2.463580248E0
7.531941083E0,-2.247906509E-1,2.180679317E0,1.317025538E0,2.557430231E0
7.541908083E0,-5.168340759E-1,2.079233633E0,1.481402026E0,2.604780591E0
7.551875083E0,-7.284534350E-1,1.840126367E0,1.380388890E0,2.412920003E0
7.561842083E0,-9.306144843E-1,1.607327077E0,1.185023548E0,2.203139683E0
7.571809083E0,-1.028801076E0,1.804653064E0,1.234355995E0,2.416368982E0
7.581776083E0,-1.080050021E0,1.691200708E0,1.374247706E0,2.432123484E0
7.591743083E0,-1.058743790E0,1.333690833E0,1.352200925E0,2.174423371E0
7.601710083E0,-1.127769586E0,1.179678097E0,1.187108154E0,2.018100696E0
7.611676083E0,-1.214695025E0,1.033651487E0,1.149747954E0,1.966173888E0
7.621643083E0,-1.227284519E0,7.347944480E-1,1.215112077E0,1.876871741E0
7.631610083E0,-1.106754547E0,3.773997635E-1,1.541905944E0,1.935151195E0
7.641577083E0,-8.227244385E-1,2.281992853E-2,1.925084072E0,2.093643937E0
7.651544083E0,-4.713118941E-1,-4.510366738E-1,2.112496689E0,2.210929950E0
7.661511083E0,-4.344700500E-2,-1.077037243E0,2.236182111E0,2.482419646E0
7.671478083E0,3.804264285E-1,-1.662751665E0,2.231382131E0,2.808653340E0
7.681445083E0,7.047479457E-1,-1.881070910E0,2.174912208E0,2.960631782E0
7.691412083E0,9.800222871E-1,-1.561179097E0,2.185391295E0,2.858961170E0
7.701379083E0,1.051531396E0,-8.042845130E-1,1.903481534E0,2.318584439E0
7.711345083E0,1.117614580E0,6.338206351E-2,1.571730398E0,1.929615526E0
7.721312083E0,1.164589649E0,7.315194225E-1,1.546664554E0,2.069676535E0
7.731279083E0,1.086979994E0,1.087772146E0,2.007016865E0,2.528416589E0
7.741246083E0,1.416997723E0,5.136217618E-1,2.888866594E0,3.258410665E0
7.751213083E0,2.212426043E0,-9.599023104E-1,2.773460099E0,3.675366970E0
7.761180083E0,2.770346164E0,-2.732115022E0,3.070389896E0,4.956466935E0
7.771147083E0,2.796308387E0,-3.824712875E0,1.766693963E0,5.056577571E0
7.781114083E0,1.432326345E0,-3.384465483E0,-8.994875626E-1,3.783549027E0
7.791081083E0,8.461361052E-1,-1.695889590E0,-1.244991496E0,2.267596004E0
7.801048083E0,2.222173205E0,-5.381584328E-1,-1.467955769E0,2.717087115E0
7.811015083E0,3.187086287E0,-1.729088911E0,-3.617938372E0,5.122181716E0
7.820981083E0,3.637396152E0,-3.849909697E0,-5.500171124E0,7.635727721E0
7.830948083E0,4.015349939E0,-4.239612586E0,-6.334781637E0,8.615498152E0
7.840915083E0,2.534219224E0,-2.581856782E0,-6.355925168E0,7.313414816E0
7.850882083E0,1.118183514E0,1.069800729E-1,-4.611016030E0,4.745866406E0
7.860849083E0,2.866857675E-1,1.684191066E0,-2.752663307E0,3.239728933E0
7.870816083E0,-7.160000351E-1,2.023526625E0,-1.873776362E0,2.849272523E0
7.880783083E0,-1.342671133E0,2.630023221E0,-2.529343523E0,3.888105783E0
7.890750083E0,-1.086455499E0,3.352829123E0,-3.462976048E0,4.941057760E0
7.900717083E0,-7.432408972E-1,3.372250065E0,-4.022589085E0,5.301480970E0
7.910683083E0,-3.080196261E-1,2.617220743E0,-4.064350483E0,4.843930776E0
7.920650083E0,1.203549939E-1,1.669912750E0,-3.594415609E0,3.965213422E0
7.930617083E0,4.412649532E-1,7.952429634E-1,-2.973050712E0,3.109044334E0
7.940584083E0,4.792645459E-1,-4.748289943E-2,-2.435189464E0,2.482357117E0
7.950551083E0,3.001584832E-1,-5.796952987E-1,-2.074039698E0,2.174346436E0
7.960518083E0,5.648929261E-1,-4.181940329E-1,-1.937036365E0,2.060606743E0
7.970485083E0,1.041867556E0,1.499933606E-1,-1.897501148E0,2.169907053E0
7.980452083E0,1.449330925E0,5.368819857E-1,-1.583623050E0,2.212840790E0
7.990419083E0,1.340470972E0,6.640565872E-1,-1.187718603E0,1.910107080E0
8.000386083E0,1.045472511E0,7.780445480E-1,-1.075447458E0,1.689660713E0
8.010353083E0,7.456195445E-1,8.024122345E-1,-1.212533090E0,1.634028884E0
8.020319083E0,3.901994647E-1,6.727689385E-1,-1.315934009E0,1.528579727E0
8.030286083E0,1.444167249E-1,4.191915679E-1,-1.269662653E0,1.344849810E0
8.040253083E0,-1.640139605E-1,1.762900436E-1,-9.795512938E-1,1.008711800E0
8.050220083E0,-3.939861216E-1,2.089859194E-1,-8.457090392E-1,9.560982991E-1
8.060187083E0,-5.489031301E-1,1.034781754E-1,-6.396514785E-1,8.492092752E-1
8.070154083E0,-7.891510418E-1,-5.910014749E-2,-3.578074980E-1,8.684920263E-1
8.080121083E0,-1.136575200E0,-1.511610496E-1,-1.703421827E-1,1.159167507E0
8.090088083E0,-1.202949284E0,-9.071662724E-2,-1.223524028E-1,1.212553750E0
8.100055083E0,-1.135112666E0,4.584918737E-2,-5.778218508E-3,1.136052947E0
8.110022083E0,-1.065850642E0,1.718841666E-1,2.820257924E-1,1.115849589E0
8.119988083E0,-1.053116430E0,1.673338634E-1,5.127809687E-1,1.183215601E0
8.129955083E0,-8.908986606E-1,2.657974666E-1,7.211289203E-1,1.176594933E0
8.139922083E0,-7.778774638E-1,2.345534545E-1,9.194009864E-1,1.226950221E0
8.149889083E0,-3.663033561E-1,7.208897692E-1,1.162101367E0,1.415747080E0
8.159856083E0,-3.845752472E-1,5.737732387E-1,9.958509922E-1,1.211954227E0
8.169823083E0,-4.235339295E-1,5.476338458E-1,9.687088019E-1,1.190663916E0
8.179790083E0,-3.824359703E-1,1.270668374E0,1.149360868E0,1.755530060E0
8.189757083E0,-8.673904417E-1,9.261644608E-1,9.271368527E-1,1.571537314E0
8.199724083E0,-9.211562475E-1,1.062295827E0,1.004330624E0,1.727912399E0
8.209691083E0,-8.913988169E-1,1.308674691E0,1.083155769E0,1.918449300E0
8.219657083E0,-1.204978195E0,7.441137403E-1,9.404462850E-1,1.700034389E0
8.229624083E0,-1.351811355E0,1.291866285E-1,9.568863165E-1,1.661238859E0
8.239591083E0,-1.224272545E0,4.218695927E-1,9.544152832E-1,1.608640964E0
8.249557208E0,-1.010527284E0,8.467534250E-1,1.122826788E0,1.731732298E0
8.259524208E0,-1.476489634E0,1.719771373E-1,1.037586079E0,1.812783121E0
8.269491208E0,-1.697341893E0,1.684454191E-1,1.354555453E0,2.178110152E0
8.279458208E0,-1.923248777E0,1.670643067E-1,1.688602206E0,2.564795070E0
8.289425208E0,-2.419533252E0,-4.928892893E-1,1.727717739E0,3.013650543E0
8.299392208E0,-1.988285602E0,-2.926350170E-1,1.478790075E0,2.495142275E0
8.309359208E0,-1.303568317E0,-4.579030591E-1,1.302036932E0,1.898490385E0
8.319325208E0,-1.280698249E0,-1.063194544E0,1.042398337E0,1.963966633E0
8.329292208E0,-1.145027058E0,-1.165678693E0,1.254226588E0,2.059849051E0
8.339259208E0,-9.755624695E-1,-1.065205986E0,1.503655944E0,2.085034082E0
8.349226208E0,-1.555790596E0,-1.749942421E0,1.549895725E0,2.808017025E0
8.359193208E0,-1.844966400E0,-1.741234163E0,1.725326228E0,3.067987617E0
8.369160208E0,-1.979604241E0,-1.403318308E0,1.543466127E0,2.875834298E0
8.379127208E0,-2.792910862E0,-1.518748777E0,1.125389038E0,3.372454509E0
8.389094208E0,-2.633379816E0,-2.111642411E0,6.945814649E-1,3.446181414E0
8.399061208E0,-2.793036577E0,-2.473743519E0,-2.397218084E-1,3.738706577E0
8.409028208E0,-2.668183905E0,-2.938971385E0,-6.536170415E-1,4.022930945E0
8.418994208E0,-1.886608516E0,-3.399009848E0,-7.894572166E-1,3.966837825E0
8.428961208E0,-1.572037084E0,-3.165528772E0,-1.174720827E0,3.724492184E0
8.438928208E0,-1.039271539E0,-2.321459804E0,-1.625041802E0,3.018281268E0
8.448895208E0,3.334060438E-2,-1.329312438E0,-2.109400588E0,2.493542459E0
8.458862208E0,1.122608395E0,-1.701411116E-1,-1.922738754E0,2.232962588E0
8.468829208E0,2.141329309E0,8.854538065E-1,-1.712962875E0,2.881590093E0
8.478796208E0,3.245319000E0,1.807776062E0,-2.056525387E0,4.246109557E0
8.488763208E0,3.806262863E0,2.505540678E0,-2.374029197E0,5.138227875E0
8.498730208E0,3.789057431E0,3.036138076E0,-2.143542480E0,5.307529086E0
8.508697208E0,3.275179269E0,2.975894798E0,-1.574283292E0,4.696926333E0
8.518663208E0,2.513773850E0,2.147465377E0,-9.970613658E-1,3.453230065E0
8.528630208E0,2.336169352E0,1.523047650E0,-9.553917682E-1,2.947903461E0
8.538597208E0,2.124397235E0,8.638495141E-1,-7.744754076E-1,2.420560214E0
8.548564208E0,1.975560015E0,1.314459926E-1,-7.643918842E-1,2.122359624E0
8.558531208E0,1.909012269E0,-5.150701171E-1,-8.063678759E-1,2.135381516E0
8.568498208E0,1.706759564E0,-1.398574462E0,-7.468707025E-1,2.329561028E0
8.578465208E0,1.533202509E0,-2.223451699E0,-9.301692188E-1,2.856512238E0
8.588432208E0,1.260157711E0,-2.718619063E0,-1.269519396E0,3.254315069E0
8.598399208E0,9.659796870E-1,-2.522666003E0,-1.171045852E0,2.944199196E0
8.608366208E0,3.324754960E-1,-2.019742307E0,-5.625284948E-1,2.122813522E0
8.618333208E0,-5.576894487E-1,-1.349788218E0,-1.013473769E-1,1.463973035E0
8.628299208E0,-1.301788279E0,-6.872770500E-1,9.639135003E-3,1.472105763E0
8.638266208E0,-1.668103768E0,-3.941841960E-1,1.790072447E-1,1.723367330E0
8.648233208E0,-1.481148257E0,-5.122008884E-1,2.935167772E-1,1.594459785E0
8.658200208E0,-9.150396945E-1,-7.322737134E-1,2.002764916E-1,1.188963038E0
8.668167208E0,-4.287393036E-1,-1.018061056E0,2.772714579E-1,1.138922809E0
8.678134208E0,-1.007253063E-1,-8.378633183E-1,3.133723135E-1,9.002014966E-1
8.688101208E0,3.439287296E-1,-3.593599337E-1,3.728652477E-2,4.988154147E-1
8.698068208E0,7.544367072E-1,2.102155888E-1,-1.669714091E-1,8.007776161E-1
8.708035208E0,1.003360791E0,6.808129531E-1,-2.321835780E-1,1.234564039E0
8.718002208E0,8.770462413E-1,1.082638875E0,-2.603139478E-1,1.417420331E0
8.727968208E0,4.829908302E-1,1.466678152E0,-2.707670152E-2,1.544395704E0
8.737935208E0,8.622187257E-2,1.738426330E0,1.844724910E-1,1.750311520E0
8.747902208E0,-6.997026756E-2,1.854267858E0,3.819268240E-1,1.894484950E0
8.757869208E0,-2.219134554E-1,1.976211541E0,5.710535525E-1,2.068999709E0
8.767836208E0,-4.547542604E-1,1.993550289E0,6.395922755E-1,2.142457111E0
8.777803208E0,-6.594535129E-1,2.198651319E0,6.956081629E-1,2.398503132E0
8.787770208E0,-8.453288971E-1,2.261777274E0,7.551315026E-1,2.529909281E0
8.797737208E0,-9.857422527E-1,2.199388068E0,8.815240391E-1,2.566335966E0
8.807704208E0,-9.746953274E-1,2.000942924E0,9.616196376E-1,2.424565094E0
8.817671208E0,-8.214841709E-1,1.690881450E0,1.018360434E0,2.137983698E0
8.827638208E0,-6.925716307E-1,1.341075282E0,9.372468348E-1,1.776673860E0
8.837604208E0,-6.753911955E-1,1.047701177E0,6.575199848E-1,1.409313150E0
8.847571208E0,-6.659236032E-1,7.555941635E-1,3.783581221E-1,1.075886450E0
8.857538208E0,-5.901801603E-1,4.428131497E-1,1.597903705E-1,7.549364673E-1
8.867505208E0,-3.449178227E-1,1.078665107E-1,1.227263322E-1,3.816611602E-1
8.877472208E0,1.459847289E-1,-2.329875702E-1,1.865057141E-1,3.322335478E-1
8.887439208E0,7.203336259E-1,-5.812746316E-1,5.402056892E-1,1.071719607E0
8.897406208E0,1.122668987E0,-8.755451149E-1,9.676136184E-1,1.721406697E0
8.907373208E0,1.166852156E0,-1.003324903E0,1.095463573E0,1.888979951E0
8.917340208E0,8.821375582E-1,-9.363380313E-1,1.241239337E0,1.787615919E0
8.927307208E0,4.253513903E-1,-7.698344725E-1,1.567686902E0,1.797556993E0
8.937274208E0,2.305754475E-2,-7.405457693E-1,1.993547950E0,2.126775286E0
8.947241208E0,-3.072447970E-1,-7.716283983E-1,2.447879092E0,2.584941353E0
8.957207208E0,-7.858228067E-1,-7.257727790E-1,2.763708698E0,2.963502889E0
8.967174208E0,-1.374243028E0,-6.564540374E-1,2.887601257E0,3.264615877E0
8.977141208E0,-1.449217197E0,-1.125998318E0,3.092485939E0,3.596049496E0
8.987108208E0,-1.305372768E0,-1.846713840E0,2.530010106E0,3.393420282E0
8.997075208E0,-1.245384282E0,-2.600922799E0,3.139748399E0,4.263074175E0
9.007042208E0,-1.047001777E0,-2.860869541E0,1.257674106E0,3.295835465E0
9.017009208E0,-9.326507771E-1,-2.514401549E0,3.867307502E-1,2.709541159E0
9.026976208E0,-3.629144561E-1,-1.949352356E0,4.333013378E-1,2.029638283E0
9.036943208E0,-3.005036151E-1,-8.146393472E-1,-4.154452568E-1,9.625665952E-1
9.046910208E0,4.113457739E-2,2.905078000E-1,-1.281609684E0,1.314766221E0
9.056877208E0,7.422242126E-1,5.608222407E-1,-1.550273455E0,1.807972941E0
9.066843208E0,9.462372212E-1,1.475813842E-1,-1.672289497E0,1.927095562E0
9.076810208E0,7.481341396E-1,-3.144866467E-1,-1.445152066E0,1.657429044E0
9.086777208E0,3.788994281E-1,-3.243970925E-1,-1.028478456E0,1.143051260E0
9.096744208E0,-4.243903273E-1,-1.016099900E-1,-6.282763052E-1,7.649593817E-1
9.106711208E0,-1.729829754E0,4.055915290E-1,-7.667847110E-1,1.935141922E0
9.116678208E0,-3.076354348E0,1.128897368E0,-1.305540729E0,3.527435604E0
9.126645208E0,-3.493572773E0,1.557831566E0,-1.817142278E0,4.234843087E0
9.136612208E0,-3.288521153E0,1.386846117E0,-2.084593776E0,4.133188205E0
9.146579208E0,-3.129177802E0,6.016030616E-1,-1.999869521E0,3.762068323E0
9.156546208E0,-3.241190281E0,-4.180917066E-1,-1.873725199E0,3.767089226E0
9.166513208E0,-3.423502665E0,-9.071206641E-1,-2.291658885E0,4.218404774E0
9.176480208E0,-3.593419535E0,-6.848165417E-1,-2.927041311E0,4.684998238E0
9.186446208E0,-3.757222850E0,-3.095030648E-1,-3.198210030E0,4.943790357E0
9.196413208E0,-3.622674325E0,-3.840977490E-2,-3.437193335E0,4.993950600E0
9.206380208E0,-3.565478908E0,-4.379564524E-4,-3.479832401E0,4.982155515E0
9.216347208E0,-3.365331055E0,-2.606951863E-1,-3.594277030E0,4.930744615E0
9.226314208E0,-3.220375655E0,-6.783699864E-1,-3.491198804E0,4.797861429E0
9.236281208E0,-3.108457024E0,-1.074230579E0,-3.322518911E0,4.674998216E0
9.246248208E0,-3.039368078E0,-1.379085107E0,-3.341528209E0,4.722864049E0
9.256215833E0,-3.070763533E0,-1.349396455E0,-3.495439205E0,4.844435437E0
9.266182833E0,-2.908613811E0,-1.173542029E0,-3.713784762E0,4.861011464E0
9.276149833E0,-2.589927694E0,-9.704641360E-1,-3.839244375E0,4.731735778E0
9.286116833E0,-2.395731430E0,-7.393014818E-1,-3.868804974E0,4.610178705E0
9.296082833E0,-2.209035389E0,-6.264543128E-1,-3.847632791E0,4.480687497E0
9.306049833E0,-2.018726938E0,-6.012036967E-1,-3.830082958E0,4.371068496E0
9.316016833E0,-1.948417971E0,-5.052812934E-1,-3.896111471E0,4.385353620E0
9.325983833E0,-1.910741729E0,-3.318183786E-1,-3.962590220E0,4.411706999E0
9.335950833E0,-1.891769853E0,-2.378156161E-1,-3.893490164E0,4.335275666E0
9.345917833E0,-1.921537882E0,-2.126608944E-1,-3.716127741E0,4.188930398E0
9.355884833E0,-1.908289991E0,-1.348052180E-1,-3.539770455E0,4.023644866E0
9.365851833E0,-1.909868155E0,-1.859929132E-1,-3.423025532E0,3.924193360E0
9.375818833E0,-1.782495040E0,-2.625949466E-1,-3.332981919E0,3.788801017E0
9.385785833E0,-1.761332505E0,-3.258653283E-1,-3.263971910E0,3.723169757E0
9.395752833E0,-1.821524620E0,-3.617052519E-1,-3.254136894E0,3.746757205E0
9.405719833E0,-1.730956804E0,-2.582060266E-1,-3.268248564E0,3.707334688E0
9.415685833E0,-1.534560233E0,-1.173887014E-1,-3.310513993E0,3.650775002E0
9.425652833E0,-1.370914647E0,-1.780360222E-1,-3.349033695E0,3.623138210E0
9.435619833E0,-1.192993961E0,-1.149018806E-1,-3.262005492E0,3.475214650E0
9.445586833E0,-1.026259730E0,-4.737998843E-2,-3.087761389E0,3.254185657E0
9.455553833E0,-8.922412544E-1,-1.544723278E-1,-2.880741304E0,3.019706379E0
9.465520833E0,-7.767770179E-1,-1.593699557E-1,-2.646758537E0,2.762989698E0
9.475487833E0,-8.105245154E-1,-2.474354553E-1,-2.506482664E0,2.645870299E0
9.485454833E0,-8.329541422E-1,-2.750553632E-1,-2.257398294E0,2.421841265E0
9.495421833E0,-9.202467862E-1,-1.327037287E-1,-2.040081847E0,2.241963061E0
9.505388833E0,-1.036925928E0,-3.009386480E-2,-1.885272135E0,2.151829929E0
9.515355833E0,-1.230142053E0,-1.140060872E-1,-1.845201166E0,2.220588706E0
9.525321833E0,-1.403177682E0,-1.393964517E-1,-1.805067047E0,2.290547101E0
9.535288833E0,-1.362621687E0,-2.747138858E-2,-1.732304295E0,2.204171207E0
9.545255833E0,-1.319238271E0,1.051452166E-1,-1.753148450E0,2.196582486E0
9.555222833E0,-1.398067947E0,1.465423340E-1,-1.728743341E0,2.228143213E0
9.565189833E0,-1.464795349E0,1.451922119E-1,-1.399071475E0,2.030789793E0
9.575156833E0,-1.544668899E0,-1.291357577E-2,-1.213561542E0,1.964408406E0
9.585123833E0,-1.570823641E0,-1.572099942E-1,-1.170830090E0,1.965463048E0
9.595090833E0,-1.551418194E0,-2.604104269E-1,-1.026980399E0,1.878669940E0
9.605057833E0,-1.489222677E0,-3.245543826E-1,-8.975663137E-1,1.768825886E0
9.615024833E0,-1.401529937E0,-2.626580966E-1,-9.598391604E-1,1.718885294E0
9.624991833E0,-1.367349746E0,-1.745347095E-1,-9.939892387E-1,1.699447645E0
9.634958833E0,-1.352432914E0,-1.879938304E-2,-9.490265623E-1,1.652295258E0
9.644924833E0,-1.372522193E0,1.545302153E-1,-8.686355332E-1,1.631632448E0
9.654891833E0,-1.531285500E0,1.792756319E-3,-9.470852868E-1,1.800502440E0
9.664858833E0,-1.701375448E0,6.008657277E-2,-1.013303761E0,1.981179781E0
9.674825833E0,-1.680060154E0,1.935983866E-1,-8.235755738E-1,1.881052680E0
9.684792833E0,-1.900231359E0,9.961433530E-2,-5.847893199E-1,1.990673449E0
9.694759833E0,-1.957138216E0,4.792027116E-2,-4.531241298E-1,2.009479491E0
9.704726833E0,-1.898102387E0,2.544006586E-2,-3.827645838E-1,1.936478401E0
9.714693833E0,-1.781504522E0,3.602995813E-2,-2.161481738E-1,1.794930793E0
9.724660833E0,-1.633327891E0,8.358010054E-3,-2.007208800E-1,1.645636269E0
9.734627833E0,-1.539194736E0,-1.994888717E-1,-3.381772256E-1,1.588483579E0
9.744594833E0,-1.663289317E0,-3.340713108E-1,-4.149745560E-1,1.746521936E0
9.754560833E0,-1.748507515E0,-5.090147406E-1,-3.783288860E-1,1.859975075E0
9.764527833E0,-1.800357699E0,-5.059133774E-1,-3.042073877E-1,1.894671034E0
9.774494833E0,-1.861126788E0,-3.973370147E-1,-2.192226398E-1,1.915653463E0
9.784461833E0,-1.888653872E0,-3.123138213E-1,-1.134127410E-1,1.917658943E0
9.794428833E0,-1.817953141E0,-3.439665538E-1,-2.499823563E-1,1.867018423E0
9.804395833E0,-1.648014928E0,-4.468711174E-1,-3.745420830E-1,1.748121497E0
9.814362833E0,-1.325614659E0,-5.895653987E-1,-3.143789117E-1,1.484478253E0
9.824329833E0,-9.257148099E-1,-7.312527895E-1,-1.466822286E-1,1.188778460E0
9.834296833E0,-5.624778798E-1,-8.800316834E-1,7.554602623E-2,1.047160127E0
9.844263833E0,-2.696266620E-1,-1.068471656E0,1.910798447E-1,1.118410356E0
9.854230833E0,-3.013611093E-2,-1.258323147E0,2.051318733E-1,1.275289933E0
9.864196833E0,2.243890934E-1,-1.429599788E0,2.226887231E-1,1.464136704E0
9.874163833E0,3.934597260E-1,-1.591926681E0,1.473290768E-1,1.646434624E0
9.884130833E0,4.254008724E-1,-1.643873929E0,-8.230394572E-2,1.700018040E0
9.894097833E0,2.454256211E-1,-1.624044852E0,-3.905388956E-1,1.688276057E0
9.904064833E0,1.163829803E-1,-1.631014733E0,-5.081683561E-1,1.712305211E0
9.914031833E0,2.223845217E-1,-1.648562812E0,-4.421831122E-1,1.721261202E0
9.923998833E0,3.959053239E-1,-1.567806332E0,-4.205292647E-1,1.670808960E0
9.933965833E0,5.027832167E-1,-1.190683141E0,-6.269630206E-1,1.436523559E0
9.943932833E0,6.336582287E-1,-5.076459074E-1,-7.264338067E-1,1.089464636E0
9.953899833E0,9.257813220E-1,2.220070839E-1,-6.958155929E-1,1.179202078E0
9.963866833E0,1.101172210E0,8.220460153E-1,-5.557720006E-1,1.482303074E0
9.973832833E0,1.378767604E0,1.253823715E0,-2.688457663E-1,1.882910529E0
9.983799833E0,1.460224580E0,9.346294749E-1,-2.315286899E-1,1.749112236E0
9.993766833E0,1.705654733E0,4.806610072E-1,-3.003328764E-1,1.797357201E0
1.000373383E1,1.811684341E0,4.695314169E-2,-2.327754624E-1,1.827180660E0
1.001370083E1,1.743486803E0,-4.307012272E-1,-8.569679260E-2,1.797941523E0
1.002366783E1,1.489251182E0,-8.606458247E-1,-6.588986121E-2,1.721313973E0
1.003363483E1,1.129662622E0,-1.167341056E0,-1.598826834E-1,1.632294475E0
1.004360183E1,7.938932799E-1,-1.273622972E0,-2.757253810E-1,1.525911695E0
1.005356883E1,4.846176718E-1,-1.255656817E0,-2.636766084E-1,1.371515105E0
1.006353583E1,1.470454869E-1,-1.240285656E0,-1.667998664E-1,1.260060745E0
1.007350283E1,-2.234295653E-1,-1.093459733E0,6.361310162E-2,1.117864743E0
1.008346983E1,-5.302240536E-1,-8.666871679E-1,2.616395847E-1,1.049161316E0
1.009343583E1,-8.895430568E-1,-5.613677859E-1,3.063578840E-1,1.095570990E0
1.010340283E1,-1.316681137E0,-1.275154942E-1,2.355539679E-1,1.343649913E0
1.011336983E1,-1.659175508E0,1.943813288E-1,9.091720501E-2,1.672995339E0
1.012333683E1,-1.948823621E0,7.711424947E-2,-2.112201222E-1,1.961752801E0
1.013330383E1,-2.237578280E0,-9.439861894E-2,-3.400062346E-1,2.265231091E0
1.014327083E1,-2.186764660E0,-1.525480092E-1,-3.041312277E-1,2.213076225E0
1.015323783E1,-1.628363313E0,1.234698057E-2,-1.544641417E-1,1.635719627E0
1.016320483E1,-8.680707653E-1,1.052644998E-1,3.426135081E-1,9.391546648E-1
1.017317183E1,-1.815692022E-1,-3.973767757E-3,9.438557965E-1,9.611695639E-1
1.018313883E1,4.194020677E-1,-3.975171089E-2,1.418939729E0,1.480158184E0
1.019310583E1,7.968882237E-1,-2.851102352E-3,1.574321884E0,1.764519301E0
1.020307183E1,1.154109246E0,3.154023206E-1,1.500675033E0,1.919237435E0
1.021303883E1,1.318399049E0,7.890963703E-1,1.119302672E0,1.900970175E0
1.022300583E1,1.141152255E0,1.075139236E0,7.711558702E-1,1.747236167E0
1.023297283E1,7.341161710E-1,1.710146272E0,4.374097377E-1,1.911767272E0
1.024293983E1,3.991271397E-1,1.984795838E0,2.552538405E-1,2.040556668E0
1.025290671E1,-9.317962065E-2,2.117663289E0,1.487625948E-1,2.124926012E0
1.026287371E1,-7.052338493E-1,2.074841205E0,1.424206316E-1,2.196042906E0
1.027284071E1,-1.068602780E0,2.584213795E0,4.452227142E-1,2.831659603E0
1.028280771E1,-1.028063303E0,2.685792210E0,3.627249333E-1,2.898614036E0
1.029277471E1,-1.165770641E0,2.529900763E0,4.587192573E-1,2.823090933E0
1.030274171E1,-1.081358627E0,2.334079265E0,5.660812265E-1,2.633953388E0
1.031270871E1,-1.041092069E0,1.974662613E0,6.395789731E-1,2.322116792E0
1.032267571E1,-1.069698987E0,1.569457585E0,8.799176627E-1,2.093253001E0
1.033264171E1,-1.010838868E0,1.167875492E0,1.247506968E0,1.985447561E0
1.034260871E1,-8.586352596E-1,7.199337494E-1,1.437223973E0,1.822408258E0
1.035257571E1,-7.248230450E-1,2.681503862E-1,1.581355500E0,1.760101785E0
1.036254271E1,-6.449217202E-1,-4.270630896E-2,1.737482005E0,1.853804620E0
1.037250971E1,-4.272776824E-1,-7.190321088E-2,1.851772267E0,1.901787795E0
1.038247671E1,1.267764062E-2,5.420544326E-2,2.056652856E0,2.057406115E0
1.039244371E1,5.150761105E-1,-8.113537967E-2,2.302500207E0,2.360803582E0
1.040241071E1,8.880039234E-1,-6.693506563E-1,2.669432870E0,2.891790642E0
1.041237771E1,1.104593416E0,-1.281033733E0,2.787941313E0,3.260949372E0
1.042234471E1,1.009922609E0,-1.621795428E0,2.413191508E0,3.077930691E0
1.043231171E1,6.148560682E-1,-1.619932505E0,2.089139986E0,2.714173021E0
1.044227871E1,8.818171307E-2,-1.260469660E0,2.098142944E0,2.449237349E0
1.045224471E1,-4.144686256E-1,-8.253046685E-1,2.330055211E0,2.506405658E0
1.046221171E1,-7.881628624E-1,-6.908660710E-1,2.824976408E0,3.013135963E0
1.047217871E1,-5.590098962E-1,-1.154729197E0,3.270007991E0,3.512669049E0
1.048214571E1,-2.096735519E-1,-2.272425054E0,3.426587656E0,4.116962665E0
1.049211271E1,3.010599777E-1,-4.240941659E0,2.664939285E0,5.017780850E0
1.050207971E1,4.003443839E-1,-5.617891363E0,6.746208979E-1,5.672397407E0
1.051204671E1,1.268216198E0,-5.591594095E0,2.251745206E-1,5.738031057E0
1.052201371E1,1.585938109E0,-4.279612219E0,3.351500490E-1,4.576309210E0
1.053198071E1,2.007150767E0,-2.726712779E0,-2.861978173E-2,3.385917287E0
1.054194771E1,1.615654243E0,-2.013375274E0,-2.361961128E0,3.498982566E0
1.055191471E1,8.124080497E-1,-1.778167516E0,-3.863636620E0,4.330077885E0
1.056188171E1,9.192542213E-1,-1.669906318E-1,-2.558324078E0,2.723588861E0
1.057184871E1,1.029732537E0,1.286096837E0,-2.225351606E0,2.768859682E0
1.058181471E1,9.671411633E-2,2.579832476E0,-1.543990037E0,3.008121417E0
1.059178171E1,-7.649913700E-1,3.255961225E0,-1.418399447E0,3.632953659E0
1.060174871E1,-6.923455627E-1,3.403908645E0,-1.497193601E0,3.782528932E0
1.061171571E1,-7.651651785E-1,3.221039314E0,-1.371297201E0,3.583438018E0
1.062168271E1,-1.484618287E0,2.803434096E0,-2.186139300E0,3.852601618E0
1.063164971E1,-1.580888892E0,2.253507557E0,-2.791674761E0,3.920580820E0
1.064161671E1,-1.462319930E0,1.631297153E0,-3.279097488E0,3.943601186E0
1.065158371E1,-1.380366086E0,9.525669783E-1,-3.346988924E0,3.743678570E0
1.066155071E1,-1.149168787E0,3.793802154E-1,-2.960377457E0,3.198179629E0
1.067151771E1,-1.128244672E0,-1.607405430E-1,-2.258034471E0,2.529326637E0
1.068148471E1,-1.085114002E0,-3.035277951E-1,-1.612220612E0,1.966940981E0
1.069145171E1,-8.055809869E-1,1.702539629E-1,-1.469840911E0,1.684749074E0
1.070141871E1,-5.008340473E-1,8.887767792E-1,-1.656156006E0,1.945150797E0
1.071138471E1,-1.694080169E-1,1.577817349E0,-1.866785578E0,2.450121437E0
1.072135171E1,5.338825102E-1,1.722820696E0,-1.626562663E0,2.428754368E0
1.073131871E1,1.145048254E0,1.513036047E0,-1.377492911E0,2.344760180E0
1.074128571E1,1.777105369E0,1.243763580E0,-1.176568621E0,2.467663886E0
1.075125271E1,2.093308905E0,8.189762270E-1,-8.892311809E-1,2.417311797E0
1.076121971E1,2.029857844E0,2.463572288E-1,-4.234049984E-1,2.088129915E0
1.077118671E1,1.741950739E0,-2.240378219E-1,-2.440562763E-1,1.773174777E0
1.078115371E1,1.556195808E0,-2.700133091E-1,-6.034974863E-1,1.690816902E0
1.079112071E1,1.122119129E0,-1.775530422E-1,-7.558882785E-1,1.364567152E0
1.080108771E1,6.378528750E-1,7.071271777E-2,-6.115000588E-1,8.864473478E-1
1.081105471E1,7.640863672E-2,2.427448189E-1,-3.390110020E-1,4.239006798E-1
1.082102171E1,-4.233366591E-1,7.906528991E-1,-1.582320875E-1,9.107048519E-1
1.083098871E1,-6.762684971E-1,8.277727783E-1,-3.619730179E-1,1.128526171E0
1.084095471E1,-8.284440386E-1,9.759704590E-1,-1.723683161E-1,1.291723151E0
1.085092171E1,-1.064747419E0,7.697888643E-1,-2.069539936E-1,1.330072147E0
1.086088871E1,-1.047405016E0,5.898665303E-1,-1.101510179E-1,1.207117657E0
1.087085571E1,-7.048347768E-1,6.825998622E-1,-1.393449962E-2,9.812893583E-1
1.088082271E1,-5.676577820E-1,2.556209725E-1,1.040441859E-1,6.311914382E-1
1.089078971E1,-2.800057621E-1,6.182337123E-1,5.377122903E-1,8.658814336E-1
1.090075671E1,-1.423452026E-1,7.420970356E-1,5.964674520E-1,9.626752248E-1
1.091072371E1,-6.959385306E-2,6.140207934E-1,7.468660247E-1,9.693676795E-1
1.092069071E1,-1.712212385E-1,1.055612460E0,8.889802623E-1,1.390654624E0
1.093065771E1,-9.243658572E-2,5.089492518E-1,8.911916792E-1,1.030435089E0
1.094062471E1,-2.923142973E-1,9.803839374E-1,1.128317324E0,1.523056235E0
1.095059171E1,-9.394864646E-1,-1.241656244E-1,8.680764663E-1,1.285149280E0
1.096055871E1,-9.751272905E-1,-1.797960341E-2,1.006613377E0,1.401594446E0
1.097052471E1,-1.114072776E0,3.739347035E-1,8.999203297E-1,1.480149287E0
1.098049171E1,-1.742477427E0,-6.801738524E-1,1.014711771E0,2.128028203E0
1.099045871E1,-2.015612272E0,2.369414574E-1,1.321153818E0,2.421627861E0
1.100042571E1,-2.657910932E0,-6.119356763E-1,1.216961113E0,2.986628558E0
1.101039271E1,-2.905430587E0,-6.926436245E-2,1.743399972E0,3.389065935E0
1.102035971E1,-3.390555943E0,-2.715891337E-1,1.568465313E0,3.745625942E0
1.103032671E1,-4.360956345E0,-1.244510270E0,2.086652580E0,4.992080232E0
1.104029371E1,-4.079523423E0,-9.137736261E-1,1.870359396E0,4.579927715E0
1.105026071E1,-3.965812036E0,-9.860738629E-1,1.504658157E0,4.354767839E0
1.106022771E1,-4.422411751E0,-1.570491373E0,1.327119148E0,4.877029227E0
1.107019471E1,-3.989263756E0,-9.916836816E-1,1.397865779E0,4.341853357E0
1.108016171E1,-3.876634980E0,-1.654883652E0,1.545570978E0,4.489513150E0
1.109012771E1,-3.554965029E0,-2.079123121E0,2.033902509E0,4.593178500E0
1.110009471E1,-3.087653800E0,-1.519926991E0,1.699111845E0,3.838067887E0
1.111006171E1,-3.757169640E0,-2.960707240E0,1.302301226E0,4.957630437E0
1.112002871E1,-2.415182631E0,-2.610512232E0,8.598950422E-1,3.658866046E0
1.112999571E1,-1.013739379E0,-2.561642373E0,6.064088881E-1,2.820888320E0
1.113996271E1,2.412622574E-1,-2.174664286E0,4.877675669E-1,2.241715734E0
1.114992971E1,-3.355603042E-1,-3.256241891E0,-5.739954329E-1,3.323429363E0
1.115989671E1,-7.084366617E-1,-2.345246862E0,-1.801090940E0,3.040722599E0
1.116986371E1,1.837018280E-1,-1.765484321E0,-2.242534672E0,2.860007518E0
1.117983071E1,1.614684629E0,-1.331994556E0,-2.143978390E0,2.996340983E0
1.118979771E1,2.884231507E0,-2.832584220E-1,-2.291967179E0,3.694880278E0
1.119976471E1,3.754157155E0,7.472864395E-1,-2.549189558E0,4.598967315E0
1.120973171E1,4.103389419E0,1.464872532E0,-2.526426347E0,5.036515298E0
1.121969771E1,3.944584889E0,1.380300159E0,-1.929194226E0,4.602908736E0
1.122966471E1,3.554373876E0,1.132929023E0,-1.079298873E0,3.883553511E0
1.123963171E1,2.864229644E0,7.063787341E-1,-5.117448056E-1,2.994105061E0
1.124959883E1,2.142945772E0,3.200847709E-1,-4.386114136E-1,2.210667504E0
1.125956583E1,1.776651479E0,-1.763555324E-1,-4.475108027E-1,1.840613395E0
1.126953283E1,1.595019127E0,-6.813403720E-1,-4.814222781E-1,1.800021702E0
1.127949983E1,1.523313406E0,-1.173994603E0,-5.322228511E-1,1.995496987E0
1.128946683E1,1.249506423E0,-1.600168331E0,-9.827976680E-1,2.255592216E0
1.129943383E1,1.040134295E0,-1.827713898E0,-1.126614615E0,2.385723776E0
1.130940083E1,1.295803946E0,-1.729636211E0,-8.426083338E-1,2.319641803E0
1.131936783E1,1.651589477E0,-1.500224213E0,-6.909438390E-1,2.335770510E0
1.132933483E1,1.738334675E0,-1.186340414E0,-2.991634150E-1,2.125725704E0
1.133930183E1,1.494933360E0,-6.652020568E-1,1.332609866E-1,1.641669278E0
1.134926783E1,1.004808488E0,-3.985579133E-2,2.234349557E-1,1.030122207E0
1.135923483E1,4.287424099E-1,6.738114971E-1,2.405024117E-1,8.340763740E-1
1.136920183E1,-9.122591972E-2,1.231726502E0,3.857267467E-1,1.293931014E0
1.137916883E1,-5.299755469E-1,1.467986174E0,4.688805852E-1,1.629633852E0
1.138913583E1,-6.820269813E-1,1.159500525E0,2.544637720E-1,1.369070518E0
1.139910283E1,-9.405807710E-1,6.263712823E-1,1.062819884E-1,1.135045828E0
1.140906983E1,-9.516226530E-1,4.526060665E-1,-4.313374043E-2,1.054655605E0
1.141903683E1,-7.870866823E-1,6.124496466E-1,-6.239446878E-2,9.992462584E-1
1.142900383E1,-6.035551545E-1,8.287638813E-1,1.240030718E-1,1.032717366E0
1.143897083E1,-5.324923347E-1,8.921365893E-1,3.974890423E-1,1.112408791E0
1.144893783E1,-4.523042040E-1,1.066017580E0,5.710384959E-1,1.291145824E0
1.145890383E1,-4.300498474E-1,1.369826041E0,6.712819185E-1,1.584924500E0
1.146887083E1,-4.928679469E-1,1.740443035E0,7.821468814E-1,1.970739586E0
1.147883783E1,-6.418020844E-1,1.989406952E0,8.193954724E-1,2.245230250E0
1.148880483E1,-9.841340491E-1,1.699703729E0,1.132679274E0,2.267261549E0
1.149877183E1,-1.184756404E0,1.840761960E0,1.692788812E0,2.767234412E0
1.150873883E1,-1.108251873E0,2.007469001E0,2.055750630E0,3.079653334E0
1.151870583E1,-1.125167283E0,1.951260302E0,2.168520616E0,3.126643543E0
1.152867283E1,-1.221628215E0,2.069106256E0,1.879214858E0,3.050413853E0
1.153863983E1,-1.312977657E0,2.156213397E0,1.144162694E0,2.771691687E0
1.154860683E1,-1.279570321E0,1.921528965E0,8.732290328E-1,2.468218530E0
1.155857383E1,-1.124643080E0,1.343144612E0,1.106974402E0,2.072257665E0
1.156854083E1,-1.092282103E0,6.664603776E-1,1.426558651E0,1.916329620E0
1.157850683E1,-1.064687338E0,-1.102755636E-1,1.728828126E0,2.033363351E0
1.158847383E1,-8.629841262E-1,-9.477248991E-1,1.888243690E0,2.282189369E0
1.159844083E1,-5.667296827E-1,-1.621510084E0,2.029445177E0,2.658782656E0
1.160840783E1,-1.039941922E-1,-2.027631370E0,2.373356036E0,3.123287153E0
1.161837483E1,3.027124009E-1,-1.918574951E0,2.799779001E0,3.407539743E0
1.162834183E1,4.019240092E-1,-1.566518775E0,3.099823025E0,3.496344773E0
1.163830883E1,3.369860016E-1,-9.067669076E-1,3.153202257E0,3.298252608E0
1.164827583E1,5.492466541E-1,-6.602015179E-1,3.432070590E0,3.537887288E0
1.165824283E1,1.125683007E0,-1.037928141E0,3.057265821E0,3.419258890E0
1.166820983E1,1.572559972E0,-1.906228555E0,3.433462812E0,4.230285930E0
1.167817683E1,2.282658704E0,-3.236223949E0,3.352677680E0,5.188846098E0
1.168814383E1,2.298825086E0,-3.759875439E0,1.349762344E0,4.609025763E0
1.169810983E1,1.990804437E0,-3.536291361E0,-2.910597771E-3,4.058160590E0
1.170807683E1,2.455292338E0,-2.784949293E0,-1.066697611E0,3.862932412E0
1.171804383E1,2.783732195E0,-2.196784303E0,-2.605291838E0,4.400292237E0
1.172801083E1,2.642978312E0,-2.078819066E0,-4.999775764E0,6.025328270E0
1.173797783E1,1.705580473E0,-1.333372745E0,-6.079260651E0,6.453239318E0
1.174794483E1,2.844249415E-1,-1.493565989E-1,-5.795296471E0,5.804193839E0
1.175791183E1,-4.081609417E-1,1.245348760E0,-5.250937065E0,5.412007849E0
1.176787883E1,3.970888004E-2,2.276075470E0,-3.997094055E0,4.599875784E0
1.177784583E1,6.659598559E-1,2.733206112E0,-2.343820288E0,3.661613268E0
1.178781283E1,9.562991099E-1,3.033460051E0,-1.591502758E0,3.556581069E0
1.179777983E1,4.274112913E-1,2.516676115E0,-1.905431434E0,3.185436867E0
1.180774583E1,-4.666238889E-1,1.778637632E0,-2.719385633E0,3.282734821E0
1.181771283E1,-1.002824235E0,1.175583292E0,-3.454898120E0,3.784702569E0
1.182767983E1,-1.002592101E0,8.470147955E-1,-3.958168555E0,4.170098716E0
1.183764683E1,-7.479954144E-1,5.962072510E-1,-3.801609356E0,3.920101265E0
1.184761383E1,-4.410727260E-1,1.070595950E-1,-3.191282249E0,3.223397168E0
1.185758083E1,8.027788550E-3,-3.183545798E-1,-2.506587330E0,2.526735864E0
1.186754783E1,4.204015030E-1,-2.718393946E-1,-1.925680926E0,1.989693723E0
1.187751483E1,3.340096226E-1,2.866726112E-1,-1.735738365E0,1.790679001E0
1.188748183E1,4.547993571E-1,6.927079439E-1,-1.833145815E0,2.011743107E0
1.189744883E1,5.653517863E-1,9.410298371E-1,-1.551645212E0,1.900726877E0
1.190741583E1,1.393928995E0,9.579171807E-1,-1.184090552E0,2.064634061E0
1.191738283E1,1.829127170E0,1.015549092E0,-9.081988907E-1,2.280761142E0
1.192734883E1,1.751569409E0,9.609875536E-1,-7.951634413E-1,2.150297043E0
1.193731583E1,1.361938586E0,7.726937610E-1,-8.363756405E-1,1.775234230E0
1.194728283E1,7.038094676E-1,6.472516894E-1,-8.159695888E-1,1.257015865E0
1.195724983E1,4.352082610E-2,7.215668768E-1,-7.841121306E-1,1.066482374E0
1.196721683E1,-5.556949635E-1,7.384588981E-1,-7.161272120E-1,1.169169201E0
1.197718383E1,-5.367675264E-1,1.018834058E0,-7.544049130E-1,1.376687687E0
1.198715083E1,-3.253867337E-1,1.517501566E0,-6.554038044E-1,1.684708187E0
1.199711783E1,-5.220929155E-1,1.502718635E0,-4.490790260E-1,1.653002202E0
1.200708483E1,-6.534376051E-1,1.061634507E0,-1.087108487E-1,1.251345907E0
1.201705183E1,-5.769943236E-1,8.689231431E-1,4.246458141E-1,1.126176694E0
1.202701883E1,-6.766278085E-1,5.200817657E-1,5.753653989E-1,1.029250007E0
1.203698583E1,-2.978953184E-1,4.415355331E-1,6.025830549E-1,8.042397564E-1
1.204695183E1,4.312555432E-2,6.912952566E-1,7.308323747E-1,1.006908588E0
1.205691883E1,-7.279476508E-2,4.565014815E-1,6.789161164E-1,8.213524052E-1
1.206688583E1,-4.774900621E-1,5.127581280E-1,5.688802886E-1,9.025200497E-1
1.207685283E1,-8.601077347E-1,5.808109474E-1,5.982917833E-1,1.197948133E0
1.208681983E1,-1.245650331E0,5.232965648E-1,6.884570181E-1,1.516396092E0
1.209678683E1,-1.779835580E0,4.547058016E-1,5.348506264E-1,1.913279188E0
1.210675383E1,-1.681819435E0,8.185254067E-1,6.438392544E-1,1.978137872E0
1.211672083E1,-2.137551569E0,1.550512022E-1,5.193450165E-1,2.205195418E0
1.212668783E1,-2.158205836E0,-5.339151084E-2,8.082103336E-1,2.305191321E0
1.213665483E1,-2.090204179E0,3.839217478E-1,9.761949921E-1,2.338654759E0
1.214662183E1,-2.593517885E0,-6.598278809E-1,1.108177247E0,2.896509047E0
1.215658883E1,-2.675960702E0,-9.404989100E-1,1.462095104E0,3.191085391E0
1.216655583E1,-2.581737499E0,-3.523941457E-1,1.643447960E0,3.080660862E0
1.217652183E1,-3.129654935E0,-1.008721299E0,1.528193200E0,3.625966509E0
1.218648883E1,-3.138502649E0,-1.367278410E0,1.549512148E0,3.757743608E0
1.219645583E1,-3.086370921E0,-1.121945028E0,1.758012164E0,3.724923204E0
1.220642283E1,-2.741979567E0,-8.910291266E-1,2.053939748E0,3.539922787E0
1.221638983E1,-3.164109361E0,-2.237428883E0,2.007844977E0,4.364529472E0
1.222635683E1,-2.311911301E0,-1.722943488E0,2.214652663E0,3.635678003E0
1.223632383E1,-1.643948774E0,-1.061226956E0,2.401864136E0,3.098018972E0
1.224629083E1,-2.554312888E0,-2.896593690E0,2.229841536E0,4.459480083E0
1.225625746E1,-2.236253447E0,-2.798034192E0,2.329142607E0,4.272555454E0
1.226622446E1,-1.106861697E0,-2.403335441E0,1.723995256E0,3.158056950E0
1.227619146E1,-1.405253444E0,-3.478561217E0,5.296653521E-1,3.788887800E0
1.228615846E1,-1.097137924E0,-3.804008469E0,3.260151632E-1,3.972464971E0
1.229612546E1,-7.205601324E-1,-3.439605312E0,-2.348347056E-1,3.522107174E0
1.230609246E1,-9.834089944E-1,-3.590331913E0,-1.279221096E0,3.936239717E0
1.231605846E1,-1.010012071E0,-3.499834557E0,-2.329886227E0,4.324041644E0
1.232602546E1,-3.339302467E-1,-3.196175784E0,-2.770651681E0,4.243060192E0
1.233599246E1,7.849468938E-1,-2.603061125E0,-2.756344422E0,3.871628006E0
1.234595946E1,2.210088326E0,-1.548740315E0,-2.537962904E0,3.704637995E0
1.235592646E1,3.236052918E0,-1.222927612E-1,-2.260666888E0,3.949380810E0
1.236589346E1,3.977594468E0,1.410747195E0,-1.867964522E0,4.615274299E0
1.237586046E1,4.419967614E0,2.537734863E0,-1.112437456E0,5.216677970E0
1.238582746E1,4.430496403E0,3.283286433E0,-2.680349037E-2,5.514525057E0
1.239579446E1,4.068428916E0,3.347924479E0,3.023654417E-1,5.277512390E0
1.240576146E1,3.574862520E0,2.773886361E0,-4.379519208E-1,4.545975084E0
1.241572846E1,3.279045448E0,1.875561664E0,-9.952288485E-1,3.906449931E0
1.242569546E1,2.807341790E0,9.260551178E-1,-1.147304403E0,3.170970419E0
1.243566246E1,2.166924034E0,1.014205402E-1,-1.102236403E0,2.433263443E0
1.244562846E1,1.398952484E0,-6.608026117E-1,-1.053548904E0,1.871815546E0
1.245559546E1,5.004698389E-1,-1.417794845E0,-9.815849555E-1,1.795583834E0
1.246556246E1,-8.582360409E-2,-1.852817749E0,-8.046236515E-1,2.021810704E0
1.247552946E1,-7.889326483E-2,-1.801166954E0,-7.562800419E-1,1.955092337E0
1.248549646E1,-4.732414752E-2,-1.454258666E0,-2.508666380E-1,1.476496499E0
1.249546346E1,-1.514677361E-1,-9.698981255E-1,5.222966909E-2,9.830426172E-1
1.250543046E1,-2.386595155E-1,-1.043032175E-1,-1.935206187E-1,3.244807473E-1
1.251539746E1,-5.273752901E-1,7.000631565E-1,-1.176927567E-2,8.765566927E-1
1.252536446E1,-7.595748018E-1,1.232449803E0,1.779974306E-1,1.458619032E0
1.253533146E1,-5.404294914E-1,1.373619715E0,2.439668687E-1,1.496133346E0
1.254529846E1,-4.853131981E-1,1.132941302E0,1.529011627E-1,1.241959605E0
1.255526546E1,-4.003151478E-1,1.216954681E0,2.514273312E-1,1.305544567E0
1.256523246E1,8.468273923E-2,1.474860746E0,3.664374036E-1,1.522058394E0
1.257519846E1,5.621258774E-1,1.571471951E0,5.663162845E-1,1.762448220E0
1.258516546E1,6.222549887E-1,1.389104311E0,7.250564951E-1,1.685977159E0
1.259513246E1,4.591200109E-1,1.337023746E0,9.914433610E-1,1.726668359E0
1.260509946E1,1.464506789E-1,1.222386745E0,1.168167195E0,1.697142230E0
1.261506646E1,-2.626610202E-1,8.141195297E-1,1.229445503E0,1.497770899E0
1.262503346E1,-6.488912487E-1,5.006386042E-1,1.457826637E0,1.672410646E0
1.263500046E1,-9.747416666E-1,6.757211977E-1,1.466979284E0,1.886464596E0
1.264496746E1,-1.109930316E0,1.188655327E0,1.385418227E0,2.136405967E0
1.265493446E1,-1.258488916E0,1.786422030E0,1.430099140E0,2.611566881E0
1.266490146E1,-1.185558349E0,1.948762372E0,1.425221393E0,2.689698756E0
1.267486846E1,-1.118667372E0,1.889823607E0,1.498970570E0,2.658902541E0
1.268483546E1,-1.086124839E0,1.688889889E0,1.748113412E0,2.662314167E0
1.269480246E1,-9.011943649E-1,1.588267493E0,1.965148024E0,2.682638938E0
1.270476846E1,-8.269702479E-1,1.403073310E0,2.013888075E0,2.590026965E0
1.271473546E1,-8.163888341E-1,1.052791763E0,2.013545428E0,2.414379095E0
1.272470246E1,-7.632107466E-1,7.839180762E-1,2.082337335E0,2.352264222E0
1.273466946E1,-5.139994919E-1,4.555442923E-1,2.124937225E0,2.233175831E0
1.274463646E1,-1.307615760E-1,-1.364564717E-1,2.149586163E0,2.157878502E0
1.275460346E1,5.503618643E-1,-9.866948372E-1,2.354261515E0,2.611323833E0
1.276457046E1,1.304666717E0,-1.629199172E0,2.484741547E0,3.245055584E0
1.277453746E1,1.885539937E0,-1.874974603E0,2.513475350E0,3.659009285E0
1.278450446E1,1.979706275E0,-1.596440731E0,2.482390382E0,3.553888286E0
1.279447146E1,1.551402991E0,-7.526354724E-1,2.380346674E0,2.939279110E0
1.280443846E1,8.658618334E-1,1.251596510E-1,2.541197584E0,2.687576383E0
1.281440546E1,1.127286898E0,5.107425928E-1,2.874581847E0,3.129673232E0
1.282437246E1,1.859765849E0,-9.623347521E-1,2.624542041E0,3.357534529E0
1.283433846E1,2.681825459E0,-3.798634878E0,3.041438577E0,5.556272433E0
1.284430546E1,3.774463658E0,-6.573656183E0,1.510510342E0,7.729241426E0
1.285427246E1,4.290699125E0,-8.011961891E0,-8.077087887E-1,9.124364406E0
1.286423946E1,3.483402419E0,-6.223219686E0,-2.911466668E0,7.703193742E0
1.287420646E1,1.359995118E0,-1.803899943E0,-3.486546174E0,4.154473005E0
1.288417346E1,6.854802006E-1,1.132072991E0,-2.968719680E0,3.250349043E0
1.289414046E1,8.190465398E-1,1.970024017E0,-2.766180900E0,3.493363513E0
1.290410746E1,2.776135200E-1,8.838382208E-1,-3.765429125E0,3.877717855E0
1.291407446E1,-1.628629361E-1,-1.508166486E-1,-4.565855060E0,4.571247360E0
1.292404146E1,-2.315567565E-1,-3.248584378E-1,-4.497129811E0,4.514789926E0
1.293400846E1,-5.545756602E-1,3.548850596E-1,-3.706744714E0,3.764764793E0
1.294397546E1,-6.897919375E-1,1.314189200E0,-2.726211673E0,3.104051587E0
1.295394246E1,-5.582349940E-1,2.332918008E0,-2.592731434E0,3.532193232E0
1.296390846E1,-4.397442386E-1,2.463569949E0,-3.057157062E0,3.950792476E0
1.297387546E1,-4.249601385E-1,2.002512317E0,-3.469426696E0,4.028345603E0
1.298384246E1,-5.920260532E-1,1.408981336E0,-4.009553887E0,4.290949268E0
1.299380946E1,-6.520572236E-1,8.713321960E-1,-4.125824600E0,4.266945869E0
1.300377646E1,-6.395282485E-1,5.199367547E-1,-3.762077501E0,3.851305977E0
1.301374346E1,-5.853941412E-1,4.432961297E-1,-3.143832679E0,3.228448803E0
1.302371046E1,-1.699269573E-1,5.504744232E-1,-2.533865175E0,2.598532276E0
1.303367746E1,6.989676806E-1,6.518376607E-1,-2.012775350E0,2.228163540E0
1.304364446E1,1.097377221E0,8.906168979E-1,-1.805177121E0,2.292618516E0
1.305361146E1,1.316897338E0,1.026254175E0,-1.737052673E0,2.409308660E0
1.306357846E1,1.395354108E0,9.526956171E-1,-1.186743141E0,2.064703685E0
1.307354546E1,1.719923839E0,7.555520636E-1,-1.023492535E0,2.139283502E0
1.308351246E1,1.771709266E0,7.665074068E-1,-1.145019895E0,2.244450465E0
1.309347846E1,1.708729199E0,7.647935879E-1,-1.115492187E0,2.179217182E0
1.310344546E1,1.523306243E0,5.187293047E-1,-1.104102396E0,1.951559403E0
1.311341246E1,1.117898609E0,5.272510368E-1,-1.228021122E0,1.742333731E0
1.312337946E1,6.197579353E-1,4.633514947E-1,-1.020187177E0,1.280459442E0
1.313334646E1,2.008319771E-1,3.427444857E-1,-5.635786913E-1,6.895130215E-1
1.314331346E1,9.164721161E-2,5.211108756E-1,-5.494687752E-1,7.628051461E-1
1.315328046E1,-1.075127542E-2,4.779063839E-1,-4.704371506E-1,6.706871210E-1
1.316324746E1,-1.914809637E-1,7.059337610E-1,-1.915874561E-1,7.561171786E-1
1.317321446E1,-5.986696596E-1,6.860538125E-1,-9.530438919E-2,9.155097605E-1
1.318318146E1,-9.608071670E-1,5.956517655E-1,8.449979447E-2,1.133618831E0
1.319314846E1,-1.107352571E0,7.202471602E-1,2.086234285E-1,1.337351645E0
1.320311546E1,-1.069660103E0,8.248889315E-1,3.861921851E-1,1.404905295E0
1.321308246E1,-1.179747971E0,5.685727251E-1,6.684648031E-1,1.470348738E0
1.322304846E1,-1.119677332E0,5.990642005E-1,9.931775721E-1,1.612128076E0
1.323301546E1,-9.071855682E-1,9.640251821E-1,1.056148649E0,1.693452148E0
1.324298246E1,-1.259166901E0,6.688004333E-1,1.060624693E0,1.776997480E0
1.325294971E1,-1.446992770E0,5.368919259E-1,1.305525380E0,2.021493887E0
1.326291671E1,-1.436296166E0,8.975780082E-1,1.472728851E0,2.244442743E0
1.327288371E1,-1.791928207E0,1.473322928E-1,1.271336126E0,2.202046559E0
1.328285071E1,-1.993865308E0,-8.689196348E-2,1.435105526E0,2.458165363E0
1.329281771E1,-1.840879927E0,1.631782472E-1,1.179462919E0,2.192395682E0
1.330278471E1,-2.159026054E0,-2.348931777E-1,1.024111755E0,2.401119154E0
1.331275171E1,-2.389387639E0,-5.075330561E-1,1.225878117E0,2.733045966E0
1.332271871E1,-2.241815611E0,2.229847383E-1,1.333991965E0,2.618204344E0
1.333268571E1,-2.577449736E0,-5.813711107E-2,9.948803544E-1,2.763406229E0
1.334265171E1,-2.583982245E0,-1.352232939E-1,1.105074642E0,2.813616809E0
1.335261871E1,-2.608619488E0,1.165607357E-1,8.678554416E-1,2.751664062E0
1.336258571E1,-2.800283616E0,-9.752395570E-2,9.878449845E-1,2.971016150E0
1.337255271E1,-2.869264973E0,-9.470735192E-2,1.072527797E0,3.064631600E0
1.338251971E1,-3.040006886E0,-9.185133791E-1,1.211373514E0,3.398931374E0
1.339248671E1,-2.279901157E0,-2.697870219E-1,1.459894212E0,2.720666359E0
1.340245371E1,-2.160927422E0,-1.004407808E0,1.291014930E0,2.710195919E0
1.341242071E1,-1.864077001E0,-1.379051778E0,1.571245079E0,2.800960187E0
1.342238771E1,-8.651970050E-1,-4.950603604E-1,1.565525333E0,1.855941859E0
1.343235471E1,-1.900013842E0,-2.051288620E0,9.596087801E-1,2.956126962E0
1.344232171E1,-1.753557316E0,-2.497889012E0,1.092739502E0,3.241680489E0
1.345228871E1,-8.697138329E-1,-2.327085995E0,3.716175981E-1,2.511937702E0
1.346225471E1,-7.402950700E-1,-2.689336208E0,2.180042262E-1,2.797872740E0
1.347222171E1,-5.667356761E-1,-2.949702780E0,4.694130108E-2,3.004020523E0
1.348218871E1,-4.736332387E-1,-2.735504653E0,-5.922843540E-1,2.838681896E0
1.349215571E1,-9.448676571E-1,-2.242502512E0,-1.500563936E0,2.858895684E0
1.350212271E1,-1.710604693E0,-1.972029612E0,-2.349329388E0,3.512038978E0
1.351208971E1,-1.614041143E0,-1.730972884E0,-2.399167400E0,3.370074205E0
1.352205671E1,-4.994669683E-1,-1.418236309E0,-1.955298389E0,2.466587374E0
1.353202371E1,1.095326164E0,-9.745092398E-1,-1.417504238E0,2.039295449E0
1.354199071E1,2.700544443E0,-2.391978979E-1,-1.421700200E0,3.061272183E0
1.355195771E1,3.869299064E0,6.454858303E-1,-1.669556509E0,4.263278801E0
1.356192471E1,4.321218667E0,1.587903796E0,-1.639975591E0,4.887114606E0
1.357189171E1,4.003515467E0,1.968973272E0,-1.590876667E0,4.736652870E0
1.358185871E1,3.483696241E0,1.755332969E0,-1.823845965E0,4.306245167E0
1.359182471E1,2.845817639E0,1.264804786E0,-1.831917461E0,3.613077741E0
1.360179171E1,2.286107831E0,7.635457921E-1,-1.666261310E0,2.930139578E0
1.361175871E1,1.819461284E0,3.542833811E-1,-1.504749373E0,2.387514765E0
1.362172571E1,1.405479731E0,-2.220059144E-1,-1.564771042E0,2.114986599E0
1.363169271E1,1.052304690E0,-8.959279239E-1,-1.389850416E0,1.960029639E0
1.364165971E1,9.485526455E-1,-1.635415347E0,-9.171053696E-1,2.101289542E0
1.365162671E1,1.049746387E0,-2.113280216E0,-7.697578740E-1,2.482024966E0
1.366159371E1,1.178679027E0,-2.103251072E0,-8.715707624E-1,2.563705309E0
1.367156071E1,1.057347256E0,-1.828199801E0,-9.218556476E-1,2.304368800E0
1.368152771E1,6.581057297E-1,-1.482743377E0,-8.225781119E-1,1.818863883E0
1.369149471E1,9.944922455E-2,-7.536604893E-1,-6.756650645E-1,1.017063204E0
1.370146071E1,-3.082929835E-1,-3.236129808E-1,-4.615926522E-1,6.425244755E-1
1.371142771E1,-6.423525998E-1,5.587599277E-2,-3.055807525E-1,7.135254623E-1
1.372139471E1,-6.465976784E-1,1.237241596E-1,-3.519281226E-1,7.464915464E-1
1.373136171E1,-5.783103126E-1,-7.005198240E-2,-2.921473593E-1,6.516902465E-1
1.374132871E1,-3.377667511E-1,-7.257037818E-2,-2.947639883E-1,4.541350533E-1
1.375129571E1,-2.684602886E-4,-1.066754329E-1,-1.834669161E-1,2.122258923E-1
1.376126271E1,2.360765811E-1,-1.510230553E-1,-3.375308890E-2,2.822753733E-1
1.377122971E1,4.761118003E-1,-1.338983148E-1,7.904317282E-2,5.008582916E-1
1.378119671E1,5.855813983E-1,-3.648311734E-2,1.781377637E-1,6.131636444E-1
1.379116371E1,6.662023692E-1,3.049007213E-1,2.296697869E-1,7.678139472E-1
1.380113071E1,7.095821312E-1,6.689805275E-1,2.374104041E-1,1.003695894E0
1.381109771E1,6.577392554E-1,1.163698826E0,2.144348665E-1,1.353808774E0
1.382106371E1,5.491843812E-1,1.607234107E0,1.682243212E-1,1.706781878E0
1.383103071E1,3.526243798E-1,1.947988200E0,2.075627071E-1,1.990498495E0
1.384099771E1,1.708265515E-1,2.291370617E0,2.673680288E-1,2.313232949E0
1.385096471E1,-3.159338325E-2,2.178083153E0,2.800838955E-1,2.196244829E0
1.386093171E1,-2.519537450E-1,1.971910329E0,3.960108662E-1,2.027001638E0
1.387089871E1,-3.624114494E-1,1.831013482E0,5.230521512E-1,1.938436479E0
1.388086571E1,-4.421234706E-1,1.830135230E0,6.026731020E-1,1.976887197E0
1.389083271E1,-6.176624393E-1,1.900959045E0,6.643904632E-1,2.106315946E0
1.390079971E1,-8.396306393E-1,1.886608223E0,6.061440092E-1,2.152134001E0
1.391076671E1,-9.545905535E-1,1.721629618E0,4.011030601E-1,2.009013522E0
1.392073371E1,-9.747415204E-1,1.537398471E0,1.179079342E-1,1.824175806E0
1.393069971E1,-8.470095330E-1,1.223540985E0,-1.569860458E-2,1.488194926E0
1.394066671E1,-5.598146193E-1,7.836590445E-1,1.680723667E-2,9.632218795E-1
1.395063371E1,-2.032869306E-1,2.685368872E-1,2.953036863E-1,4.479306900E-1
1.396060071E1,2.038764761E-1,-1.750042409E-1,9.062470901E-1,9.452385361E-1
1.397056771E1,5.145941538E-1,-5.215149182E-1,1.667905255E0,1.821727996E0
1.398053471E1,6.892020996E-1,-8.135429943E-1,2.250261621E0,2.490086164E0
1.399050171E1,6.464373185E-1,-9.724521893E-1,2.480152652E0,2.741295614E0
1.400046871E1,4.114198874E-1,-9.202236897E-1,2.603699057E0,2.792011236E0
1.401043571E1,-1.460488290E-2,-7.281005555E-1,2.725811139E0,2.821416326E0
1.402040271E1,-5.893350184E-1,-5.060806078E-1,2.825869278E0,2.930694546E0
1.403036971E1,-1.388019214E0,-1.636045092E-1,2.885951757E0,3.206568465E0
1.404033671E1,-2.297434911E0,2.668195599E-1,2.860869541E0,3.678855036E0
1.405030271E1,-2.779916595E0,3.420621157E-1,2.958144990E0,4.073765402E0
1.406026971E1,-2.510019060E0,-2.394101518E-1,2.478528296E0,3.535620938E0
1.407023671E1,-1.981686143E0,-1.190937495E0,2.688624601E0,3.545999765E0
1.408020371E1,-9.944975080E-1,-2.614329879E0,2.109527911E0,3.503406060E0
1.409017071E1,-6.851071483E-1,-3.520748878E0,2.284565628E-2,3.586860241E0
1.410013771E1,-1.546647012E-2,-3.904428551E0,-6.246497159E-1,3.954110366E0
1.411010471E1,1.084795036E0,-3.384480686E0,-1.120772662E0,3.726609873E0
1.412007171E1,1.177006358E0,-1.867731657E0,-1.711870031E0,2.793611374E0
1.413003871E1,1.157771503E0,-9.053881341E-1,-1.745170509E0,2.281618424E0
1.414000571E1,1.136977343E0,-9.097700375E-1,-1.764372180E0,2.287664352E0
1.414997271E1,4.072889757E-1,-1.130769061E0,-2.073287015E0,2.396464485E0
1.415993871E1,-5.725633036E-1,-1.142861688E0,-2.320517818E0,2.649295098E0
1.416990571E1,-1.543664494E0,-1.122749605E0,-2.235783038E0,2.939760626E0
1.417987271E1,-2.339273347E0,-7.490312487E-1,-2.030577782E0,3.186925436E0
1.418983971E1,-2.950435144E0,-1.647476399E-1,-1.880172778E0,3.502464703E0
1.419980671E1,-2.854497246E0,1.279043341E-1,-1.941194905E0,3.454381522E0
1.420977371E1,-2.708065424E0,3.063180864E-1,-2.456563230E0,3.669080541E0
1.421974071E1,-3.023346707E0,2.945172358E-1,-3.145846460E0,4.373067077E0
1.422970771E1,-3.159348850E0,1.656440181E-1,-3.468553122E0,4.694654818E0
1.423967471E1,-3.338776510E0,1.765818197E-1,-3.724184035E0,5.004813328E0
1.424964171E1,-3.734187452E0,1.781213915E-1,-4.058799722E0,5.518128155E0
1.425960850E1,-4.070873345E0,1.648447037E-2,-4.073514240E0,5.758975585E0
1.426957450E1,-3.927946637E0,-3.235615253E-1,-3.572423646E0,5.319367213E0
1.427954150E1,-3.440127176E0,-6.521118951E-1,-3.248427672E0,4.776191710E0
1.428950850E1,-2.948318452E0,-8.890814191E-1,-3.280217814E0,4.499208416E0
1.429947550E1,-2.610243845E0,-1.069146425E0,-3.342130473E0,4.373360619E0
1.430944250E1,-2.652033018E0,-1.011838449E0,-3.233216726E0,4.302416364E0
1.431940950E1,-2.830413734E0,-8.197036207E-1,-3.057940589E0,4.246664170E0
1.432937650E1,-2.951382101E0,-6.226314032E-1,-3.123087927E0,4.341889493E0
1.433934350E1,-3.026146354E0,-3.005807984E-1,-3.281208917E0,4.473728035E0
1.434931050E1,-2.864015343E0,4.312964737E-2,-3.418747124E0,4.460075779E0
1.435927750E1,-2.487989968E0,1.425609648E-1,-3.494235263E0,4.291864138E0
1.436924450E1,-2.153769261E0,-2.563477814E-2,-3.467806433E0,4.082286201E0
1.437921050E1,-1.850455766E0,-2.516559756E-1,-3.453097177E0,3.925735267E0
1.438917750E1,-1.640401268E0,-4.109890938E-1,-3.339038465E0,3.742860701E0
1.439914450E1,-1.455488043E0,-4.709522903E-1,-3.084764106E0,3.443255886E0
1.440911150E1,-1.270632706E0,-4.933295846E-1,-2.867083962E0,3.174594777E0
1.441907850E1,-1.216482519E0,-4.805563420E-1,-2.692531711E0,2.993407946E0
1.442904550E1,-1.308454251E0,-5.105280000E-1,-2.611430830E0,2.965174926E0
1.443901250E1,-1.478752652E0,-5.578723204E-1,-2.663903743E0,3.097468980E0
1.444897950E1,-1.700284065E0,-5.693983519E-1,-2.819797529E0,3.341622135E0
1.445894650E1,-1.883337876E0,-5.818365490E-1,-2.932670426E0,3.533560690E0
1.446891350E1,-1.988158572E0,-5.918387961E-1,-2.964088685E0,3.617854253E0
1.447888050E1,-2.027535184E0,-5.500481611E-1,-2.991930202E0,3.655830718E0
1.448884650E1,-2.079080436E0,-4.799073011E-1,-3.016477983E0,3.694864801E0
1.449881350E1,-2.070442929E0,-3.825996923E-1,-3.045219387E0,3.702226028E0
1.450878050E1,-1.978494001E0,-3.424187958E-1,-3.082133444E0,3.678482800E0
1.451874750E1,-1.937983614E0,-3.355348688E-1,-3.143014653E0,3.707681924E0
1.452871450E1,-1.889007044E0,-1.985533172E-1,-2.993886681E0,3.545578724E0
1.453868150E1,-1.860650094E0,9.474828243E-2,-2.709189259E0,3.287963268E0
1.454864850E1,-1.922884057E0,2.271233976E-1,-2.573391184E0,3.220467407E0
1.455861550E1,-1.752588286E0,4.600618511E-1,-2.516249269E0,3.100763292E0
1.456858250E1,-1.555091561E0,5.837678844E-1,-2.451308337E0,2.961082112E0
1.457854950E1,-1.418206196E0,6.026789492E-1,-2.298717059E0,2.767423142E0
1.458851650E1,-1.287786975E0,5.299337393E-1,-2.146978304E0,2.559050781E0
1.459848250E1,-1.269389880E0,4.538369054E-1,-2.089680269E0,2.486781500E0
1.460844950E1,-1.317206363E0,3.198935670E-1,-1.978420619E0,2.398231149E0
1.461841650E1,-1.322162463E0,2.824497521E-1,-1.791569334E0,2.244462546E0
1.462838350E1,-1.312732951E0,1.580502391E-1,-1.636270795E0,2.103718088E0
1.463835050E1,-1.365205279E0,-1.103638566E-1,-1.530115764E0,2.053587078E0
1.464831750E1,-1.237152426E0,-4.725111580E-1,-1.459655646E0,1.970890034E0
1.465828450E1,-1.095981344E0,-6.257310122E-1,-1.512886358E0,1.970162313E0
1.466825150E1,-1.112196550E0,-8.117174935E-1,-1.390458527E0,1.956844749E0
1.467821850E1,-1.152302603E0,-8.469832206E-1,-1.275582958E0,1.916322976E0
1.468818550E1,-1.083031516E0,-8.058293474E-1,-1.293297683E0,1.869475086E0
1.469815250E1,-9.244591203E-1,-6.204041988E-1,-1.382473569E0,1.775037803E0
1.470811850E1,-9.559688884E-1,-6.629117024E-1,-1.497876556E0,1.896566007E0
1.471808550E1,-8.684366548E-1,-4.283553243E-1,-1.317388211E0,1.634986913E0
1.472805250E1,-1.022690004E0,-1.542495489E-1,-1.090752618E0,1.503139728E0
1.473801950E1,-9.837593888E-1,1.826073754E-1,-1.039240768E0,1.442618925E0
1.474798650E1,-1.086683833E0,4.845494056E-1,-9.515570911E-1,1.523525772E0
1.475795350E1,-1.447843247E0,2.426302135E-1,-8.399980637E-1,1.691365199E0
1.476792050E1,-1.492852336E0,3.288807374E-1,-6.493986408E-1,1.660870022E0
1.477788750E1,-1.938689373E0,3.843766612E-1,-3.209663849E-1,2.002318986E0
1.478785450E1,-2.297329368E0,2.359977168E-1,-3.259004116E-1,2.332301059E0
1.479782150E1,-2.264044678E0,4.145640814E-1,-3.951364151E-1,2.335357461E0
1.480778850E1,-2.196418413E0,4.701640856E-1,-1.389754522E-1,2.250471570E0
1.481775450E1,-1.860791451E0,4.874227273E-1,-1.026838312E-1,1.926309868E0
1.482772150E1,-1.786808970E0,2.639316201E-2,-3.577455175E-1,1.822461179E0
1.483768850E1,-1.865959951E0,-3.602165508E-1,1.316523993E-1,1.904965841E0
1.484765550E1,-1.867057619E0,1.455956697E-3,6.217050581E-1,1.967847416E0
1.485762250E1,-2.077255520E0,2.479394853E-1,6.575556529E-1,2.192907641E0
1.486758950E1,-2.300964729E0,1.286919540E-1,3.364103432E-1,2.328985234E0
1.487755650E1,-2.241868528E0,3.012467963E-1,-8.826605916E-2,2.263739169E0
1.488752350E1,-2.231481388E0,2.331425214E-1,-1.863684507E-1,2.251354663E0
1.489749050E1,-2.192845180E0,1.298198819E-1,-1.235259390E-1,2.200154958E0
1.490745750E1,-1.887083310E0,-1.693622625E-1,-2.252569664E-1,1.908011450E0
1.491742450E1,-1.136073948E0,-3.543126172E-1,-4.481060493E-1,1.271613336E0
1.492739150E1,-4.060379639E-1,-4.045478010E-1,-5.021398768E-1,7.620171962E-1
1.493735750E1,1.377136230E-1,-7.263422978E-1,-5.487205508E-1,9.206695490E-1
1.494732450E1,2.573641737E-1,-1.065549803E0,-7.327277496E-1,1.318530491E0
1.495729150E1,-5.760004431E-2,-1.167207740E0,-9.966894829E-1,1.535930206E0
1.496725850E1,-2.243506479E-1,-1.582668200E0,-9.485059409E-1,1.858718742E0
1.497722550E1,1.111956230E-1,-2.090840941E0,-2.614503542E-1,2.110056064E0
1.498719250E1,9.880921756E-1,-2.238165632E0,2.662564731E-1,2.461016874E0
1.499715950E1,1.608044092E0,-2.068961830E0,5.083535667E-1,2.669238132E0
1.500712650E1,1.901286196E0,-1.800095744E0,3.139112806E-1,2.637000982E0
1.501709350E1,1.709627039E0,-1.776040299E0,-3.356301785E-4,2.465186376E0
1.502706050E1,1.223551218E0,-1.908186788E0,-2.792223814E-1,2.283904450E0
1.503702750E1,6.738075502E-1,-1.940400853E0,-3.852557901E-1,2.089878970E0
1.504699450E1,2.107000306E-1,-1.842394502E0,-3.694843876E-1,1.890854494E0
1.505696050E1,-4.672042251E-2,-1.604850197E0,-1.844591886E-1,1.616091626E0
1.506692750E1,1.840567540E-1,-1.129124240E0,5.163924649E-2,1.145192145E0
1.507689450E1,5.379698601E-1,-7.211014384E-1,5.448963256E-1,1.051813130E0
1.508686150E1,9.321815380E-1,-2.795875400E-1,3.657912862E-1,1.039680180E0
1.509682850E1,1.372747164E0,2.166481107E-1,-3.992475924E-1,1.445949453E0
1.510679550E1,1.853766021E0,6.753551620E-1,-9.721156821E-1,2.199445829E0
1.511676250E1,2.081635669E0,1.094525680E0,-1.256821290E0,2.666607073E0
1.512672950E1,2.206913434E0,1.441915194E0,-1.360175797E0,2.966422851E0
1.513669650E1,2.186690108E0,1.232314147E0,-1.288058432E0,2.821224257E0
1.514666350E1,2.148608508E0,9.637655658E-1,-1.421953677E0,2.750875287E0
1.515663050E1,1.872967985E0,8.248526788E-1,-1.575514716E0,2.582757757E0
1.516659750E1,1.510440761E0,4.511138570E-1,-1.106539808E0,1.925971274E0
1.517656350E1,1.150957451E0,-1.376428717E-1,-2.804557054E-1,1.192603881E0
1.518653050E1,9.879471646E-1,-6.135834217E-1,-5.273320207E-1,1.276950773E0
1.519649750E1,8.964553428E-1,-4.727842230E-1,-1.233380095E0,1.596365735E0
1.520646450E1,4.979832374E-1,-2.345885378E-1,-7.831198581E-1,9.572334088E-1
1.521643150E1,9.652262002E-2,-3.320943671E-1,-1.852770679E-1,3.923402563E-1
1.522639850E1,-1.028117390E-1,-3.636336637E-1,7.443622470E-2,3.851499014E-1
1.523636550E1,-2.581104246E-1,-4.427909303E-1,4.714282537E-1,6.963687224E-1
1.524633250E1,-5.151560712E-1,-5.905898309E-1,8.358816238E-1,1.145809851E0
1.525629913E1,-5.877932538E-1,-9.503847975E-1,1.047140356E0,1.531416043E0
1.526626613E1,-8.583142474E-1,-1.471414397E0,1.086230162E0,2.020311768E0
1.527623313E1,-1.276293688E0,-1.565147018E0,1.200580723E0,2.349469054E0
1.528620013E1,-1.451393530E0,-1.392337822E0,1.138679760E0,2.311220324E0
1.529616612E1,-1.453498820E0,-9.055699825E-1,1.096653482E0,2.033559606E0
1.530613312E1,-1.537369966E0,-3.533893418E-1,1.106686134E0,1.926952163E0
1.531610012E1,-1.344652024E0,2.436172235E-1,1.109717331E0,1.760372396E0
1.532606712E1,-1.079711905E0,6.519417411E-1,1.197551866E0,1.739234401E0
1.533603412E1,-9.089572746E-1,7.295699608E-1,1.553944337E0,1.942477454E0
1.534600112E1,-9.427446793E-1,5.922188652E-1,1.946025875E0,2.241987382E0
1.535596812E1,-8.955417153E-1,5.846274251E-1,1.967640692E0,2.239507554E0
1.536593513E1,-6.895900624E-1,1.092921789E0,1.863940907E0,2.268102334E0
1.537590213E1,-4.970481214E-1,1.639318364E0,1.694084555E0,2.409220623E0
1.538586913E1,-4.148543957E-1,1.969541622E0,1.509100871E0,2.515667667E0
1.539583613E1,-4.170336530E-1,2.054670065E0,1.394821719E0,2.518156820E0
1.540580313E1,-5.470076090E-1,2.205682011E0,1.407371598E0,2.673003044E0
1.541577012E1,-6.782852018E-1,2.333961151E0,1.488433887E0,2.850066825E0
1.542573612E1,-7.879278043E-1,2.268006313E0,1.614445478E0,2.893288278E0
1.543570312E1,-7.247217420E-1,2.093068146E0,1.715836782E0,2.801830067E0
1.544567012E1,-7.352410291E-1,1.776902763E0,1.853412995E0,2.670786875E0
1.545563712E1,-7.046562906E-1,1.400446740E0,1.972994403E0,2.520019538E0
1.546560412E1,-7.024454583E-1,1.094726239E0,1.840555553E0,2.253774590E0
1.547557112E1,-6.058377613E-1,8.641366124E-1,1.646161945E0,1.955408046E0
1.548553813E1,-4.666689125E-1,5.650971401E-1,1.708306738E0,1.858877769E0
1.549550513E1,-2.304112870E-1,1.922541118E-1,1.887445545E0,1.911151927E0
1.550547213E1,-4.594888240E-2,-2.588527286E-1,1.982673299E0,2.000027361E0
1.551543913E1,1.629102986E-1,-6.597770101E-1,2.123829178E0,2.229909380E0
1.552540613E1,3.761103062E-1,-9.262165010E-1,2.212095091E0,2.427488550E0
1.553537312E1,2.752942219E-1,-9.115084147E-1,2.319892750E0,2.507695530E0
1.554533912E1,-2.099597731E-1,-6.460723060E-1,2.164418210E0,2.268523466E0
1.555530612E1,-2.044606130E-1,-6.041343212E-3,1.917397907E0,1.928277826E0
1.556527312E1,-2.776285766E-1,2.493048102E-1,1.771009355E0,1.809890784E0
1.557524012E1,-4.593964380E-1,7.624418378E-2,2.453183540E0,2.496991738E0
1.558520712E1,-9.125952660E-1,-5.880088699E-1,3.257193233E0,3.433350013E0
1.559517412E1,-5.379781924E-1,-2.045050226E0,3.894492377E0,4.431559752E0
1.560514113E1,3.619234993E-1,-3.857927399E0,3.666043416E0,5.334272843E0
1.561510813E1,1.497759612E0,-5.540025746E0,3.208878275E0,6.575109802E0
1.562507513E1,2.165248076E0,-6.802482875E0,9.041631424E-1,7.195803185E0
1.563504213E1,2.077076595E0,-6.324905689E0,-1.351972153E0,6.793122100E0
1.564500913E1,1.945763335E0,-3.333053255E0,-9.863644695E-1,3.983485135E0
1.565497612E1,1.120810961E0,7.389091337E-1,4.165525733E-1,1.405603061E0
1.566494312E1,-1.577166554E-1,2.563791810E0,1.321021087E0,2.888425124E0
1.567490912E1,-8.569910225E-1,2.066674399E0,1.468790313E0,2.676363515E0
1.568487612E1,-1.320411514E0,3.240053290E-1,8.463596150E-2,1.362214839E0
1.569484312E1,-1.036070773E0,-5.681067020E-1,-1.316940461E0,1.769327570E0
1.570481012E1,-1.143129491E0,-5.738457441E-1,-2.320570296E0,2.649734038E0
1.571477712E1,-7.867896438E-1,9.080006701E-1,-2.839645903E0,3.083357263E0
1.572474413E1,-1.117923313E0,1.941146958E0,-3.123329417E0,3.843564842E0
1.573471113E1,-9.811013907E-1,2.200562773E0,-2.872779735E0,3.749386598E0
1.574467813E1,-1.286469305E0,1.920639018E0,-3.164229521E0,3.918699526E0
1.575464513E1,-6.412661871E-1,1.451716297E0,-3.035633461E0,3.425459537E0
1.576461212E1,-2.998212451E-1,8.471814412E-1,-3.116499869E0,3.243482790E0
1.577457912E1,-3.634942076E-1,4.695290780E-1,-3.384598800E0,3.436290825E0
1.578454612E1,-5.400169703E-1,5.289952612E-1,-3.550943899E0,3.630517441E0
1.579451312E1,-5.839997265E-1,7.314743990E-1,-3.365525182E0,3.493260687E0
1.580447912E1,-5.847566485E-1,7.226439339E-1,-3.017507678E0,3.157452641E0
1.581444612E1,-5.967294073E-1,6.758480823E-1,-2.700506144E0,2.847031796E0
1.582441312E1,-5.076882997E-1,7.592767400E-1,-2.486265916E0,2.648729277E0
1.583438012E1,-3.458212906E-1,8.821834588E-1,-2.165191796E0,2.363449922E0
1.584434713E1,-1.615682164E-1,8.328809059E-1,-1.977385662E0,2.151708379E0
1.585431413E1,-8.848679155E-2,6.723537862E-1,-1.878226824E0,1.996903986E0
1.586428113E1,-1.844664976E-2,4.691180187E-1,-1.741214283E0,1.803396565E0
1.587424813E1,1.733275518E-1,2.862545353E-1,-1.496341662E0,1.533304428E0
1.588421512E1,3.563806312E-1,2.019832939E-1,-1.268262244E0,1.332776623E0
1.589418212E1,4.997148903E-1,4.273887795E-1,-1.124645857E0,1.302767993E0
1.590414912E1,5.634135805E-1,6.928225493E-1,-8.690786791E-1,1.246088158E0
1.591411612E1,5.489051767E-1,8.106831211E-1,-7.747338545E-1,1.248485707E0
1.592408212E1,4.773004662E-1,1.021460043E0,-8.806842327E-1,1.430664556E0
1.593404912E1,4.716177034E-1,1.080577147E0,-9.569348484E-1,1.518484288E0
1.594401612E1,3.702487649E-1,1.203430656E0,-1.029670703E0,1.626515062E0
1.595398312E1,4.067552711E-1,1.268720666E0,-1.003708481E0,1.668092531E0
1.596395013E1,3.324887618E-1,1.026240141E0,-1.062408679E0,1.514077212E0
1.597391713E1,5.575339128E-1,8.548243368E-1,-9.517314112E-1,1.395478911E0
1.598388413E1,8.020219329E-1,9.858037215E-1,-6.368915927E-1,1.421505912E0
1.599385113E1,7.139587721E-1,2.958387065E-1,-3.374732208E-1,8.432946361E-1
1.600381812E1,6.819930674E-1,-2.273046613E-2,1.439760276E-1,6.973953790E-1
1.601378512E1,6.795264195E-1,4.121234536E-2,4.656640685E-1,8.248015742E-1
1.602375212E1,4.203604263E-1,-4.060914660E-1,4.751166773E-1,7.532257455E-1
1.603371912E1,2.508372192E-1,-5.281392288E-1,7.483863008E-1,9.497012219E-1
1.604368612E1,7.693298578E-2,-4.207761633E-1,9.275344634E-1,1.021416391E0
1.605365212E1,-2.329864007E-1,-5.295144939E-1,9.819345459E-1,1.139677022E0
1.606361912E1,-8.326601735E-1,-1.184600868E0,1.364313287E0,1.989460461E0
1.607358612E1,-6.602076575E-1,-4.432937908E-1,1.750414292E0,1.922585168E0
1.608355313E1,-1.209464837E0,-9.408503276E-1,1.604354353E0,2.218548494E0
1.609352013E1,-1.467767781E0,-5.259582174E-1,1.728164467E0,2.327558104E0
1.610348713E1,-2.176523993E0,-7.230280960E-1,1.650777737E0,2.825790766E0
1.611345413E1,-2.578527963E0,-1.577806824E-1,1.532984408E0,3.003954459E0
1.612342112E1,-3.718778284E0,-1.104142596E0,1.450874298E0,4.141675872E0
1.613338812E1,-3.565676836E0,-4.703406715E-1,1.858167951E0,4.048216864E0
1.614335512E1,-3.999698989E0,-5.154080862E-1,1.879357091E0,4.449182012E0
1.615332212E1,-4.374221923E0,-1.183783427E0,2.206430454E0,5.040188090E0
1.616328912E1,-4.141200439E0,-6.294492567E-1,2.368343364E0,4.811943238E0
1.617325512E1,-3.966069021E0,-4.912865674E-1,2.650773236E0,4.795588047E0
1.618322212E1,-4.333256622E0,-1.452274121E0,2.335408337E0,5.132284596E0
1.619318912E1,-3.990594290E0,-1.769299044E0,2.183673091E0,4.880951758E0
1.620315613E1,-3.650204770E0,-1.609327410E0,1.848565654E0,4.396717475E0
1.621312313E1,-3.607903381E0,-1.521163677E0,1.307583600E0,4.128035926E0
1.622309013E1,-3.477789969E0,-2.248181913E0,7.806969181E-1,4.214123000E0
1.623305713E1,-2.419127163E0,-2.931235519E0,6.017113812E-1,3.847905207E0
1.624302412E1,-1.489499250E0,-2.584787992E0,-4.521052524E-2,2.983585254E0
1.625299112E1,-1.035714239E0,-2.205048172E0,-6.539235087E-1,2.522411026E0
1.626295850E1,-1.217426990E0,-3.067201994E0,-1.554889101E0,3.647949652E0
1.627292550E1,-5.595165575E-1,-2.469679120E0,-1.607311875E0,2.999304118E0
1.628289250E1,4.066992840E-1,-1.686212448E0,-1.697244536E0,2.426799486E0
1.629285850E1,1.442632355E0,-8.738312960E-1,-1.850381945E0,2.503733729E0
