"Time (s)","Linear Acceleration x (m/s^2)","Linear Acceleration y (m/s^2)","Linear Acceleration z (m/s^2)","Absolute acceleration (m/s^2)"
5.832166644E-3,-1.938626516E0,-3.342923355E-1,-9.436745328E-1,2.181867493E0
1.579816663E-2,-1.650716633E0,-1.164969426E0,-5.484653199E-1,2.093521764E0
2.576516662E-2,-1.469395646E0,-2.062253319E0,-1.399297178E-1,2.536058485E0
3.573216661E-2,-1.394963222E0,-2.939432146E0,1.616702503E-1,3.257655752E0
4.569916660E-2,-1.274890940E0,-3.586095605E0,3.048972130E-1,3.818165909E0
5.566616659E-2,-1.106963000E0,-3.874451045E0,4.188218777E-1,4.051191152E0
6.563216657E-2,-1.119404413E0,-3.806527449E0,8.141158752E-1,4.050370615E0
7.559916656E-2,-1.227884297E0,-3.942478722E0,1.905426317E0,4.547690377E0
8.556616656E-2,-9.161467186E-1,-4.739047249E0,2.951829997E0,5.657843580E0
9.553316666E-2,1.185043502E-1,-6.162558916E0,3.370452046E0,7.025035422E0
1.055001667E-1,1.758023858E0,-7.177015749E0,3.353395718E0,8.114521907E0
1.154661666E-1,3.241381778E0,-6.748698431E0,3.037299918E0,8.079398315E0
1.254331666E-1,3.328404134E0,-4.782727704E0,2.495332024E0,6.338725446E0
1.354001666E-1,2.515959539E0,-2.393196954E0,6.539425121E-1,3.533423959E0
1.453671666E-1,2.233753031E0,-5.432531118E-2,-8.609511955E-1,2.394543966E0
1.553341666E-1,2.830984422E0,2.537338421E0,-1.125128399E0,3.964652945E0
1.653001666E-1,3.101770733E0,4.540736591E0,-5.737451720E-1,5.528874568E0
1.752671666E-1,2.700333358E0,5.020074958E0,-1.305269565E-1,5.701753250E0
1.852341666E-1,1.926427177E0,3.902755077E0,1.970833272E-1,4.356771821E0
1.952011666E-1,1.466610909E0,3.305293599E0,1.074811646E0,3.772417449E0
2.051681667E-1,1.609609830E0,2.958834377E0,1.992257908E0,3.913391911E0
2.151341666E-1,1.986254134E0,1.722282168E0,2.367937567E0,3.538161906E0
2.251011666E-1,2.330029776E0,6.665580261E-1,2.166780485E0,3.250888498E0
2.350680833E-1,2.614654400E0,5.507901728E-1,1.758448658E0,3.198738678E0
2.450350833E-1,2.598500005E0,6.196750510E-1,1.415786326E0,3.023350850E0
2.550010832E-1,2.267754883E0,4.937014675E-1,1.181034651E0,2.604092201E0
2.649680832E-1,1.776432939E0,6.021854442E-1,9.514197546E-1,2.103221540E0
2.749350832E-1,1.584651575E0,1.137039031E0,4.056447387E-1,1.992115967E0
2.849020832E-1,1.577771449E0,1.823979866E0,-3.265567616E-1,2.433701834E0
2.948690833E-1,1.518557865E0,2.441437068E0,-7.595761174E-1,2.973817215E0
3.048350833E-1,1.539210816E0,2.520361615E0,-7.279415113E-1,3.041593571E0
3.148020833E-1,1.544070729E0,1.951544477E0,-3.856688958E-1,2.518217774E0
3.247690833E-1,1.448873380E0,1.168178962E0,-9.530961514E-3,1.861173555E0
3.347360833E-1,2.077283002E0,4.816585422E-1,-1.205321646E-1,2.135796719E0
3.447030833E-1,1.932175867E0,-1.144569075E-1,5.706151575E-2,1.936403879E0
3.546690833E-1,1.763583391E0,4.106850386E-2,9.643052638E-2,1.766695176E0
3.646360832E-1,1.576163172E0,6.876325607E-2,-1.856607914E-2,1.577771666E0
3.746030832E-1,9.876423785E-1,2.285331613E-1,-4.412308931E-1,1.105599193E0
3.845700832E-1,2.750144327E-1,5.915669006E-1,-8.845217603E-1,1.099073738E0
3.945370832E-1,-4.467275682E-1,8.542536485E-1,-1.319759842E0,1.634344167E0
4.045030833E-1,-9.777737403E-1,9.102372301E-1,-1.582436065E0,2.070912167E0
4.144700833E-1,-1.306439008E0,7.587428892E-1,-1.680085151E0,2.259460061E0
4.244370833E-1,-1.278374712E0,5.595118797E-1,-1.521222149E0,2.064318840E0
4.344040833E-1,-1.111324365E0,3.227733207E-1,-1.113646952E0,1.606061641E0
4.443710833E-1,-8.300993854E-1,5.105028570E-2,-7.412445116E-1,1.114053207E0
4.543370833E-1,-2.377708849E-1,-2.238150430E-1,-7.691029859E-1,8.355522545E-1
4.643040833E-1,4.217962101E-3,-4.036806589E-1,-1.084220839E0,1.156940229E0
4.742710833E-1,2.362106285E-1,-4.502204025E-1,-1.466572025E0,1.552200817E0
4.842380832E-1,2.206747958E-1,-3.394074798E-1,-1.877946158E0,1.921087342E0
4.942050832E-1,1.935945860E-1,-1.746329427E-2,-1.901391154E0,1.911301167E0
5.041710833E-1,2.627906822E-2,2.875210422E-1,-1.674677939E0,1.699383752E0
5.141380833E-1,-3.789412357E-2,2.354194272E-1,-1.304878386E0,1.326486288E0
5.241050833E-1,3.311497495E-2,-9.785958588E-2,-1.282579444E0,1.286733512E0
5.340720833E-1,-1.459886026E-1,-7.862136930E-1,-1.528986667E0,1.725469464E0
5.440390833E-1,-3.391809732E-1,-1.328050609E0,-2.075097021E0,2.486923762E0
5.540050833E-1,-3.586211380E-1,-1.539563695E0,-2.439126248E0,2.906579149E0
5.639720833E-1,-8.438983027E-1,-1.619638390E0,-2.747354328E0,3.298992068E0
5.739390833E-1,-1.214839232E0,-1.224229202E0,-2.864788637E0,3.343887773E0
5.839060833E-1,-1.784180939E0,-9.258364320E-1,-3.054883957E0,3.656882650E0
5.938730832E-1,-2.278353838E0,-7.823586237E-1,-3.478129692E0,4.230882577E0
6.038390832E-1,-2.638282121E0,-6.001254702E-1,-4.132003353E0,4.939041895E0
6.138060833E-1,-3.002096171E0,-4.833419555E-1,-4.652579501E0,5.558119905E0
6.237730833E-1,-3.401294355E0,-7.739585137E-1,-4.890130238E0,6.006761924E0
6.337400833E-1,-3.223921407E0,-1.040844732E0,-4.672912024E0,5.771753094E0
6.437070833E-1,-2.756529486E0,-1.823550096E0,-4.113430550E0,5.276750956E0
6.536730833E-1,-1.826040132E0,-2.551498039E0,-3.196980361E0,4.479424989E0
6.636400833E-1,-1.464083158E0,-2.081043931E0,-1.879124957E0,3.163130402E0
6.736070833E-1,-1.829098518E0,-8.335252690E-1,-5.871314952E-1,2.094060447E0
6.835740833E-1,-1.018492873E0,-5.119120359E-1,-1.005253315E-1,1.144328190E0
6.935410833E-1,-7.295053491E-1,1.019514674E-1,1.067549551E-1,7.442907876E-1
7.035070832E-1,-1.140352502E0,1.508034339E0,1.387687823E0,2.345260943E0
7.134740832E-1,-5.367428950E-1,2.638703413E0,2.659915065E0,3.784969853E0
7.234410833E-1,1.023934804E0,2.945019745E0,2.954803599E0,4.295631279E0
7.334080833E-1,2.501325420E0,2.579126133E0,2.859838092E0,4.592079527E0
7.433750833E-1,3.186769953E0,1.986586255E0,2.283318709E0,4.394948465E0
7.533410833E-1,3.486648501E0,1.132078253E0,1.671459923E0,4.028907695E0
7.633080833E-1,3.274566773E0,1.021760005E-1,1.393242094E0,3.560105478E0
7.732750833E-1,2.904868377E0,-9.220263863E-1,1.524241505E0,3.407595209E0
7.832420833E-1,2.360797825E0,-1.799484125E0,1.687561986E0,3.414582689E0
7.932090833E-1,1.575824618E0,-2.750648357E0,2.129234928E0,3.818760400E0
8.031750832E-1,6.325414836E-1,-3.775124393E0,2.754777660E0,4.715980584E0
8.131420832E-1,-2.365175343E-1,-4.462245322E0,3.457369153E0,5.649865071E0
8.231090832E-1,-5.003518713E-1,-5.590453303E0,4.464624555E0,7.171916937E0
8.330760833E-1,-9.902490672E-1,-5.881010220E0,4.709722293E0,7.599234073E0
8.430430833E-1,-1.844873137E0,-4.370760371E0,4.438705602E0,6.496861591E0
8.530090833E-1,-2.653968154E0,-1.995609094E0,3.559249869E0,4.867675241E0
8.629760833E-1,-2.768236197E0,-2.545819223E-1,2.483106081E0,3.727433353E0
8.729430833E-1,-2.791186810E0,9.309808123E-1,1.342228938E0,3.234041992E0
8.829100833E-1,-2.739203017E0,2.154874969E0,4.762754492E-1,3.517606801E0
8.928770833E-1,-2.507911139E0,2.917702138E0,-4.488074228E-2,3.847677005E0
9.028430833E-1,-2.156527392E0,2.943948535E0,-3.457097550E-1,3.665645729E0
9.128100832E-1,-1.613954312E0,2.494255552E0,-7.290690006E-1,3.059035940E0
9.227770832E-1,-1.254078653E0,1.907361746E0,-7.262015261E-1,2.395435400E0
9.327440832E-1,-7.489929494E-1,1.245020732E0,-9.442341113E-1,1.732814219E0
9.427110833E-1,-2.280247276E-1,6.402935028E-1,-1.220618400E0,1.397097107E0
9.526770833E-1,1.243515658E-1,3.738569355E-1,-1.251111192E0,1.311682711E0
9.626440833E-1,2.970634058E-1,4.228975332E-1,-9.945803922E-1,1.120838591E0
9.726110833E-1,3.544818941E-1,6.478089291E-1,-6.903101470E-1,1.010861969E0
9.825780833E-1,3.974378791E-1,1.126982989E0,-4.461916709E-1,1.275591836E0
9.925450833E-1,3.675334641E-1,1.537955711E0,-3.701766980E-1,1.624013363E0
1.002511083E0,4.568537763E-1,1.873126298E0,-4.718714726E-1,1.984938334E0
1.012478083E0,4.835904622E-1,2.088914284E0,-7.335646324E-1,2.266172917E0
1.022445083E0,3.720404980E-1,2.232799058E0,-1.090937098E0,2.512757353E0
1.032412083E0,8.419581234E-2,2.185316159E0,-1.433766660E0,2.615030111E0
1.042379083E0,-4.395267221E-1,2.000065257E0,-1.629330296E0,2.616899307E0
1.052345083E0,-8.118791690E-1,1.769298459E0,-1.729041403E0,2.603679895E0
1.062312083E0,-1.189447917E0,1.255915849E0,-1.749571269E0,2.460307012E0
1.072279083E0,-1.512480854E0,4.461542487E-1,-1.530959664E0,2.197837446E0
1.082246083E0,-1.698555336E0,-3.833826345E-1,-1.234926829E0,2.134740440E0
1.092213083E0,-1.750335939E0,-1.444299688E0,-6.945322752E-1,2.373194592E0
1.102179083E0,-1.635327054E0,-2.373180766E0,7.171595380E-2,2.882954162E0
1.112146083E0,-1.164639643E0,-2.913052433E0,6.404871918E-1,3.201950002E0
1.122113083E0,-3.537103540E-1,-3.269612719E0,6.278808872E-1,3.348090912E0
1.132080083E0,2.724168254E-1,-3.239558616E0,2.785840116E-1,3.262906680E0
1.142047083E0,3.020408481E-1,-2.869905828E0,-1.919535649E-1,2.892133176E0
1.152013083E0,-2.090908769E-1,-2.344767975E0,-1.174377596E0,2.630744874E0
1.161980083E0,-1.095647761E0,-1.943167756E0,-2.334875510E0,3.229239630E0
1.171947083E0,-2.074663742E0,-1.696079040E0,-2.918478649E0,3.962124604E0
1.181914083E0,-2.849073076E0,-1.728358009E0,-3.544453490E0,4.864934670E0
1.191880083E0,-3.035211293E0,-1.720501106E0,-3.796053332E0,5.155836745E0
1.201847083E0,-2.094724954E0,-1.509708397E0,-2.300299462E0,3.458102036E0
1.211814083E0,3.424272743E-1,-1.814017965E0,6.340644640E-1,1.951910694E0
1.221781083E0,3.258696845E0,-3.473149034E0,3.882886239E0,6.144808775E0
1.231747958E0,5.252700001E0,-5.261076722E0,5.929993515E0,9.509711282E0
1.241713958E0,6.409827141E0,-5.006918138E0,6.647563820E0,1.050453321E1
1.251680958E0,6.680908737E0,-2.750733726E0,5.617505447E0,9.151909365E0
1.261647958E0,5.265163341E0,2.265293205E-1,3.541363529E0,6.349371322E0
1.271614958E0,3.259160237E0,2.618349255E0,1.595504592E0,4.474764036E0
1.281581958E0,2.395030056E0,4.776868209E0,3.000684361E-1,5.352072489E0
1.291547958E0,2.765196814E0,5.495716715E0,-3.499519099E-1,6.162116680E0
1.301514958E0,3.410166627E0,4.324215950E0,-4.477087310E-1,5.525262267E0
1.311481958E0,3.708213243E0,2.685160126E0,-7.058422521E-2,4.578854932E0
1.321448958E0,3.456402901E0,1.650124018E0,6.527153277E-1,3.885314348E0
1.331415958E0,2.924262422E0,9.479681432E-1,1.539990250E0,3.438244360E0
1.341381958E0,2.465936024E0,4.868304044E-1,2.090943267E0,3.269539427E0
1.351348958E0,2.250793864E0,3.743124336E-1,2.112417459E0,3.109419614E0
1.361315958E0,2.117308947E0,5.254921943E-1,1.632476829E0,2.724723807E0
1.371282958E0,2.112512184E0,7.435611784E-1,9.650443518E-1,2.438626982E0
1.381249958E0,2.309418341E0,9.821152979E-1,2.994999406E-1,2.527382786E0
1.391215958E0,2.284998029E0,1.211205699E0,-2.847263655E-1,2.601788681E0
1.401182958E0,1.681920300E0,1.437954290E0,-8.348730522E-1,2.365075358E0
1.411149958E0,1.801538252E0,1.748287075E0,-1.080249703E0,2.732944784E0
1.421116958E0,1.639506352E0,1.361783196E0,-1.259277705E0,2.475523155E0
1.431083958E0,1.627383612E0,6.967951477E-1,-1.027489107E0,2.046859732E0
1.441049958E0,1.588692001E0,1.831494123E-1,-5.750599185E-1,1.699464590E0
1.451016958E0,1.632399938E0,-2.105430329E-1,-5.663671553E-1,1.740640595E0
1.460983958E0,1.737380848E0,-3.770729041E-1,-5.243192428E-1,1.853533613E0
1.470950958E0,1.481783849E0,-3.717823434E-1,-5.415042096E-1,1.620843082E0
1.480917958E0,1.036664850E0,-3.063438141E-1,-8.425697422E-1,1.370563502E0
1.490883958E0,6.238903087E-1,-1.327282870E-1,-1.115977652E0,1.285403453E0
1.500850958E0,2.015482245E-1,-4.779572546E-2,-1.266936388E0,1.283757738E0
1.510817958E0,-3.037511953E-1,-9.141887784E-2,-1.132452182E0,1.176040027E0
1.520784958E0,-6.118313401E-1,-1.699499077E-1,-9.854198518E-1,1.172293839E0
1.530750958E0,-5.874639094E-1,-1.701715171E-1,-9.364631617E-1,1.118496957E0
1.540717958E0,-6.733370686E-1,-1.146732545E-1,-1.158295121E0,1.344685968E0
1.550684958E0,-6.541766200E-1,-1.480175865E-1,-1.572059304E0,1.709159650E0
1.560651958E0,-3.927106977E-1,-1.267840075E-1,-1.827004631E0,1.873030111E0
1.570618958E0,-1.414567912E-1,-1.946777827E-1,-1.845979138E0,1.861598356E0
1.580584958E0,1.028712344E-1,-2.567962629E-1,-1.721474667E0,1.743560105E0
1.590551958E0,1.732413054E-1,-2.382594198E-1,-1.535888135E0,1.563883776E0
1.600518958E0,6.560159348E-2,-2.485312235E-1,-1.546074862E0,1.567296659E0
1.610485958E0,-3.483771086E-1,-2.196097255E-1,-1.727246454E0,1.775661948E0
1.620452958E0,-1.043780911E0,-6.151212394E-2,-2.028427176E0,2.282055903E0
1.630418958E0,-1.889939090E0,-1.316833895E-1,-2.555716805E0,3.181335987E0
1.640385958E0,-2.540612570E0,-3.602756077E-1,-2.591071702E0,3.646664683E0
1.650352958E0,-3.254918374E0,-6.920542252E-1,-2.874781529E0,4.397476721E0
1.660319958E0,-3.597335416E0,-1.025743128E0,-2.935182974E0,4.754815470E0
1.670286958E0,-3.754961732E0,-1.171017786E0,-3.067434421E0,4.988003026E0
1.680252958E0,-3.770605957E0,-1.596662925E0,-3.091385493E0,5.130639926E0
1.690219958E0,-3.424109313E0,-1.746073319E0,-3.020533904E0,4.888447779E0
1.700186958E0,-2.906006538E0,-1.827138532E0,-2.955476613E0,4.529696593E0
1.710153958E0,-2.272322143E0,-1.381046848E0,-2.996325554E0,4.006083517E0
1.720120958E0,-1.663586063E0,-7.034907943E-1,-2.739068823E0,3.280993128E0
1.730086958E0,-1.235863553E0,-2.254101634E-1,-2.121083033E0,2.465189992E0
1.740053958E0,-3.868123189E-1,-9.647321105E-3,-1.389515371E0,1.442383377E0
1.750020958E0,3.329705724E-1,3.174698961E-1,-8.709386784E-1,9.849825981E-1
1.759987958E0,6.443801218E-1,1.090351937E0,-1.469335127E-1,1.275022567E0
1.769954958E0,8.653545143E-1,1.671143004E0,3.894821575E-1,1.921783996E0
1.779920958E0,9.882784825E-1,2.297591470E0,8.112201878E-1,2.629391396E0
1.789887958E0,1.244898817E0,2.546501593E0,1.415712651E0,3.168388508E0
1.799854958E0,1.845479493E0,2.411845479E0,2.001265690E0,3.637012172E0
1.809821958E0,2.677036005E0,2.113137544E0,2.666996043E0,4.329519597E0
1.819788958E0,3.409126115E0,1.612536947E0,3.157391202E0,4.918489146E0
1.829754958E0,3.787409978E0,1.016591066E0,3.439244246E0,5.215969011E0
1.839721958E0,3.481227547E0,-2.870047331E-2,3.468729708E0,4.914453656E0
1.849688958E0,2.475934179E0,-1.064930583E0,3.438691684E0,4.369087743E0
1.859655958E0,1.567038300E0,-1.362477261E0,3.570518038E0,4.130442153E0
1.869621958E0,5.889856473E-1,-1.561749201E0,3.645271767E0,4.009235702E0
1.879588958E0,-4.171447501E-1,-1.938873560E0,3.592119407E0,4.103238021E0
1.889555958E0,-1.564607905E0,-2.574126179E0,3.175938570E0,4.377294745E0
1.899522958E0,-2.093887633E0,-4.165237173E0,2.877623568E0,5.478529321E0
1.909489958E0,-2.787052537E0,-5.128432635E0,2.649906678E0,6.410186311E0
1.919455958E0,-3.306556305E0,-4.927790692E0,2.580755167E0,6.471223450E0
1.929422958E0,-3.854587761E0,-3.399391671E0,2.422748636E0,5.681850182E0
1.939389958E0,-4.069641629E0,-1.252128022E0,2.051184394E0,4.726221005E0
1.949356958E0,-3.644359016E0,1.362073803E-1,1.782340089E0,4.059142925E0
1.959323958E0,-3.062138305E0,1.019382527E0,1.477808473E0,3.549612601E0
1.969289958E0,-2.584666370E0,1.684741289E0,9.453285639E-1,3.226840490E0
1.979256958E0,-1.912516066E0,1.822364865E0,4.349088836E-1,2.677289141E0
1.989223958E0,-1.098805257E0,1.433399894E0,-3.323849738E-2,1.806408881E0
1.999190958E0,-3.600972676E-1,1.137505054E0,-4.150306892E-1,1.263264922E0
2.009156958E0,3.373211932E-1,9.373133469E-1,-6.867952394E-1,1.209970908E0
2.019123958E0,7.375531644E-1,7.196203387E-1,-8.465230447E-1,1.333581406E0
2.029090958E0,7.954730514E-1,6.035554469E-1,-8.287995493E-1,1.297676865E0
2.039057958E0,7.235446975E-1,6.199428535E-1,-4.995084836E-1,1.075804255E0
2.049024958E0,5.366232464E-1,7.447744757E-1,-2.362289742E-2,9.182655223E-1
2.058990958E0,2.499217097E-1,9.704916179E-1,3.009045880E-1,1.046354821E0
2.068957958E0,4.357754409E-2,1.332034902E0,4.020732594E-1,1.392077185E0
2.078924958E0,-3.227429152E-1,1.458791428E0,1.836516881E-1,1.505311716E0
2.088891958E0,-5.605912757E-1,1.500780283E0,-2.517892921E-1,1.621728055E0
2.098858958E0,-6.938440579E-1,1.447886955E0,-7.475127268E-1,1.771036840E0
2.108824958E0,-9.624300617E-1,1.425341261E0,-1.156104608E0,2.072304804E0
2.118791958E0,-1.296904538E0,1.284622754E0,-1.367010022E0,2.280555503E0
2.128758958E0,-1.668917554E0,1.098836832E0,-1.509127768E0,2.504035704E0
2.138725958E0,-1.990656502E0,6.659393907E-1,-1.583064202E0,2.629121688E0
2.148692958E0,-2.408897898E0,4.558255434E-2,-1.480736028E0,2.827975607E0
2.158658958E0,-2.771283473E0,-5.525724041E-1,-1.183413298E0,3.063627814E0
2.168625958E0,-3.143540903E0,-1.447367722E0,-6.488782386E-1,3.521046109E0
2.178592958E0,-3.278718881E0,-2.206815786E0,-4.999515563E-3,3.952221958E0
2.188559958E0,-3.112558554E0,-2.528661153E0,4.697736378E-1,4.037676962E0
2.198525958E0,-2.632861752E0,-2.667106848E0,6.011194968E-1,3.795624401E0
2.208492958E0,-1.900955829E0,-2.451044043E0,3.538604812E-1,3.121933248E0
2.218459958E0,-1.190165005E0,-1.912932388E0,9.419133514E-3,2.252973986E0
2.228426958E0,-8.644104083E-1,-1.225408586E0,-4.611234131E-1,1.568906102E0
2.238394042E0,-8.710465595E-1,-5.060028398E-1,-1.020921514E0,1.434239074E0
2.248360042E0,-8.727696609E-1,-1.779266793E-1,-1.246320129E0,1.531893811E0
2.258327042E0,-4.349991500E-1,-5.251969099E-2,-1.492311322E0,1.555305649E0
2.268294042E0,3.073411299E-1,2.078784567E-1,-1.741793303E0,1.780875047E0
2.278261042E0,1.477795463E0,3.884474927E-1,-1.177465657E0,1.929040243E0
2.288227042E0,2.677107048E0,2.547818971E-1,6.539618079E-1,2.767576920E0
2.298194042E0,3.147426085E0,-8.403086239E-1,2.979210169E0,4.414533133E0
2.308161042E0,3.291668417E0,-2.542841821E0,4.810557527E0,6.359448814E0
2.318128042E0,3.949474915E0,-3.685873078E0,6.011237068E0,8.082016057E0
2.328095042E0,5.186965603E0,-3.336203150E0,5.817028817E0,8.477776116E0
2.338061042E0,5.106472832E0,-2.091799884E0,3.797734991E0,6.698841885E0
2.348028042E0,3.872295762E0,-5.140836918E-1,1.960545534E0,4.370663028E0
2.357995042E0,3.392603931E0,1.158666712E0,8.340304685E-1,3.680744055E0
2.367962042E0,3.426226005E0,2.078238437E0,2.812615979E-1,4.017114353E0
2.377929042E0,3.578710864E0,2.241980941E0,3.934772676E-1,4.241282159E0
2.387895042E0,3.740135824E0,2.001628218E0,7.736357474E-1,4.312034760E0
2.397862042E0,3.842281711E0,1.651173009E0,1.349089476E0,4.394262563E0
2.407829042E0,3.775803255E0,1.211906780E0,1.891215537E0,4.393416036E0
2.417796042E0,3.812114172E0,7.947582293E-1,2.083410592E0,4.416384811E0
2.427762042E0,3.762084517E0,3.917628640E-1,1.961018136E0,4.260557497E0
2.437729042E0,3.542876496E0,1.308115697E-1,1.765297794E0,3.960474950E0
2.447696042E0,3.641782148E0,2.366350633E-1,1.240932212E0,3.854670690E0
2.457663042E0,3.573153378E0,4.556939811E-1,6.537418064E-1,3.660937096E0
2.467630042E0,3.388988012E0,8.070794821E-1,3.228548893E-1,3.498692944E0
2.477596042E0,3.090204940E0,1.022800809E0,1.334100723E-2,3.255098470E0
2.487563042E0,2.687327981E0,1.210280085E0,-1.728893030E-1,2.952355038E0
2.497530042E0,2.574213594E0,1.498056650E0,-2.639515007E-1,2.990053470E0
2.507497042E0,2.312322360E0,1.628813841E0,-3.353484888E-1,2.848214851E0
2.517464042E0,2.234167599E0,1.507235609E0,-3.044773829E-1,2.712189248E0
2.527430042E0,1.797483208E0,1.267181094E0,-4.705055630E-1,2.249015183E0
2.537397042E0,1.293439770E0,9.290126395E-1,-7.411518332E-1,1.756518421E0
2.547364042E0,6.942554095E-1,6.134255469E-1,-9.508363487E-1,1.327543309E0
2.557331042E0,-2.040765971E-1,3.369534034E-1,-1.251269213E0,1.311815344E0
2.567298042E0,-1.181081721E0,1.386444998E-1,-1.434800887E0,1.863553035E0
2.577264042E0,-1.958680711E0,-2.729831100E-2,-1.526278967E0,2.483284682E0
2.587231042E0,-2.450127492E0,-1.356635892E-1,-1.346098625E0,2.798840983E0
2.597198042E0,-2.852726124E0,-3.214471722E-1,-1.134125656E0,3.086683597E0
2.607165042E0,-2.774792972E0,-5.720869017E-1,-9.436052433E-1,2.986159794E0
2.617131042E0,-2.621376651E0,-8.797311366E-1,-8.817232829E-1,2.902236787E0
2.627098042E0,-2.305845107E0,-1.078992552E0,-9.040842050E-1,2.701576361E0
2.637065042E0,-1.901080667E0,-1.028608848E0,-1.088529506E0,2.420132300E0
2.647032042E0,-1.488760162E0,-7.626394737E-1,-1.409704052E0,2.187530869E0
2.656999042E0,-1.128457072E0,-5.523835391E-1,-1.660829685E0,2.082522072E0
2.666965042E0,-6.336794248E-1,-2.686836523E-1,-1.870611557E0,1.993220539E0
2.676932042E0,-2.350756474E-1,8.239253104E-2,-1.730605241E0,1.748440330E0
2.686899042E0,-9.341453254E-2,2.625434911E-1,-1.267743012E0,1.298009131E0
2.696866042E0,1.168997280E-2,3.162530905E-1,-9.166120107E-1,9.697062705E-1
2.706832042E0,1.136622709E-1,3.304191399E-1,-1.140616357E0,1.192938219E0
2.716799042E0,7.906254172E-2,2.853037781E-1,-1.565207244E0,1.592960404E0
2.726766042E0,7.167699672E-2,3.045604134E-1,-2.000407027E0,2.024727861E0
2.736733042E0,-2.610372484E-1,3.164442945E-1,-2.511192597E0,2.544477489E0
2.746700042E0,-6.600668127E-1,2.773737842E-1,-2.687023926E0,2.780777228E0
2.756666042E0,-1.147752080E0,1.567018712E-1,-2.326056593E0,2.598543743E0
2.766633042E0,-1.299885156E0,-2.637263829E-1,-1.625195291E0,2.097739917E0
2.776600042E0,-1.052649091E0,-1.086436057E0,-1.307284223E0,1.999351258E0
2.786567042E0,-9.147294997E-1,-1.937189562E0,-1.375685829E0,2.545966409E0
2.796534042E0,-7.614866951E-1,-2.171531348E0,-1.546553457E0,2.772586874E0
2.806500042E0,-8.950441904E-1,-1.762552527E0,-1.848553082E0,2.706444902E0
2.816467042E0,-1.223331947E0,-1.035517334E0,-2.007276628E0,2.568656587E0
2.826434042E0,-1.611563239E0,-7.322783911E-1,-2.086376300E0,2.736116551E0
2.836401042E0,-1.969614858E0,-4.345253062E-1,-1.904955909E0,2.774356132E0
2.846367042E0,-2.441793310E0,-8.745680451E-2,-1.653508094E0,2.950269865E0
2.856334042E0,-2.882521781E0,-1.527169937E-1,-1.187920624E0,3.121443529E0
2.866301042E0,-2.946046516E0,-2.459590334E-1,-7.409243765E-1,3.047729459E0
2.876268042E0,-3.018460481E0,-4.749973941E-1,-3.843743223E-1,3.079686644E0
2.886235042E0,-2.790784814E0,-7.403557348E-1,-1.602835831E-1,2.891763704E0
2.896201042E0,-2.405824601E0,-9.009559447E-1,-2.276648498E-1,2.579058919E0
2.906168042E0,-1.835919296E0,-6.071935844E-1,-4.806446350E-1,1.992561912E0
2.916135042E0,-1.029468682E0,-5.783013225E-2,-7.893986714E-1,1.298576279E0
2.926102042E0,-9.806986637E-2,4.069515914E-1,-9.070811954E-1,9.990113070E-1
2.936069042E0,8.514899620E-1,7.856663936E-1,-5.627173233E-1,1.288005289E0
2.946035042E0,1.825289057E0,1.322186437E0,2.843126750E-1,2.271715390E0
2.956002042E0,2.629892828E0,2.137475994E0,1.262392517E0,3.616458873E0
2.965969042E0,2.893748142E0,2.839064689E0,2.231701243E0,4.627586527E0
2.975936042E0,2.813336940E0,3.145744718E0,3.107246358E0,5.240758962E0
2.985902042E0,2.358203415E0,2.927127265E0,3.721694291E0,5.289631912E0
2.995869042E0,1.533008382E0,2.184331487E0,4.142283343E0,4.927466899E0
3.005836042E0,1.008847014E0,1.125424122E0,4.321253166E0,4.577945027E0
3.015803042E0,1.004348458E0,-2.318555492E-1,4.030741857E0,4.160451026E0
3.025770042E0,1.163451123E0,-1.625649912E0,3.370878893E0,3.919079058E0
3.035736042E0,1.366978740E0,-2.820828978E0,2.691840570E0,4.131792910E0
3.045703042E0,1.528060760E0,-3.593937306E0,2.141511158E0,4.453922438E0
3.055670042E0,1.407701673E0,-3.528554910E0,1.930410885E0,4.261315518E0
3.065637042E0,1.941435810E0,-4.239550606E0,2.349620579E0,5.221463321E0
3.075603042E0,1.679669999E0,-4.497977657E0,2.891083274E0,5.604592475E0
3.085570042E0,7.749054703E-1,-3.495600003E0,3.467697090E0,4.984437880E0
3.095537042E0,-3.493533378E-1,-2.034656800E0,3.558938797E0,4.114355528E0
3.105504042E0,-1.337674249E0,-6.125923187E-1,3.002687325E0,3.343766277E0
3.115471042E0,-2.062795648E0,9.077568412E-2,1.964290091E0,2.849877484E0
3.125437042E0,-2.648420024E0,9.284536457E-1,6.056427567E-1,2.871055197E0
3.135404042E0,-2.768985810E0,1.526962945E0,-4.545355015E-1,3.194604948E0
3.145371042E0,-2.639134938E0,1.199352808E0,-8.938112319E-1,3.033542301E0
3.155338042E0,-2.328698950E0,8.262314522E-1,-1.125006484E0,2.714983757E0
3.165305042E0,-1.832981070E0,2.857458276E-1,-1.220434505E0,2.220569896E0
3.175271042E0,-1.173963905E0,-2.734631664E-1,-1.399141642E0,1.846773047E0
3.185238042E0,-4.196187070E-1,-6.720953393E-1,-1.586576478E0,1.773419557E0
3.195205042E0,4.930021405E-2,-7.348564285E-1,-1.596612055E0,1.758298762E0
3.205172042E0,1.487180829E-1,-2.280145133E-1,-1.572540968E0,1.595930068E0
3.215138042E0,2.774650007E-2,3.723214567E-1,-1.320359766E0,1.372130842E0
3.225105042E0,-2.047080964E-1,1.162746899E0,-1.111843525E0,1.621752688E0
3.235072083E0,-4.339613423E-1,1.983031733E0,-1.272280597E0,2.395711840E0
3.245039083E0,-6.678330114E-1,2.497055199E0,-1.587701921E0,3.033493528E0
3.255006083E0,-8.137596336E-1,2.769425520E0,-1.846894666E0,3.426797683E0
3.264972083E0,-1.125915288E0,2.536577114E0,-2.029297388E0,3.438016373E0
3.274939083E0,-1.444099129E0,1.622400030E0,-2.056656364E0,2.991227098E0
3.284906083E0,-1.453716044E0,2.609565568E-1,-1.865220132E0,2.379166829E0
3.294873083E0,-1.557144518E0,-1.027575645E0,-1.423104701E0,2.346452162E0
3.304839083E0,-1.554769379E0,-1.908534113E0,-4.634082127E-1,2.504906676E0
3.314806083E0,-1.351075483E0,-2.729297249E0,6.153568091E-1,3.106949056E0
3.324773083E0,-1.147598444E0,-3.548607352E0,1.153186555E0,3.903771965E0
3.334740083E0,-7.927470794E-1,-3.852626313E0,8.953187902E-1,4.033952550E0
3.344707083E0,-4.386563275E-1,-3.644816853E0,-2.203675977E-1,3.677726356E0
3.354673083E0,-2.984100196E-1,-3.212898821E0,-1.697187088E0,3.645848513E0
3.364640083E0,-3.491658980E-1,-2.588755327E0,-2.511643417E0,3.623799611E0
3.374607083E0,-4.085855958E-1,-1.505750417E0,-2.430949502E0,2.888553615E0
3.384574083E0,-1.596599776E-1,-2.930507541E-2,-1.948648936E0,1.955398366E0
3.394541083E0,8.601043725E-1,8.405045056E-1,-1.449987275E0,1.883796818E0
3.404507083E0,1.998899322E0,8.277528977E-1,-1.144957330E0,2.447795058E0
3.414474083E0,2.935789038E0,2.476132107E-1,-1.219815285E0,3.188748800E0
3.424441083E0,3.400239517E0,-5.953319228E-1,-1.520231046E0,3.771889620E0
3.434408083E0,3.214465582E0,-9.349838161E-1,-1.568496888E0,3.696913064E0
3.444374083E0,2.569992197E0,-5.116629446E-1,-1.630285293E0,3.086177085E0
3.454341083E0,1.932029979E0,4.167602956E-1,-1.825637698E0,2.690609966E0
3.464308083E0,1.864295248E0,1.365932965E0,-1.944814624E0,3.020541932E0
3.474275083E0,1.815753857E0,1.833136021E0,-2.237644938E0,3.415319108E0
3.484242083E0,1.827646947E0,1.917428897E0,-2.701723534E0,3.783667135E0
3.494208083E0,1.801333600E0,1.716847181E0,-3.331425683E0,4.158216452E0
3.504175083E0,1.344294467E0,1.272421954E0,-4.045111974E0,4.448495940E0
3.514142083E0,7.029351626E-1,8.182979500E-1,-4.546754546E0,4.672976169E0
3.524109083E0,3.959427461E-1,4.825438106E-1,-4.842830064E0,4.882890765E0
3.534075083E0,6.339175527E-1,2.387985331E-1,-4.986906627E0,5.032704433E0
3.544042083E0,1.182643805E0,2.388610983E-1,-5.099741517E0,5.240521399E0
3.554009083E0,1.492409117E0,4.070018774E-1,-4.886854043E0,5.125844120E0
3.563976083E0,1.609542880E0,4.323524809E-1,-4.245813266E0,4.561193620E0
3.573943083E0,1.899946892E0,2.562203121E-1,-3.406940134E0,3.909307882E0
3.583909083E0,2.425727646E0,7.368661165E-3,-2.686182804E0,3.619362785E0
3.593876083E0,3.048452312E0,-3.484022516E-1,-2.323727939E0,3.848916362E0
3.603843083E0,3.571881317E0,-7.390108752E-1,-2.397014894E0,4.364648166E0
3.613810083E0,3.726021523E0,-9.974718404E-1,-2.770966846E0,4.749362454E0
3.623776083E0,3.275775685E0,-1.037221212E0,-3.104920628E0,4.631097741E0
3.633743083E0,2.610434172E0,-8.517697513E-1,-3.171325994E0,4.194900099E0
3.643710083E0,2.055192514E0,-6.019614959E-1,-3.173682130E0,3.828633199E0
3.653677083E0,1.761664627E0,-4.683526182E-1,-3.243855442E0,3.720942698E0
3.663644083E0,1.806162523E0,-4.275694585E-1,-3.200473780E0,3.699739331E0
3.673610083E0,1.994996013E0,-4.969419944E-1,-2.979752791E0,3.620205399E0
3.683577083E0,2.202089335E0,-6.177448851E-1,-2.670040981E0,3.515668503E0
3.693544083E0,2.289631363E0,-9.656752664E-1,-2.406718933E0,3.459369382E0
3.703511083E0,2.343990734E0,-1.383740661E0,-2.121816566E0,3.451251413E0
3.713478083E0,2.186946947E0,-1.745483919E0,-1.873219854E0,3.367254621E0
3.723444083E0,1.790954938E0,-1.819987972E0,-1.616662742E0,3.022163832E0
3.733411083E0,1.338898656E0,-1.739810951E0,-1.471251844E0,2.642758737E0
3.743378083E0,1.131309417E0,-1.649272079E0,-1.505912677E0,2.503543964E0
3.753345083E0,1.152439793E0,-1.554632555E0,-1.706354645E0,2.580047680E0
3.763311083E0,1.217211593E0,-1.395228685E0,-1.913975239E0,2.662999880E0
3.773278083E0,1.284429357E0,-1.212279832E0,-1.995759952E0,2.665040141E0
3.783245083E0,1.219694102E0,-1.031423698E0,-1.971899219E0,2.537690895E0
3.793212083E0,9.919637632E-1,-9.247710693E-1,-1.861411402E0,2.303051464E0
3.803179083E0,7.413393096E-1,-9.397329247E-1,-1.657368426E0,2.044395275E0
3.813145083E0,5.029523474E-1,-1.037003696E0,-1.316179007E0,1.749475610E0
3.823112083E0,3.149811018E-1,-1.234619120E0,-9.637097248E-1,1.597571250E0
3.833079083E0,2.754795056E-1,-1.608466115E0,-7.355081007E-1,1.789978873E0
3.843046083E0,2.963425903E-1,-2.021360816E0,-6.835055959E-1,2.154274444E0
3.853012083E0,2.486103071E-1,-2.180737789E0,-7.284315079E-1,2.312582290E0
3.862979083E0,8.260412715E-2,-1.953938327E0,-9.647557917E-1,2.180699925E0
3.872946083E0,-1.575081291E-1,-1.560535904E0,-1.335555218E0,2.060045839E0
3.882913083E0,-3.152616951E-1,-1.298948432E0,-1.814402127E0,2.253599797E0
3.892880083E0,-3.064486986E-1,-1.155701589E0,-2.332939935E0,2.621481586E0
3.902846083E0,-9.220079675E-2,-1.119374592E0,-2.877448444E0,3.088884914E0
3.912813083E0,1.490447961E-1,-1.162768534E0,-3.318308916E0,3.519292411E0
3.922780083E0,3.142232296E-1,-1.160037299E0,-3.692696779E0,3.883353225E0
3.932747083E0,3.784429067E-1,-1.148085591E0,-3.911318910E0,4.093865553E0
3.942713083E0,2.096449006E-1,-1.234858856E0,-3.865863532E0,4.063708679E0
3.952680083E0,-2.212981090E-2,-1.440486134E0,-3.799383321E0,4.063348823E0
3.962647083E0,-2.438781555E-1,-1.799612179E0,-3.778790013E0,4.192533185E0
3.972614083E0,-4.894265682E-1,-2.153506721E0,-3.591915339E0,4.216513413E0
3.982581083E0,-6.746521805E-1,-2.117133531E0,-3.304496039E0,3.982097942E0
3.992547083E0,-8.772975254E-1,-1.767262459E0,-2.891678520E0,3.500667395E0
4.002514083E0,-1.097792081E0,-1.322929618E0,-2.345254171E0,2.907835510E0
4.012481083E0,-1.266897943E0,-1.036435931E0,-1.879436321E0,2.492290256E0
4.022448083E0,-1.477204602E0,-9.047063488E-1,-1.640045173E0,2.385450729E0
4.032415083E0,-1.737177365E0,-9.053127050E-1,-1.635983697E0,2.552218436E0
4.042381083E0,-1.832556562E0,-1.052240371E0,-1.792541142E0,2.771042600E0
4.052348083E0,-1.754579117E0,-1.350455970E0,-1.928336585E0,2.936113280E0
4.062315083E0,-1.329572347E0,-1.658953314E0,-2.078867013E0,2.973478902E0
4.072282083E0,-5.003298712E-1,-1.780603466E0,-2.168622943E0,2.850228789E0
4.082248083E0,2.337762134E-1,-1.623476502E0,-2.307251947E0,2.830854786E0
4.092215083E0,9.169319996E-1,-1.088726996E0,-2.456053938E0,2.838713037E0
4.102182083E0,1.541632732E0,-3.717764962E-1,-2.629302844E0,3.070518310E0
4.112149083E0,2.131343434E0,4.940774435E-1,-2.725394817E0,3.494926933E0
4.122116083E0,2.740365443E0,1.388718980E0,-2.757928433E0,4.128475797E0
4.132082083E0,2.934961365E0,2.078207447E0,-2.579490122E0,4.425687935E0
4.142049083E0,2.780945705E0,2.573965380E0,-2.223289439E0,4.393401042E0
4.152016083E0,2.583591067E0,2.838526161E0,-1.762143806E0,4.223425666E0
4.161983083E0,2.254443696E0,2.821147066E0,-1.258884480E0,3.824418555E0
4.171949083E0,1.844690996E0,2.470711738E0,-8.597336590E-1,3.201006612E0
4.181916083E0,1.422924461E0,1.751559761E0,-4.342624739E-1,2.298099109E0
4.191883083E0,9.083387853E-1,6.402859014E-1,1.762564221E-1,1.125216295E0
4.201850083E0,4.734164532E-1,-6.757399088E-1,9.468475243E-1,1.255893227E0
4.211817083E0,1.390140438E-1,-1.937770776E0,1.622746185E0,2.531320933E0
4.221783083E0,-1.836820936E-1,-2.875057225E0,2.010117790E0,3.512871573E0
4.231750083E0,-5.906297381E-1,-2.973720803E0,2.134287215E0,3.707700206E0
4.241716667E0,-7.533339223E-1,-2.141876609E0,1.712115029E0,2.843674608E0
4.251683667E0,-6.921585980E-1,-1.084050978E0,8.869150257E-1,1.562327850E0
4.261649667E0,-5.937183836E-1,-3.465118468E-1,1.369862294E-1,7.009544964E-1
4.271616667E0,-3.429985473E-1,-3.239883721E-2,-4.028123474E-1,5.300523326E-1
4.281583667E0,-2.970751002E-2,-6.028713226E-2,-8.613641551E-1,8.639822233E-1
4.291550667E0,-2.390039165E-1,7.880818784E-2,-8.276245514E-1,8.650410398E-1
4.301517667E0,-1.839990127E-1,3.947724259E-1,-1.062030948E0,1.147872223E0
4.311483667E0,-3.380526799E-1,6.583637381E-1,-1.227433476E0,1.433288305E0
4.321450667E0,-4.783955035E-1,8.564136100E-1,-1.255345745E0,1.593172768E0
4.331417667E0,-4.689493266E-1,1.121046311E0,-1.117819233E0,1.651114212E0
4.341384667E0,-5.788700373E-1,1.258265260E0,-8.899564549E-1,1.646312387E0
4.351350667E0,-8.249067655E-1,1.314461680E0,-7.126036799E-1,1.707654732E0
4.361317667E0,-1.065826961E0,1.348800623E0,-6.247855175E-1,1.829100100E0
4.371284667E0,-1.224438240E0,1.266059014E0,-6.846507731E-1,1.889682807E0
4.381251667E0,-1.414802240E0,1.189328926E0,-1.027841401E0,2.114858534E0
4.391218667E0,-1.801906042E0,9.289582604E-1,-1.250119796E0,2.381728015E0
4.401184667E0,-2.049712796E0,8.016018105E-1,-1.202263260E0,2.507852658E0
4.411151667E0,-2.398916408E0,6.830892742E-1,-1.270388877E0,2.799160372E0
4.421118667E0,-2.525050790E0,5.624734944E-1,-1.309146269E0,2.899331281E0
4.431085667E0,-2.591902299E0,4.147658104E-1,-1.328573935E0,2.941954606E0
4.441051667E0,-2.549417015E0,2.540919256E-1,-1.344036604E0,2.893185825E0
4.451018667E0,-2.245771398E0,2.791314572E-1,-1.421787616E0,2.672617363E0
4.460985667E0,-1.919155872E0,5.157665205E-1,-1.433651032E0,2.450414178E0
4.470952667E0,-1.768719877E0,7.802466094E-1,-1.459694238E0,2.422367033E0
4.480919667E0,-1.864223912E0,8.720490646E-1,-1.657427191E0,2.642511165E0
4.490885667E0,-2.011611461E0,8.468955123E-1,-1.950375326E0,2.927076458E0
4.500852667E0,-2.194865831E0,3.710526109E-1,-2.060453692E0,3.033246689E0
4.510819667E0,-2.405197780E0,-2.896944523E-1,-1.828934358E0,3.035440680E0
4.520786667E0,-2.751501758E0,-7.587417197E-1,-1.349961880E0,3.157348254E0
4.530752667E0,-2.940911784E0,-1.132599240E0,-1.052141114E0,3.322460546E0
4.540719667E0,-2.793410507E0,-1.420896792E0,-8.953842790E-1,3.259417580E0
4.550686667E0,-2.578984630E0,-1.700808853E0,-7.472870243E-1,3.178419477E0
4.560653667E0,-2.499996348E0,-1.801728287E0,-7.446078300E-1,3.170275600E0
4.570620667E0,-2.715619442E0,-1.812604693E0,-1.452695413E-1,3.268214798E0
4.580586667E0,-2.596742039E0,-2.224042853E0,3.674358156E-1,3.438669060E0
4.590553667E0,-1.466727561E0,-3.273122803E0,5.339636403E-1,3.626256995E0
4.600520667E0,5.226016232E-1,-4.330264310E0,9.935084514E-1,4.473405916E0
4.610487667E0,3.048933538E0,-5.690755856E0,2.670059692E0,6.986409428E0
4.620454667E0,5.146656652E0,-6.865515275E0,4.725283488E0,9.795492776E0
4.630420667E0,5.935498669E0,-6.315474131E0,6.720846974E0,1.096745832E1
4.640387667E0,5.864533351E0,-4.525891680E0,7.336196254E0,1.042574805E1
4.650354667E0,5.145511183E0,-2.314784038E0,4.929090528E0,7.492025354E0
4.660321667E0,3.237518815E0,2.227338928E-1,2.139350612E0,3.886895870E0
4.670287667E0,1.099907165E0,2.129831344E0,1.183055302E0,2.673124983E0
4.680254667E0,5.980356753E-2,3.024336641E0,9.600672019E-1,3.173628462E0
4.690221667E0,-1.202740100E-1,3.641650586E0,4.337066960E-1,3.669357754E0
4.700188667E0,2.276265870E-1,4.259514754E0,-2.558013591E-1,4.273255684E0
4.710155667E0,3.347209364E-1,4.770208815E0,-4.516401064E-1,4.803218612E0
4.720121667E0,4.900452036E-1,4.293137999E0,-2.703436768E-1,4.329464618E0
4.730088667E0,8.191384873E-1,3.234539366E0,-3.234533519E-2,3.336806706E0
4.740055667E0,1.367734785E0,2.257319357E0,4.075792900E-1,2.670638500E0
4.750022667E0,2.164979835E0,1.084823395E0,8.928230524E-1,2.580913111E0
4.759988667E0,2.977669428E0,-5.262102324E-1,1.341700642E0,3.308107169E0
4.769955667E0,3.781046745E0,-1.771657226E0,1.266960362E0,4.363516057E0
4.779922667E0,3.824614057E0,-2.036745425E0,5.776101816E-1,4.371457210E0
4.789889667E0,2.765892048E0,-9.220579612E-1,-5.349980128E-1,2.964215339E0
4.799856667E0,2.240652453E0,3.719326168E-1,-1.796527773E0,2.895922880E0
4.809822667E0,2.030932708E0,1.236209562E0,-2.689918883E0,3.590064810E0
4.819789667E0,1.891573386E0,1.778049402E0,-2.577064404E0,3.657973551E0
4.829756667E0,1.919572486E0,1.970848475E0,-1.377872395E0,3.076935907E0
4.839723667E0,1.751096954E0,1.729076632E0,-9.892933398E-2,2.462891300E0
4.849689667E0,1.681039709E0,9.307533556E-1,6.244905254E-1,2.020441716E0
4.859656667E0,1.576672757E0,1.626286089E-2,9.047873327E-1,1.817911324E0
4.869623667E0,1.506236612E0,-5.859518194E-1,5.667045397E-1,1.712671102E0
4.879590667E0,1.210448777E0,-9.762984878E-1,-2.193474779E-1,1.570496194E0
4.889557667E0,7.641258359E-1,-9.148079985E-1,-8.552462134E-1,1.467040576E0
4.899523667E0,1.004884940E-1,-5.194935358E-1,-1.352511266E0,1.452328543E0
4.909490667E0,-4.349878210E-1,1.052194762E-1,-1.424240815E0,1.492899006E0
4.919457667E0,-9.251432446E-1,4.513910151E-1,-1.320321175E0,1.674183943E0
4.929424667E0,-1.037279465E0,6.235231036E-1,-1.145563394E0,1.666446891E0
4.939391667E0,-1.049027691E0,5.841081923E-1,-9.058293065E-1,1.504050601E0
4.949357667E0,-8.491659862E-1,4.922034109E-1,-6.858865821E-1,1.197408649E0
4.959324667E0,-3.620750883E-1,3.631927836E-1,-4.939762866E-1,7.120533262E-1
4.969291667E0,4.323248528E-2,2.151126319E-1,-3.465080461E-1,4.101345123E-1
4.979258667E0,4.387345706E-1,1.285323250E-1,-3.305632737E-1,5.641636819E-1
4.989224667E0,5.845854713E-1,-3.096977770E-1,-4.786299768E-1,8.165412060E-1
4.999191667E0,9.270116492E-1,-9.358258152E-1,-6.406189004E-1,1.464757021E0
5.009158667E0,1.031191856E0,-1.243813866E0,-9.230227518E-1,1.860752691E0
5.019125667E0,4.700053337E-1,-1.010817525E0,-1.319925903E0,1.727675164E0
5.029092667E0,-5.343719222E-2,-6.098698550E-1,-1.699641456E0,1.806537532E0
5.039058667E0,-6.348985693E-1,-3.101807570E-1,-2.176313201E0,2.288153719E0
5.049025667E0,-1.256675402E0,1.072964072E-3,-2.723759935E0,2.999683717E0
5.058992667E0,-1.961896095E0,1.235791487E-1,-2.951686448E0,3.546372933E0
5.068959667E0,-2.633687087E0,3.953758585E-1,-3.021203995E0,4.027443770E0
5.078926667E0,-3.133032871E0,1.333597863E-1,-2.833196424E0,4.226189984E0
5.088892667E0,-3.203390079E0,-2.792501557E-1,-2.719168117E0,4.211123828E0
5.098859667E0,-2.950963148E0,-6.004026282E-1,-2.633253223E0,4.000336155E0
5.108826667E0,-2.249831705E0,-1.302439220E0,-2.649617826E0,3.711948982E0
5.118793667E0,-1.311710273E0,-1.726863461E0,-2.410379290E0,3.242309296E0
5.128759667E0,-3.543354944E-1,-2.255215529E0,-1.987873520E0,3.027076453E0
5.138726667E0,5.907876860E-1,-2.543751647E0,-1.531097804E0,3.027203829E0
5.148693667E0,1.353749122E0,-1.404202407E0,-1.216496552E0,2.298757261E0
5.158660667E0,1.033017284E0,2.649157065E-1,-1.003380159E0,1.464266637E0
5.168627667E0,1.269583277E0,9.895354146E-1,-1.245097038E0,2.035015643E0
5.178593667E0,1.505143768E0,5.200595462E-1,-1.330840608E0,2.075344891E0
5.188560667E0,6.892165715E-1,2.833817983E-1,-8.358466136E-1,1.119805469E0
5.198527667E0,1.158155081E-1,8.301186812E-1,5.598252904E-1,1.007925896E0
5.208494667E0,-3.468666266E-1,1.517906193E0,1.667184732E0,2.281197185E0
5.218460667E0,-2.712847862E-1,1.966191752E0,2.157724317E0,2.931770740E0
5.228427667E0,7.718428449E-1,2.623036383E0,2.241788860E0,3.535771279E0
5.238394292E0,1.984336247E0,3.040594239E0,2.434527998E0,4.371467744E0
5.248361292E0,2.530610907E0,2.620747783E0,2.964381630E0,4.696793476E0
5.258328292E0,1.965135452E0,1.312706346E0,3.254941471E0,4.022387261E0
5.268294292E0,9.048260705E-1,-1.973020130E-1,3.067027747E0,3.203794235E0
5.278261292E0,-2.513354020E-1,-1.342729459E0,2.652763628E0,2.983830885E0
5.288228292E0,-1.766791904E0,-1.806965638E0,2.161281617E0,3.325329559E0
5.298195292E0,-3.238976233E0,-2.065347081E0,1.689800154E0,4.196671319E0
5.308162292E0,-3.842555946E0,-3.190765940E0,1.691158608E0,5.273162326E0
5.318128292E0,-4.226634107E0,-4.880346969E0,1.972435555E0,6.750757323E0
5.328095292E0,-4.121039824E0,-6.218803868E0,2.491203890E0,7.865277338E0
5.338062292E0,-4.319050519E0,-6.089336573E0,2.919521792E0,8.016097853E0
5.348029292E0,-4.511679145E0,-4.049144214E0,3.043441833E0,6.783314512E0
5.357995292E0,-4.073765085E0,-1.635376756E0,2.678079733E0,5.142191183E0
5.367962292E0,-2.817375320E0,4.057570052E-1,1.832061303E0,3.385068841E0
5.377929292E0,-1.989937002E0,1.545855299E0,9.308768781E-1,2.686270582E0
5.387896292E0,-1.246304780E0,1.694385102E0,4.337115200E-1,2.147631756E0
5.397863292E0,-6.397087812E-1,1.511347371E0,7.051098883E-2,1.642671605E0
5.407829292E0,-9.221621878E-2,1.379348232E0,-2.275486363E-1,1.401029535E0
5.417796292E0,5.032949577E-1,1.205935019E0,-4.525553419E-1,1.382892411E0
5.427763292E0,7.185538065E-1,9.323782969E-1,-5.767237437E-1,1.310823839E0
5.437730292E0,7.171984220E-1,7.467046416E-1,-4.413281031E-1,1.125482960E0
5.447697292E0,6.312563387E-1,8.777202791E-1,-2.638440581E-1,1.112875168E0
5.457663292E0,5.143754679E-1,9.120346642E-1,4.428666517E-2,1.048022261E0
5.467630292E0,-1.072168851E-1,7.952026176E-1,9.000969887E-1,1.205826377E0
5.477597292E0,-1.537224224E-1,8.360196912E-1,8.843317258E-1,1.226622235E0
5.487564292E0,-2.999381711E-1,9.469688541E-1,5.811344446E-1,1.150838894E0
5.497530292E0,-4.596122003E-1,1.285868211E0,-2.059813276E-2,1.365695688E0
5.507497292E0,-8.365938878E-1,1.332852927E0,-6.178904808E-1,1.690613766E0
5.517464292E0,-9.652662537E-1,1.304519659E0,-1.136030386E0,1.980927944E0
5.527431292E0,-1.194254328E0,1.270196503E0,-1.425856985E0,2.252267902E0
5.537398292E0,-1.591154264E0,9.937524265E-1,-1.612002657E0,2.473432502E0
5.547364292E0,-2.051456435E0,8.262981105E-1,-1.781528496E0,2.839909480E0
5.557331292E0,-2.474289941E0,6.635011017E-1,-1.983261090E0,3.239701989E0
5.567298292E0,-2.869598557E0,3.244608271E-1,-2.029526014E0,3.529709131E0
5.577265292E0,-3.212577224E0,-5.052111268E-2,-1.899818838E0,3.732628620E0
5.587231292E0,-3.614564529E0,-4.220099258E-1,-1.479976328E0,3.928549229E0
5.597198292E0,-3.745363527E0,-1.097492557E0,-6.726825459E-1,3.960396403E0
5.607165292E0,-3.506202174E0,-1.647453595E0,-8.538952142E-2,3.874899793E0
5.617132292E0,-2.829061273E0,-1.588228317E0,-2.290961020E-1,3.252467048E0
5.627099292E0,-1.923391010E0,-1.322475874E0,-8.729477817E-1,2.492070072E0
5.637065292E0,-1.293028419E0,-9.408672845E-1,-1.284328054E0,2.051012503E0
5.647032292E0,-1.054507044E0,-8.363500589E-1,-1.348678417E0,1.905360858E0
5.656999292E0,-1.034745501E0,-1.018064564E0,-1.182286540E0,1.872152550E0
5.666966292E0,-9.615836772E-1,-1.333656920E0,-1.309476490E0,2.101906902E0
5.676933292E0,-3.183569187E-1,-1.526094634E0,-1.538973857E0,2.190606421E0
5.686899292E0,4.105350575E-1,-1.707841299E0,-6.195224386E-1,1.862543688E0
5.696866292E0,1.450388394E0,-2.568707564E0,1.726528416E0,3.418008984E0
5.706833292E0,2.722344032E0,-5.038763244E0,5.455016001E0,7.909329405E0
5.716800292E0,4.356127422E0,-9.743332386E0,8.517789314E0,1.365507623E1
5.726766292E0,7.684551728E0,-1.318415450E1,9.760695693E0,1.811478528E1
5.736733292E0,9.152467151E0,-8.054738367E0,8.292675605E0,1.474499691E1
5.746700292E0,6.273567136E0,-6.727923274E-2,5.402649508E0,8.279540616E0
5.756667292E0,3.846004926E0,4.192649505E0,2.193492759E0,6.097661375E0
5.766634292E0,2.759808020E0,5.297387347E0,-3.431385881E-1,5.983025748E0
5.776600292E0,2.409261302E0,6.429912912E0,-2.024190576E0,7.158607935E0
5.786567292E0,2.246742621E0,7.495739288E0,-2.724047034E0,8.285794598E0
5.796534292E0,2.464518075E0,7.306701145E0,-2.237684699E0,8.029256738E0
5.806501292E0,2.559909258E0,5.969215468E0,-1.448350639E0,6.654501356E0
5.816467292E0,2.461440977E0,4.663587177E0,-8.222483289E-1,5.337024392E0
5.826434292E0,2.085769651E0,3.280123090E0,-3.071179855E-1,3.899226074E0
5.836401292E0,1.956521042E0,1.335162578E0,5.679812792E-1,2.435823563E0
5.846368292E0,2.144520427E0,-1.075097136E0,1.625124832E0,2.897556287E0
5.856335292E0,2.361275250E0,-2.764989238E0,1.997237836E0,4.148463000E0
5.866301292E0,2.588917003E0,-2.640275145E0,1.808881478E0,4.116502920E0
5.876268292E0,2.397844321E0,-1.796096249E0,1.051594546E0,3.175133101E0
5.886235292E0,1.664939401E0,-9.070376337E-1,1.535028595E-1,1.902183904E0
5.896202292E0,1.544339116E0,3.501780510E-2,-7.852103108E-1,1.732848748E0
5.906168292E0,1.678477167E0,8.311314189E-1,-1.078872391E0,2.161488069E0
5.916135292E0,1.478952627E0,1.745961052E0,-1.112386000E0,2.544225517E0
5.926102292E0,1.577897749E0,2.109461984E0,-8.058694008E-1,2.754816992E0
5.936069292E0,1.492601490E0,1.952337359E0,-3.868319070E-1,2.487794062E0
5.946036292E0,1.159858667E0,1.363057305E0,-2.045461285E-1,1.801398474E0
5.956002292E0,9.613951045E-1,5.472736573E-1,-3.643885392E-1,1.164717996E0
5.965969292E0,4.628085807E-1,-2.590082645E-1,-6.985653922E-1,8.770807663E-1
5.975936292E0,-1.820910662E-1,-7.377882224E-1,-1.065564128E0,1.308783989E0
5.985903292E0,-7.897246537E-1,-7.862616402E-1,-1.344257922E0,1.746110465E0
5.995870292E0,-1.276089327E0,-6.733519059E-1,-1.423641475E0,2.026958759E0
6.005836292E0,-1.291841726E0,-3.839492297E-1,-1.294406315E0,1.868625100E0
6.015803292E0,-1.098927172E0,-1.899163949E-1,-9.330057031E-1,1.454031914E0
6.025770292E0,-8.543904734E-1,-2.021247965E-1,-6.899050811E-1,1.116604915E0
6.035737292E0,-4.040823992E-1,-9.961199641E-2,-8.458041295E-1,9.426503916E-1
6.045703292E0,-3.215515815E-1,6.340720654E-2,-1.330472818E0,1.370245895E0
6.055670292E0,9.873571806E-3,1.645692998E-1,-1.797532032E0,1.805076716E0
6.065637292E0,3.064937952E-1,1.265220523E-1,-1.953125564E0,1.981071868E0
6.075604292E0,4.176233447E-1,1.391637325E-4,-1.823857659E0,1.871060137E0
6.085571292E0,6.035174034E-1,-3.788703382E-2,-1.498791938E0,1.616182525E0
6.095537292E0,4.172763124E-1,-1.037635195E-1,-1.135019403E0,1.213736146E0
6.105504292E0,1.713292658E-2,-1.458430070E-1,-1.124913075E0,1.134457203E0
6.115471292E0,-4.522716788E-1,-1.848375034E-1,-1.485357960E0,1.563650486E0
6.125438292E0,-8.104531062E-1,-3.748796135E-1,-1.864599011E0,2.067389280E0
6.135405292E0,-1.090202614E0,-5.835632318E-1,-2.135649616E0,2.467810177E0
6.145371292E0,-1.483039831E0,-6.494771397E-1,-2.532327358E0,3.005646277E0
6.155338292E0,-1.725037376E0,-7.793046230E-1,-2.879540870E0,3.445986835E0
6.165305292E0,-1.879568176E0,-8.699171698E-1,-2.797516421E0,3.480751433E0
6.175272292E0,-2.254854755E0,-9.754178971E-1,-2.802441823E0,3.726860638E0
6.185238292E0,-2.434978526E0,-1.112946163E0,-2.776091931E0,3.856741629E0
6.195205292E0,-2.271707600E0,-1.199849237E0,-2.663632432E0,3.700706871E0
6.205172292E0,-1.915826468E0,-1.246638072E0,-2.580902517E0,3.447543377E0
6.215139292E0,-1.379468685E0,-9.932396257E-1,-2.534868557E0,3.052051345E0
6.225106292E0,-7.602173377E-1,-4.266064221E-1,-2.372641360E0,2.527716452E0
6.235072292E0,-6.215628976E-1,4.594356143E-1,-2.058268149E0,2.198610764E0
6.245039292E0,-4.225470657E-1,8.891410607E-1,-1.984395011E0,2.215161712E0
6.255006292E0,4.562064895E-1,4.295393854E-1,-1.844573175E0,1.948096158E0
6.264973292E0,7.497933602E-1,3.086131185E-1,-1.390116172E0,1.609302679E0
6.274940292E0,1.060775551E-1,6.747277558E-1,-2.389312649E-1,7.236008164E-1
6.284906292E0,-2.101732696E-1,7.609414423E-1,8.976853046E-1,1.195426111E0
6.294873292E0,8.106112003E-2,9.268474156E-1,1.487197786E0,1.754244650E0
6.304840292E0,5.477150490E-1,1.417638139E0,2.126046149E0,2.613381315E0
6.314807292E0,1.333500507E0,2.069378151E0,2.726893751E0,3.673758166E0
6.324773292E0,2.070369839E0,2.704285784E0,3.075008612E0,4.588602274E0
6.334740292E0,2.306969234E0,2.932850520E0,3.235844464E0,4.939069611E0
6.344707292E0,2.206346839E0,2.522870656E0,3.426737344E0,4.793263142E0
6.354674292E0,1.749638658E0,1.640843902E0,3.519308124E0,4.259006200E0
6.364641292E0,1.124015747E0,4.364654124E-1,3.366463076E0,3.575889693E0
6.374607292E0,3.912394651E-1,-1.032487891E0,2.911699387E0,3.114015556E0
6.384574292E0,-7.065068612E-1,-1.889986160E0,2.172551541E0,2.964992382E0
6.394541292E0,-1.516309319E0,-2.740435025E0,1.924001606E0,3.675725813E0
6.404508292E0,-2.013886028E0,-4.589968978E0,2.129144150E0,5.445806365E0
6.414475292E0,-2.376406382E0,-6.079064770E0,2.279475626E0,6.913634710E0
6.424441292E0,-2.803304288E0,-6.650945849E0,2.857530196E0,7.762671862E0
6.434408292E0,-3.920534706E0,-5.085171425E0,3.390464727E0,7.261185294E0
6.444375292E0,-4.732348679E0,-2.221167192E0,3.328532773E0,6.197405758E0
6.454342292E0,-4.421118346E0,-2.072013491E-1,2.845325303E0,5.261662847E0
6.464308292E0,-3.706201800E0,1.242104141E0,1.887699752E0,4.340756252E0
6.474275292E0,-3.061842144E0,1.701855505E0,1.013959673E0,3.646821039E0
6.484242292E0,-2.152611220E0,1.265036336E0,3.613964459E-1,2.522827656E0
6.494209292E0,-1.053889285E0,9.441171670E-1,-3.187728019E-1,1.450398549E0
6.504176292E0,-9.726788420E-2,6.862339067E-1,-8.152014108E-1,1.070014652E0
6.514142292E0,7.439298454E-1,4.379389107E-1,-1.146168289E0,1.434895066E0
6.524109292E0,1.133662848E0,2.299429250E-1,-1.367613309E0,1.791209470E0
6.534076292E0,1.211025312E0,1.668538070E-1,-1.270101194E0,1.762832817E0
6.544043292E0,1.237028173E0,3.190685248E-1,-8.308005396E-1,1.523900574E0
6.554009292E0,1.159341773E0,4.963917714E-1,-2.058920114E-1,1.277837884E0
6.563976292E0,8.719429377E-1,6.120789331E-1,2.119223180E-1,1.086202640E0
6.573943292E0,3.393066153E-1,7.947482890E-1,3.344571539E-1,9.266150278E-1
6.583910292E0,-4.923324516E-2,1.095132036E0,3.743660818E-1,1.158398918E0
6.593877292E0,-2.655162156E-2,1.379731225E0,2.726825631E-1,1.406669478E0
6.603843292E0,1.581204057E-2,1.438472353E0,-5.272434354E-3,1.438568917E0
6.613810292E0,-8.093947968E-2,1.431242856E0,-2.343272404E-1,1.452555186E0
6.623777292E0,-3.414174601E-1,1.462466403E0,-4.610284690E-1,1.570961842E0
6.633744292E0,-7.133667415E-1,1.472722419E0,-7.141923684E-1,1.785461893E0
6.643711292E0,-1.042218535E0,1.268361647E0,-9.377998352E-1,1.890616110E0
6.653677292E0,-1.313923736E0,1.089255000E0,-1.269463993E0,2.127066259E0
6.663644292E0,-1.471190448E0,8.192668337E-1,-1.611545405E0,2.330810604E0
6.673611292E0,-1.555510806E0,4.472231197E-1,-1.771035229E0,2.399205737E0
6.683578292E0,-1.721285217E0,8.244574070E-4,-1.705744049E0,2.423300691E0
6.693544292E0,-1.836237384E0,-6.160988939E-1,-1.393833539E0,2.386235008E0
6.703511292E0,-1.853986022E0,-1.353438635E0,-7.993447852E-1,2.430640326E0
6.713478292E0,-1.752401468E0,-1.950218328E0,-1.526618837E-1,2.626322159E0
6.723445292E0,-1.525231293E0,-2.260354062E0,4.166747801E-1,2.758468570E0
6.733412292E0,-1.220153985E0,-2.249637870E0,7.591334832E-1,2.669443751E0
6.743378292E0,-1.122505776E0,-1.932650369E0,7.198324464E-1,2.348045020E0
6.753345292E0,-1.329732268E0,-1.320339301E0,1.699553163E-1,1.881586720E0
6.763312292E0,-1.797645468E0,-7.491692430E-1,-7.224283178E-1,2.077182337E0
6.773279292E0,-2.136949452E0,-6.579456621E-1,-1.200531753E0,2.537857747E0
6.783246292E0,-2.168538743E0,-1.811902442E0,-8.412590888E-1,2.948434770E0
6.793212292E0,-1.362521407E0,-3.577167492E0,-7.441109629E-1,3.899524712E0
6.803179292E0,4.311617320E-1,-4.754834731E0,3.371672653E-1,4.786233961E0
6.813146292E0,2.814606371E0,-3.998477506E0,2.450717769E0,5.469538278E0
6.823113292E0,4.028064417E0,-3.247102693E0,4.678023952E0,6.975162145E0
6.833079292E0,4.746639858E0,-2.973791555E0,5.381420606E0,7.767477963E0
6.843046292E0,5.526130423E0,-1.642315646E0,4.366733394E0,7.232128225E0
6.853013292E0,5.069900252E0,6.372061729E-1,2.452507017E0,5.667866525E0
6.862980292E0,3.550914078E0,2.468979793E0,1.013272333E0,4.442023506E0
6.872947292E0,2.423102246E0,3.738797396E0,8.553614035E-2,4.456158312E0
6.882913292E0,1.869940443E0,4.719024628E0,-5.574118522E-1,5.106523149E0
6.892880292E0,1.832360972E0,4.752921522E0,-7.355845530E-1,5.146736283E0
6.902847292E0,1.972375767E0,4.174572837E0,-3.017946804E-1,4.626921716E0
6.912814292E0,1.967202151E0,2.983208495E0,3.241384993E-1,3.588102980E0
6.922781292E0,2.362995793E0,1.567143842E0,8.481222582E-1,2.959560830E0
6.932747292E0,2.791606056E0,1.032039410E-1,1.272480426E0,3.069677810E0
6.942714292E0,3.205679556E0,-1.186910518E0,1.657873625E0,3.799168718E0
6.952681292E0,3.363852879E0,-1.770757924E0,1.824507869E0,4.216624098E0
6.962648292E0,3.031869316E0,-1.423348530E0,1.708947008E0,3.760139953E0
6.972614292E0,2.575961620E0,-5.801753551E-1,1.187747108E0,2.895328116E0
6.982581292E0,1.808253487E0,5.018665195E-2,4.677094245E-1,1.868435570E0
6.992548292E0,1.481094170E0,4.936675537E-1,-3.318056609E-1,1.596070985E0
7.002515292E0,1.375487316E0,8.744049078E-1,-5.934492655E-1,1.734569494E0
7.012482292E0,1.523759841E0,9.758383119E-1,-4.598601222E-1,1.866969682E0
7.022448292E0,1.536005080E0,1.048702220E0,-3.468042076E-1,1.891919953E0
7.032415292E0,1.516279498E0,8.679536748E-1,-1.933703452E-1,1.757793841E0
7.042382292E0,1.540880488E0,5.368615204E-1,-1.959051132E-1,1.643445096E0
7.052349292E0,1.450834537E0,2.658343041E-1,-2.559520711E-1,1.497030458E0
7.062316292E0,1.110410226E0,4.914584756E-3,-3.818531491E-1,1.174243097E0
7.072282292E0,6.050439287E-1,-9.363321841E-2,-5.895272456E-1,8.499339436E-1
7.082249292E0,9.879868526E-2,-9.575049520E-2,-6.587189564E-1,6.729338757E-1
7.092216292E0,-1.935895610E-1,-3.769173682E-2,-8.020758735E-1,8.259680938E-1
7.102183292E0,-4.209182507E-1,7.192016780E-2,-7.720453048E-1,8.822690275E-1
7.112149292E0,-4.658505946E-1,1.662375104E-1,-7.839630997E-1,9.269572957E-1
7.122116292E0,-4.333222416E-1,2.824123299E-1,-8.313407493E-1,9.791079259E-1
7.132083292E0,-3.464177066E-1,4.825239301E-1,-8.936241210E-1,1.073032451E0
7.142050292E0,-2.796308094E-1,6.419447565E-1,-1.046134708E0,1.258842439E0
7.152017292E0,-7.478354931E-2,8.300800896E-1,-1.240549366E0,1.494519409E0
7.161983292E0,2.106079141E-2,7.853143913E-1,-1.319886434E0,1.535989079E0
7.171950292E0,1.093762618E-1,5.326807612E-1,-1.384632069E0,1.487587955E0
7.181917292E0,2.497398430E-1,3.248917669E-1,-1.374592399E0,1.434374049E0
7.191884292E0,2.812788472E-1,1.553956032E-1,-1.328873312E0,1.367175872E0
7.201851292E0,3.151476744E-1,7.100858688E-3,-1.377212244E0,1.412827677E0
7.211817292E0,1.482330564E-1,-2.672002137E-1,-1.522009769E0,1.552379699E0
7.221784292E0,1.175070893E-1,-6.046798664E-1,-1.799335314E0,1.901855207E0
7.231751292E0,9.339812379E-2,-8.844194341E-1,-2.020819072E0,2.207856577E0
7.241718667E0,1.660371702E-2,-1.103267852E0,-2.170837575E0,2.435161476E0
7.251684667E0,3.546069514E-2,-1.313378191E0,-2.203560933E0,2.565521491E0
7.261651667E0,1.366376623E-1,-1.437352611E0,-2.079113181E0,2.531277148E0
7.271618667E0,2.307697213E-1,-1.421822991E0,-2.052414794E0,2.507437291E0
7.281585667E0,1.989760343E-1,-1.296328295E0,-2.130250297E0,2.501604453E0
7.291552667E0,1.383804980E-1,-1.100676366E0,-2.407264770E0,2.650577541E0
7.301518667E0,5.224743001E-3,-9.949207002E-1,-2.712221917E0,2.888951752E0
7.311485667E0,-2.145028039E-1,-7.649456155E-1,-2.992980655E0,3.096625009E0
7.321452667E0,-5.681353533E-1,-4.974951410E-1,-3.329181229E0,3.413755535E0
7.331419667E0,-9.147296458E-1,-2.411912137E-1,-3.628584983E0,3.749870998E0
7.341386667E0,-1.039895217E0,1.720566595E-1,-3.602845832E0,3.753862497E0
7.351352667E0,-1.092651355E0,5.082347220E-1,-3.322832614E0,3.534601265E0
7.361319667E0,-9.072127578E-1,4.502338511E-1,-2.562432332E0,2.755323024E0
7.371286667E0,-6.393170909E-1,-1.937597698E-1,-1.424847464E0,1.573677059E0
7.381253667E0,-5.084604245E-1,-6.731794131E-1,-6.300842643E-2,8.459743420E-1
7.391220667E0,-4.675519151E-1,-9.944710493E-1,1.191857555E0,1.621142157E0
7.401186667E0,-2.014848188E-1,-1.250386137E0,1.987117767E0,2.356416484E0
7.411153667E0,2.573893898E-1,-1.212977405E0,2.232329819E0,2.553597444E0
7.421120667E0,4.405213335E-1,-7.684013200E-1,2.395413634E0,2.553919754E0
7.431087667E0,4.472351796E-1,-7.566823304E-2,2.764455679E0,2.801421102E0
7.441053667E0,5.966998058E-1,8.566118306E-1,2.949917958E0,3.129193258E0
7.451020667E0,8.107372078E-1,2.198187050E0,2.890779219E0,3.721011370E0
7.460987667E0,9.242947405E-1,3.554098472E0,2.811682763E0,4.625094234E0
7.470954667E0,1.034742212E0,4.516444334E0,2.578023055E0,5.302373406E0
7.480921667E0,1.190734524E0,4.841734296E0,2.040821812E0,5.387503445E0
7.490887667E0,1.107622858E0,4.435842805E0,1.410392854E0,4.784635596E0
7.500854667E0,7.040340737E-1,3.320178856E0,7.862898530E-1,3.483891982E0
7.510821667E0,1.549275336E-1,2.020549808E0,1.238948983E-1,2.030264518E0
7.520788667E0,-6.619530514E-1,8.643009192E-1,-2.294975133E-1,1.112594728E0
7.530755667E0,-1.122685871E0,-8.708234882E-1,3.037991059E-1,1.452945632E0
7.540721667E0,-1.424766187E0,-3.098645396E0,1.140809315E0,3.596249140E0
7.550688667E0,-1.672425883E0,-5.139272788E0,2.097570502E0,5.797321376E0
7.560655667E0,-1.887803687E0,-6.772441050E0,3.472130449E0,7.841265867E0
7.570622667E0,-2.197937081E0,-7.196710925E0,4.961698111E0,9.013435732E0
7.580588667E0,-2.499405195E0,-5.074933535E0,5.781914533E0,8.089036555E0
7.590555667E0,-2.528578708E0,-2.180710891E0,4.994773471E0,6.008075591E0
7.600522667E0,-2.609782500E0,-8.509137189E-1,3.292288806E0,4.286511920E0
7.610489667E0,-2.294775451E0,-2.324315000E-1,1.570574988E0,2.790470313E0
7.620456667E0,-2.075166018E0,3.611988831E-1,2.084193242E-1,2.116652368E0
7.630422667E0,-1.773656974E0,7.848764348E-1,-6.054196123E-1,2.031852107E0
7.640389667E0,-1.341267363E0,6.634894073E-1,-7.486634588E-1,1.673234385E0
7.650356667E0,-9.266070950E-1,2.817463320E-1,-5.239965496E-1,1.101160337E0
7.660323667E0,-6.060943079E-1,-1.258133698E-1,-1.342685167E-1,6.334093058E-1
7.670290667E0,-3.344765228E-1,-3.812068856E-1,4.162229365E-1,6.560752753E-1
7.680256667E0,-2.364190087E-1,-3.762390912E-1,9.220439279E-1,1.023530560E0
7.690223667E0,-2.240436691E-1,-1.613966006E-1,1.272155321E0,1.301777089E0
7.700190667E0,-1.578575916E-1,2.173047531E-1,1.398366301E0,1.423927206E0
7.710157667E0,-4.333928833E-2,5.286613852E-1,1.270840867E0,1.377097550E0
7.720123667E0,-4.513231874E-2,7.496744424E-1,9.282770598E-1,1.194046480E0
7.730090667E0,-1.338132378E-1,1.025147297E0,5.836328137E-1,1.187206900E0
7.740057667E0,-2.915918738E-1,1.404751461E0,2.317859674E-1,1.453298738E0
7.750024667E0,-5.151616260E-1,1.736646438E0,-3.523882985E-2,1.811787550E0
7.759991667E0,-6.697438815E-1,1.780057336E0,1.421458125E-3,1.901884068E0
7.769957667E0,-8.598620054E-1,1.741831748E0,1.172600627E-2,1.942544210E0
7.779924667E0,-1.005832482E0,1.325214125E0,5.569005132E-2,1.664629941E0
7.789891667E0,-9.786768427E-1,7.965357828E-1,-3.007456899E-2,1.262213174E0
7.799858667E0,-8.809821483E-1,3.046580619E-1,-1.845358602E-1,9.502628921E-1
7.809825667E0,-8.228608248E-1,-9.053185523E-2,-3.951216508E-1,9.172878898E-1
7.819791667E0,-9.132444531E-1,-1.353466702E-1,-4.565600999E-1,1.029942366E0
7.829758667E0,-1.173910696E0,9.180362463E-2,-5.885896446E-1,1.316408750E0
7.839725667E0,-1.718541996E0,8.238376021E-2,-9.332871003E-1,1.957344755E0
7.849692667E0,-2.227658771E0,-1.962693948E-1,-1.226916875E0,2.550747007E0
7.859659667E0,-2.526984757E0,-4.327419055E-1,-1.216772833E0,2.837860751E0
7.869625667E0,-2.597490483E0,-7.102262020E-1,-7.868253118E-1,2.805436176E0
7.879592667E0,-2.576929334E0,-1.170403828E0,-2.409665345E-1,2.840506079E0
7.889559667E0,-2.606285865E0,-1.524433440E0,8.214738652E-2,3.020491933E0
7.899526667E0,-2.797465843E0,-1.604149700E0,7.069517612E-2,3.225540143E0
7.909492667E0,-3.135912333E0,-1.571445639E0,9.575985074E-2,3.508925406E0
7.919459667E0,-3.045888308E0,-1.713677405E0,-1.925745392E-1,3.500172966E0
7.929426667E0,-2.442797130E0,-2.074002129E0,-5.488092823E-1,3.251143534E0
7.939393667E0,-1.998701979E0,-2.505846487E0,-3.620151544E-1,3.225698558E0
7.949360667E0,-1.491878774E0,-2.942576194E0,5.913825671E-1,3.351744363E0
7.959326667E0,-4.698369339E-1,-3.508476741E0,1.689468763E0,3.922302957E0
7.969293667E0,1.013841413E0,-3.759407662E0,2.372138207E0,4.559392509E0
7.979260667E0,2.191950702E0,-3.676360828E0,2.713454218E0,5.067850689E0
7.989227667E0,2.562096409E0,-3.127599639E0,2.427795514E0,4.715973767E0
7.999194667E0,2.197275469E0,-1.953530191E0,1.404286022E0,3.258269314E0
8.009160667E0,1.550848237E0,-4.628924882E-1,1.423797011E-1,1.624706647E0
8.019127667E0,9.379474774E-1,1.013238273E0,-1.090926865E0,1.759692783E0
8.029094667E0,3.910571051E-1,2.117729947E0,-2.122148834E0,3.023445297E0
8.039061667E0,-4.528842112E-2,2.698160241E0,-2.734272937E0,3.841662169E0
8.049027667E0,-1.094940650E-1,2.802957548E0,-2.562597224E0,3.799403176E0
8.058994667E0,-1.128567987E-1,2.517444440E0,-2.016434683E0,3.227424979E0
8.068961667E0,-6.377411932E-2,2.008869410E0,-1.449579139E0,2.478084568E0
8.078928667E0,8.142803282E-2,1.408325863E0,-1.031741202E0,1.747713412E0
8.088895667E0,1.716748363E-1,8.220992249E-1,-8.002511036E-1,1.160052246E0
8.098861667E0,3.040040142E-1,2.122837490E-1,-7.605037782E-1,8.460784995E-1
8.108828667E0,5.138714014E-1,-3.358114421E-1,-1.003435708E0,1.176314738E0
8.118795667E0,7.263610089E-1,-6.291615736E-1,-1.327064476E0,1.638458033E0
8.128762667E0,8.605686414E-1,-6.269981039E-1,-1.606338898E0,1.927181793E0
8.138729667E0,9.264094591E-1,-3.462867290E-1,-1.814391163E0,2.066437581E0
8.148695667E0,9.115244946E-1,4.243441343E-2,-1.979570181E0,2.179765053E0
8.158662667E0,9.444405180E-1,4.131133872E-1,-2.188015379E0,2.418685979E0
8.168629667E0,1.039777907E0,7.209938496E-1,-2.450272357E0,2.757681064E0
8.178596667E0,1.220316830E0,8.486145937E-1,-2.636541697E0,3.026660208E0
8.188562667E0,1.367460550E0,8.235008025E-1,-2.848241894E0,3.265054948E0
8.198529667E0,1.439180743E0,7.680306065E-1,-3.038656764E0,3.448847221E0
8.208496667E0,1.500204625E0,8.122770721E-1,-3.185125131E0,3.613229865E0
8.218463667E0,1.497709618E0,9.179643255E-1,-3.272855878E0,3.714482225E0
8.228430667E0,1.348603865E0,1.023305424E0,-3.239559785E0,3.655220099E0
8.238396458E0,1.256703176E0,9.510484564E-1,-3.083533852E0,3.462943409E0
8.248363458E0,1.358271359E0,6.895621419E-1,-2.917546018E0,3.291272064E0
8.258330458E0,1.452014212E0,1.880458707E-1,-2.734067992E0,3.101424561E0
8.268297458E0,1.633587508E0,-3.821886331E-1,-2.577320220E0,3.075265162E0
8.278264458E0,1.948724072E0,-9.137478983E-1,-2.474652761E0,3.279690080E0
8.288230458E0,2.197629810E0,-1.162859750E0,-2.441860699E0,3.484896448E0
8.298197458E0,2.211085130E0,-1.081717939E0,-2.454014429E0,3.475801774E0
8.308164458E0,2.085020623E0,-7.816043329E-1,-2.474382327E0,3.328781193E0
8.318131458E0,1.825137907E0,-3.968095958E-1,-2.494876818E0,3.116568076E0
8.328097458E0,1.571804658E0,-6.856795907E-2,-2.556134296E0,3.001515282E0
8.338064458E0,1.385443516E0,7.505602956E-2,-2.568145062E0,2.918982049E0
8.348031458E0,1.368201246E0,6.361770630E-4,-2.610099711E0,2.946963786E0
8.357998458E0,1.488306126E0,-1.151316762E-1,-2.664783164E0,3.054403336E0
8.367965458E0,1.662568647E0,-3.000030935E-1,-2.666986395E0,3.157048114E0
8.377931458E0,1.894159902E0,-5.395757979E-1,-2.649650863E0,3.301459294E0
8.387898458E0,2.144490460E0,-8.479024029E-1,-2.705533872E0,3.554953073E0
8.397865458E0,2.432418907E0,-1.110425429E0,-2.734392512E0,3.824474969E0
8.407832458E0,2.674391309E0,-1.147901988E0,-2.746008006E0,4.001325758E0
8.417799458E0,2.706012759E0,-1.035716724E0,-2.715857131E0,3.971283689E0
8.427765458E0,2.609222044E0,-7.390459585E-1,-2.498000109E0,3.687035821E0
8.437732458E0,2.497261021E0,-4.200967169E-1,-2.306896144E0,3.425574941E0
8.447699458E0,2.344864162E0,-1.778629446E-1,-2.280462929E0,3.275749431E0
8.457666458E0,2.152880776E0,1.070566714E-2,-2.361350094E0,3.195463114E0
8.467633458E0,1.805611130E0,1.227564454E-1,-2.574663830E0,3.147093030E0
8.477599458E0,1.394644548E0,1.950905961E-1,-2.813405645E0,3.146163550E0
8.487566458E0,9.889343939E-1,1.671099150E-1,-2.917801833E0,3.085366185E0
8.497533458E0,6.759517242E-1,-7.923854291E-2,-2.834237520E0,2.914805620E0
8.507500458E0,5.157128723E-1,-4.640525758E-1,-2.658758486E0,2.747781149E0
8.517466458E0,6.189584016E-1,-8.230306864E-1,-2.470434287E0,2.676478018E0
8.527433458E0,9.003057343E-1,-1.051814108E0,-2.385927403E0,2.758534558E0
8.537400458E0,1.221405216E0,-1.177584794E0,-2.388236761E0,2.929541172E0
8.547367458E0,1.402299284E0,-1.317768865E0,-2.446072741E0,3.112270862E0
8.557334458E0,1.503438135E0,-1.431846873E0,-2.474559206E0,3.230163302E0
8.567300458E0,1.680955363E0,-1.414795808E0,-2.467781113E0,3.304118904E0
8.577267458E0,1.826178711E0,-1.302103590E0,-2.432306933E0,3.308552472E0
8.587234458E0,1.872262957E0,-1.111538154E0,-2.377895375E0,3.224169981E0
8.597201458E0,2.139606135E0,-9.940471262E-1,-2.125502358E0,3.175500650E0
8.607168458E0,2.508764248E0,-8.303525698E-1,-1.770057720E0,3.180642667E0
8.617134458E0,2.705152341E0,-5.941279811E-1,-1.510845096E0,3.154915236E0
8.627101458E0,2.592379139E0,-3.788674146E-1,-1.300399419E0,2.924894659E0
8.637068458E0,2.441131843E0,-2.975706518E-1,-1.229291722E0,2.749332847E0
8.647035458E0,2.484338382E0,-2.907218081E-1,-1.295821049E0,2.817021220E0
8.657002458E0,2.507102469E0,-2.194132590E-1,-1.357399539E0,2.859412261E0
8.666968458E0,2.384623328E0,-8.587571740E-2,-1.311509129E0,2.722840291E0
8.676935458E0,2.087374419E0,6.544671535E-2,-1.182950199E0,2.400163830E0
8.686902458E0,1.684149697E0,2.815451878E-1,-1.022489153E0,1.990254245E0
8.696869458E0,1.188396880E0,4.506659603E-1,-9.666856652E-1,1.596830651E0
8.706836458E0,6.861768233E-1,3.842889529E-1,-1.087837927E0,1.342351663E0
8.716802458E0,3.616322348E-1,5.313949585E-3,-1.278350153E0,1.328527465E0
8.726769458E0,5.390643127E-2,-4.937804049E-1,-1.554632262E0,1.632055901E0
8.736736458E0,-3.516218747E-1,-7.239823616E-1,-1.722456415E0,1.901221845E0
8.746703458E0,-8.429256915E-1,-7.663027543E-1,-1.654558254E0,2.008807270E0
8.756669458E0,-9.622146649E-1,-8.098855609E-1,-1.463185318E0,1.929425551E0
8.766636458E0,-7.713673932E-1,-8.388924283E-1,-1.448978923E0,1.843444623E0
8.776603458E0,-6.996634993E-1,-8.651651376E-1,-1.582731349E0,1.934703660E0
8.786570458E0,-6.348172930E-1,-8.862741709E-1,-1.593866495E0,1.931032186E0
8.796537458E0,-5.546914351E-1,-8.148697275E-1,-1.575712644E0,1.858646173E0
8.806503458E0,-4.851173164E-1,-5.382128119E-1,-1.565959781E0,1.725468596E0
8.816470458E0,-1.863408226E-1,-2.180760008E-1,-1.521549886E0,1.548352059E0
8.826437458E0,4.248750615E-1,-1.142727202E-1,-1.565754251E0,1.626395846E0
8.836404458E0,1.007895087E0,-2.218603188E-1,-1.773928869E0,2.052290949E0
8.846371458E0,1.425967498E0,-3.397939807E-1,-2.038920297E0,2.511182835E0
8.856337458E0,1.580130800E0,-3.881937236E-1,-2.071626113E0,2.634225212E0
8.866304458E0,1.463766093E0,-3.753731185E-1,-1.947741155E0,2.465200146E0
8.876271458E0,1.186687154E0,-3.345080978E-1,-1.798993544E0,2.180940128E0
8.886238458E0,7.410579854E-1,-2.896225315E-1,-1.632636750E0,1.816191319E0
8.896205458E0,3.014820005E-1,-3.242322010E-1,-1.526695143E0,1.589596168E0
8.906171458E0,-1.563232639E-1,-4.371705866E-1,-1.553741147E0,1.621624690E0
8.916138458E0,-5.466626233E-1,-5.720336920E-1,-1.614998624E0,1.798411278E0
8.926105458E0,-9.063638882E-1,-8.829085135E-1,-1.537257553E0,1.991025798E0
8.936072458E0,-1.210113878E0,-1.502219868E0,-1.341778117E0,2.349767785E0
8.946038458E0,-1.065700953E0,-2.426509126E0,-1.026801474E0,2.842179855E0
8.956005458E0,-8.957373047E-1,-3.289682702E0,-5.469812965E-1,3.453048818E0
8.965972458E0,-7.267580348E-1,-3.585116197E0,1.797796619E-1,3.662452199E0
8.975939458E0,-1.981250086E-1,-3.044655715E0,7.094514459E-1,3.132491548E0
8.985906458E0,3.012568827E-1,-1.866309614E0,5.977614409E-1,1.982721873E0
8.995872458E0,4.157497506E-1,-5.899934149E-1,1.516212255E-1,7.375154783E-1
9.005839458E0,6.045939124E-1,5.555819660E-1,-4.709844500E-1,9.465893893E-1
9.015806458E0,7.177237943E-1,1.639241180E0,-1.220534054E0,2.166089211E0
9.025773458E0,6.409508760E-1,2.535642729E0,-1.935409962E0,3.253630863E0
9.035740458E0,3.623199405E-1,3.190777050E0,-2.548755402E0,4.099815608E0
9.045706458E0,-1.153203951E-1,3.545726429E0,-2.864324369E0,4.559586471E0
9.055673458E0,-6.321221651E-1,3.502331318E0,-2.881996116E0,4.579498303E0
9.065640458E0,-1.136538217E0,3.000727923E0,-2.526019381E0,4.083731272E0
9.075607458E0,-1.516764524E0,2.163593752E0,-1.764019008E0,3.177023073E0
9.085574458E0,-1.657067587E0,1.150056102E0,-6.968828559E-1,2.134044925E0
9.095540458E0,-1.561508003E0,5.007555485E-3,5.103490752E-1,1.642798983E0
9.105507458E0,-1.316638891E0,-1.358404675E0,1.645876308E0,2.507530668E0
9.115474458E0,-9.541552283E-1,-2.650706577E0,2.534453113E0,3.789473597E0
9.125441458E0,-6.473341352E-1,-3.504593021E0,2.928075099E0,4.612465448E0
9.135407458E0,-4.691794145E-1,-3.767410161E0,2.838261867E0,4.740172895E0
9.145374458E0,-3.045407521E-1,-3.580132615E0,2.419910251E0,4.331981098E0
9.155341458E0,-9.387054227E-2,-2.893056124E0,1.673890903E0,3.343724895E0
9.165308458E0,-2.985997617E-2,-1.761872495E0,7.730603814E-1,1.924242360E0
9.175275458E0,-7.158249110E-2,-5.857068211E-1,-8.186277330E-2,5.957164149E-1
9.185241458E0,-2.361389270E-1,3.749158663E-1,-8.546992064E-1,9.627223031E-1
9.195208458E0,-4.332677894E-1,1.169399861E0,-1.489883120E0,1.942927874E0
9.205175458E0,-4.905062565E-1,1.583993179E0,-1.769222445E0,2.424825528E0
9.215142458E0,-2.861802757E-1,1.336913234E0,-1.662188578E0,2.152233030E0
9.225109458E0,-1.120323595E-1,8.268231905E-1,-1.422352749E0,1.649022492E0
9.235075458E0,2.689399431E-2,7.046584833E-1,-1.303055224E0,1.481627410E0
9.245042542E0,1.504298553E-1,5.561473918E-1,-1.220329109E0,1.349493312E0
9.255009542E0,2.500149545E-1,4.256603426E-1,-1.100885989E0,1.206500794E0
9.264976542E0,3.704398227E-1,3.785007942E-1,-9.496860552E-1,1.087378553E0
9.274943542E0,6.089337158E-1,3.342110592E-1,-7.927011788E-1,1.053979346E0
9.284909542E0,9.600707102E-1,3.654731977E-1,-7.009080791E-1,1.243615118E0
9.294876542E0,1.207446524E0,4.475236666E-1,-6.794651699E-1,1.455979896E0
9.304843542E0,1.472373340E0,5.975252134E-1,-6.999656542E-1,1.736338547E0
9.314810542E0,1.349747580E0,6.767087924E-1,-7.575155586E-1,1.689255203E0
9.324776542E0,1.349473930E0,8.130933434E-1,-8.030250227E-1,1.768346646E0
9.334743542E0,1.092925297E0,8.573468256E-1,-8.028006358E-1,1.604374690E0
9.344710542E0,7.734512678E-1,9.508794719E-1,-7.187457414E-1,1.420913113E0
9.354677542E0,4.700035796E-1,8.721771187E-1,-5.992741156E-1,1.157897127E0
9.364644542E0,3.222702043E-1,6.207059151E-1,-5.095873292E-1,8.653399122E-1
9.374610542E0,2.522281622E-1,4.126268989E-1,-5.510440882E-1,7.331640953E-1
9.384577542E0,1.162596406E-1,2.497451055E-1,-6.794547911E-1,7.331764691E-1
9.394544542E0,-1.591377847E-1,2.829613835E-1,-8.034800823E-1,8.665865345E-1
9.404511542E0,-5.325968171E-1,4.382476437E-1,-9.079809357E-1,1.140241091E0
9.414478542E0,-9.494585985E-1,5.168815845E-1,-9.980719109E-1,1.471321087E0
9.424444542E0,-1.316303845E0,3.934603107E-1,-1.096010288E0,1.757471303E0
9.434411542E0,-1.667217476E0,1.552523464E-1,-1.229362473E0,2.077269721E0
9.444378542E0,-2.056319272E0,-2.423764443E-1,-1.297203477E0,2.443344460E0
9.454345542E0,-2.485967708E0,-7.258528858E-1,-1.259463501E0,2.879782313E0
9.464312542E0,-2.715881105E0,-1.269392511E0,-1.076011787E0,3.185148174E0
9.474278542E0,-2.790502101E0,-1.648344126E0,-8.854836273E-1,3.359765109E0
9.484245542E0,-2.553709748E0,-1.958344789E0,-7.340672006E-1,3.300818451E0
9.494212542E0,-2.256550740E0,-2.223602557E0,-5.982455903E-1,3.224023474E0
9.504179542E0,-2.016214097E0,-2.373877754E0,-4.623767638E-1,3.148683399E0
9.514145542E0,-1.934108957E0,-2.227710226E0,-4.303797765E-1,2.981391799E0
9.524112542E0,-2.001356322E0,-1.966716832E0,-3.673619945E-1,2.829904073E0
9.534079542E0,-1.761811684E0,-2.094225309E0,-6.054576923E-1,2.802916173E0
9.544046542E0,-1.224690474E0,-2.742752861E0,-1.144501540E0,3.214411889E0
9.554013542E0,-7.654508150E-1,-3.433200856E0,-1.487935120E0,3.819258304E0
9.563979542E0,-2.591254281E-1,-3.569024659E0,-1.322568991E0,3.815006126E0
9.573946542E0,1.377516665E-1,-2.906284280E0,-5.302642532E-1,2.957472573E0
9.583913542E0,3.536512971E-1,-1.936935208E0,5.553024691E-1,2.045763445E0
9.593880542E0,6.924111977E-1,-2.039166757E0,1.690351692E0,2.737685734E0
9.603847542E0,1.521415984E0,-3.346607686E0,2.286157240E0,4.329088186E0
9.613813542E0,2.861754810E0,-4.472755108E0,2.296125573E0,5.785099091E0
9.623780542E0,3.751968834E0,-3.215337694E0,1.986237030E0,5.325486284E0
9.633747542E0,3.383231721E0,-1.947824478E-1,1.650220205E0,3.769273644E0
9.643714542E0,2.865257292E0,1.881682529E0,1.245211205E0,3.647050785E0
9.653681542E0,2.789033573E0,2.967043283E0,6.246495697E-1,4.119738001E0
9.663647542E0,2.495708292E0,3.575761821E0,6.330429554E-2,4.361036565E0
9.673614542E0,2.152247523E0,3.633803623E0,-8.351578116E-2,4.224177204E0
9.683581542E0,1.832248998E0,3.462237545E0,6.693015397E-3,3.917176279E0
9.693548542E0,1.726399777E0,3.450730809E0,1.052077818E-1,3.859931085E0
9.703515542E0,1.975474499E0,3.321543011E0,2.589062306E-1,3.873264761E0
9.713481542E0,2.383942566E0,2.814678876E0,2.645593187E-1,3.698052321E0
9.723448542E0,2.598450596E0,2.013519700E0,2.184434983E-1,3.294529503E0
9.733415542E0,2.592414223E0,1.074598369E0,2.255689153E-1,2.815360455E0
9.743382542E0,2.315645918E0,3.029588610E-1,2.080377933E-1,2.344627862E0
9.753349542E0,1.907835370E0,-5.970182598E-2,5.460685462E-2,1.909550213E0
9.763315542E0,1.646525349E0,-1.635220635E-1,-3.081810093E-1,1.683080725E0
9.773282542E0,1.687914573E0,-3.736142761E-1,-6.781474999E-1,1.857021073E0
9.783249542E0,1.745745582E0,-5.570139492E-1,-7.040945193E-1,1.963069349E0
9.793216542E0,1.931457829E0,-4.835928011E-1,-2.443200588E-1,2.006011873E0
9.803182542E0,2.265359571E0,-2.885191619E-1,2.191404864E-1,2.294149046E0
9.813149542E0,2.614064708E0,3.196146548E-2,3.334924364E-1,2.635445510E0
9.823116542E0,2.855203004E0,3.636020887E-1,1.964921737E-1,2.884960979E0
9.833083542E0,2.759203126E0,6.234272093E-1,-7.386729062E-2,2.829720790E0
9.843050542E0,2.239076629E0,8.714111334E-1,-3.818030092E-1,2.432816280E0
9.853016542E0,1.541860774E0,1.165605603E0,-6.939688960E-1,2.053670834E0
9.862983542E0,6.724768701E-1,1.344961342E0,-9.823743296E-1,1.796164100E0
9.872950542E0,3.406966995E-2,1.397855839E0,-1.088798040E0,1.772185899E0
9.882917542E0,-5.309450153E-1,1.246821674E0,-1.068998491E0,1.726043067E0
9.892884542E0,-8.613650322E-1,1.012222611E0,-1.189904877E0,1.783933281E0
9.902850542E0,-9.037535450E-1,6.786313570E-1,-1.241893641E0,1.679169677E0
9.912817542E0,-7.935642278E-1,3.441659439E-1,-1.249548231E0,1.519725357E0
9.922784542E0,-5.418883717E-1,1.013322473E-1,-1.302056812E0,1.413953031E0
9.932751542E0,-3.024182859E-1,-2.699893355E-2,-1.421858367E0,1.453914364E0
9.942718542E0,-1.733895323E-1,-1.668502986E-1,-1.598198404E0,1.616211958E0
9.952684542E0,1.436172643E-1,-3.455505645E-1,-1.770503570E0,1.809617088E0
9.962651542E0,4.547025856E-1,-4.061464298E-1,-1.744308629E0,1.847788396E0
9.972618542E0,6.570726728E-1,-4.953462893E-1,-1.733881582E0,1.919233645E0
9.982585542E0,8.724563232E-1,-5.797689736E-1,-1.679653042E0,1.979531874E0
9.992552542E0,1.066971846E0,-6.847335112E-1,-1.815789671E0,2.214583715E0
1.000251854E1,1.175746721E0,-7.889881968E-1,-2.009458809E0,2.458212243E0
1.001248554E1,1.231091787E0,-9.318619877E-1,-2.080460087E0,2.590804494E0
1.002245254E1,1.064097062E0,-9.940518039E-1,-2.072816899E0,2.533182078E0
1.003241954E1,6.074958855E-1,-8.212174648E-1,-2.249599278E0,2.470657056E0
1.004238654E1,-5.803716023E-2,-6.831541783E-1,-2.502339620E0,2.594565766E0
1.005235254E1,-6.348149541E-1,-6.498566240E-1,-2.620113068E0,2.773138321E0
1.006231954E1,-1.281174943E0,-7.280759972E-1,-2.697127915E0,3.073435030E0
1.007228654E1,-2.042202047E0,-1.055494346E0,-3.025643494E0,3.799891586E0
1.008225354E1,-2.831406299E0,-1.451252028E0,-3.435520155E0,4.682498565E0
1.009222054E1,-3.322417462E0,-1.899142315E0,-3.725798744E0,5.341046302E0
1.010218654E1,-3.371654526E0,-2.026864216E0,-3.694717284E0,5.396959200E0
1.011215354E1,-3.181311869E0,-1.859098828E0,-3.458264946E0,5.053374130E0
1.012212054E1,-2.747085356E0,-1.548949646E0,-3.093430849E0,4.417582753E0
1.013208754E1,-2.155985940E0,-9.709231424E-1,-2.730943532E0,3.612342688E0
1.014205454E1,-1.584796878E0,-1.082623672E-1,-2.247014809E0,2.751795311E0
1.015202054E1,-1.093658830E0,4.380061537E-1,-1.639930567E0,2.019235324E0
1.016198754E1,-5.832629773E-1,1.693143153E-1,-7.529447901E-1,9.673618222E-1
1.017195454E1,-8.499518520E-1,-5.152069420E-1,2.199763459E-1,1.017961658E0
1.018192154E1,-7.675300848E-1,-1.184640044E0,1.098571368E0,1.788668085E0
1.019188854E1,3.664133569E-1,-1.669932631E0,1.931099980E0,2.579162824E0
1.020185454E1,1.462141005E0,-1.620010273E0,2.625153953E0,3.413754953E0
1.021182154E1,2.411256664E0,-1.000390186E0,2.743128253E0,3.786778556E0
1.022178854E1,3.122234234E0,2.698782384E-1,2.786782980E0,4.193726297E0
1.023175554E1,3.097118688E0,1.644425322E0,3.064728037E0,4.657127521E0
1.024172271E1,2.777770959E0,2.836041679E0,3.284122585E0,5.152145675E0
1.025168871E1,2.360407815E0,3.515506264E0,3.333057348E0,5.388838524E0
1.026165571E1,1.696493315E0,3.419092695E0,3.243310189E0,5.008726925E0
1.027162271E1,9.268508508E-1,2.551406237E0,2.907899866E0,3.978015576E0
1.028158971E1,2.644899561E-1,1.431966156E0,2.284697628E0,2.709303465E0
1.029155671E1,-5.974782164E-1,5.677476829E-1,1.548481722E0,1.754170258E0
1.030152271E1,-1.322546625E0,-2.520758057E-1,1.045898480E0,1.704868153E0
1.031148971E1,-1.288292174E0,-2.181415481E0,1.317917969E0,2.855727228E0
1.032145671E1,-1.156103000E0,-4.253671632E0,1.528279738E0,4.665397674E0
1.033142371E1,-1.128677805E0,-5.226450680E0,1.805958163E0,5.643685426E0
1.034139071E1,-1.715509338E0,-4.733967188E0,2.406569536E0,5.580770069E0
1.035135671E1,-2.494536218E0,-2.867573959E0,2.877294370E0,4.767023625E0
1.036132371E1,-2.748491904E0,-6.559815824E-1,2.862126693E0,4.021975731E0
1.037129071E1,-2.519861094E0,1.068164678E0,2.051088499E0,3.420181244E0
1.038125771E1,-2.328454244E0,2.315560548E0,7.892851623E-1,3.377349683E0
1.039122471E1,-2.121717163E0,2.694848962E0,-1.543641543E-1,3.433325348E0
1.040119071E1,-1.865350086E0,2.338125538E0,-6.592466676E-1,3.062836617E0
1.041115771E1,-1.383128749E0,1.785444961E0,-1.101815258E0,2.512937665E0
1.042112471E1,-8.770700687E-1,1.053211008E0,-1.199719282E0,1.821491611E0
1.043109171E1,-5.368050948E-1,3.967791903E-1,-9.660658604E-1,1.174255799E0
1.044105771E1,-3.996235684E-1,-1.562738550E-1,-6.551635569E-1,7.831729059E-1
1.045102471E1,-4.719293600E-1,-5.586160862E-1,-3.924586827E-1,8.299355820E-1
1.046099171E1,-7.085229081E-1,-7.659729713E-1,-2.462666700E-1,1.072085154E0
1.047095871E1,-1.058882223E0,-8.139873827E-1,-2.026324810E-1,1.350876361E0
1.048092571E1,-1.624705587E0,-6.096084845E-1,-4.076854169E-1,1.782553828E0
1.049089171E1,-2.129617336E0,-2.556519628E-1,-8.237836616E-1,2.297661299E0
1.050085871E1,-2.381726471E0,1.060474420E-1,-1.224957765E0,2.680370976E0
1.051082571E1,-2.441223352E0,4.049781561E-1,-1.391585870E0,2.839029763E0
1.052079271E1,-2.419976617E0,6.818286145E-1,-1.407925914E0,2.881567710E0
1.053075971E1,-2.375433113E0,8.927622414E-1,-1.427626938E0,2.911670580E0
1.054072571E1,-2.406942589E0,1.137053649E0,-1.490911937E0,3.051078831E0
1.055069271E1,-2.333138740E0,1.436643929E0,-1.595054941E0,3.170438838E0
1.056065971E1,-2.271833900E0,1.644938123E0,-1.709525443E0,3.284741685E0
1.057062671E1,-2.243167925E0,1.730186434E0,-1.856774560E0,3.387175697E0
1.058059371E1,-2.111603234E0,1.590782965E0,-1.925626840E0,3.270702889E0
1.059055971E1,-1.883848338E0,1.307025776E0,-1.741523162E0,2.879254046E0
1.060052671E1,-1.403259836E0,6.966419506E-1,-1.165246145E0,1.952497568E0
1.061049371E1,-6.890686369E-1,-3.408874100E-1,-2.644238095E-1,8.129820193E-1
1.062046071E1,-6.530053496E-2,-1.478676639E0,8.780050385E-1,1.720942070E0
1.063042771E1,4.483037217E-1,-2.156804550E0,1.724446222E0,2.797587687E0
1.064039371E1,8.690868652E-1,-2.259656489E0,1.985443125E0,3.131029196E0
1.065036071E1,1.041461613E0,-1.824734741E0,1.712768163E0,2.710696211E0
1.066032771E1,6.323582464E-1,-1.166200265E0,1.007083493E0,1.665568123E0
1.067029471E1,3.618257046E-3,-5.516321719E-1,-2.327051497E-1,5.987176559E-1
1.068026171E1,-8.842174128E-1,9.588848948E-3,-1.431574978E0,1.682658401E0
1.069022771E1,-2.039527531E0,4.307883507E-1,-2.060496815E0,2.931023418E0
1.070019471E1,-2.931308317E0,-5.651170206E-1,-1.706290618E0,3.438510341E0
1.071016171E1,-2.429097689E0,-2.327466064E0,-7.563570790E-1,3.448142963E0
1.072012871E1,-7.068532357E-1,-4.467454607E0,1.494747126E0,4.763618491E0
1.073009571E1,2.568084251E0,-6.676670675E0,4.811311818E0,8.621003968E0
1.074006171E1,4.275384390E0,-7.701803353E0,7.378007939E0,1.149050424E1
1.075002871E1,4.155966120E0,-5.994625713E0,7.566481242E0,1.050995862E1
1.075999571E1,3.512047636E0,-1.743508730E0,4.975294057E0,6.334654864E0
1.076996271E1,2.991506279E0,1.299433751E0,2.210451731E0,3.940017100E0
1.077992971E1,2.069083744E0,2.851074870E0,2.986950713E-1,3.535386005E0
1.078989571E1,1.200737721E0,3.566740737E0,-1.028596569E0,3.901464015E0
1.079986271E1,1.121440998E0,3.689860879E0,-1.298032758E0,4.069102144E0
1.080982971E1,1.540167128E0,3.523957829E0,-7.261354525E-1,3.913779026E0
1.081979671E1,2.141815213E0,3.019630802E0,1.001090097E-1,3.703453037E0
1.082976371E1,2.747036824E0,1.771049116E0,9.195682168E-1,3.395354472E0
1.083972971E1,3.468831742E0,2.533446515E-1,1.609295835E0,3.832337440E0
1.084969671E1,4.200068452E0,-1.175748768E0,2.345017213E0,4.951975958E0
1.085966371E1,4.599865098E0,-2.037946444E0,2.790611737E0,5.753216360E0
1.086963071E1,4.847940531E0,-1.778942857E0,2.420620980E0,5.703207081E0
1.087959771E1,4.712650286E0,-7.467876720E-1,1.242597646E0,4.930599706E0
1.088956371E1,4.251519856E0,2.039093667E-1,2.510195062E-2,4.256480968E0
1.089953071E1,3.798032322E0,8.790674776E-1,-7.205097002E-1,3.964460036E0
1.090949771E1,3.463558431E0,1.496398965E0,-9.026510525E-1,3.879462049E0
1.091946471E1,3.116206924E0,2.085857944E0,-6.188867001E-1,3.800601229E0
1.092943171E1,3.084143424E0,2.386776711E0,-5.366258776E-1,3.936573518E0
1.093939771E1,2.749886464E0,2.165260209E0,-2.063004394E-1,3.506107131E0
1.094936471E1,2.697220301E0,1.671731819E0,5.640341163E-2,3.173777870E0
1.095933171E1,2.589694098E0,1.041025411E0,1.626441041E-1,2.795836643E0
1.096929871E1,2.401254125E0,4.892575836E-1,1.388362885E-2,2.450629942E0
1.097926571E1,1.877216718E0,2.931676984E-2,-4.403158039E-1,1.928387950E0
1.098923171E1,1.199110441E0,-1.954162860E-1,-8.589539328E-1,1.487902965E0
1.099919871E1,3.270251235E-1,-2.002431625E-1,-1.097179293E0,1.162258644E0
1.100916571E1,-5.184828445E-1,-1.844662052E-1,-1.187913315E0,1.309194518E0
1.101913271E1,-1.076544322E0,-2.771053970E-2,-1.108529323E0,1.545494358E0
1.102909971E1,-1.400939953E0,7.424092770E-2,-1.149725150E0,1.813839129E0
1.103906571E1,-1.636443580E0,7.593837440E-2,-1.239509292E0,2.054287593E0
1.104903271E1,-1.557091894E0,1.091932440E-1,-1.370968587E0,2.077501672E0
1.105899971E1,-1.509991402E0,8.688611627E-2,-1.427553263E0,2.079791227E0
1.106896671E1,-1.564752038E0,1.106410146E-1,-1.633994181E0,2.265088820E0
1.107893371E1,-1.467480098E0,1.642091113E-1,-1.574822698E0,2.158825838E0
1.108889971E1,-1.610767579E0,9.041549563E-2,-1.495963347E0,2.200148516E0
1.109886671E1,-1.681621215E0,-7.931104839E-2,-1.431130005E0,2.209586668E0
1.110883371E1,-1.762034463E0,-4.198172200E-1,-1.511121084E0,2.358919006E0
1.111880071E1,-1.527433062E0,-7.117453086E-1,-1.336453643E0,2.150753701E0
1.112876771E1,-1.514529718E0,-7.841899717E-1,-1.314878587E0,2.153522667E0
1.113873371E1,-1.596661756E0,-6.753522384E-1,-1.320213586E0,2.179080843E0
1.114870071E1,-1.619747733E0,-4.360736489E-1,-1.463647248E0,2.226208933E0
1.115866771E1,-1.433281488E0,-4.869619668E-2,-1.692879444E0,2.218672566E0
1.116863471E1,-1.118452779E0,2.853909016E-1,-1.943885209E0,2.260768518E0
1.117860171E1,-7.888770998E-1,3.846579123E-1,-2.162441559E0,2.333761402E0
1.118856771E1,-4.153660271E-1,2.581007767E-1,-2.313233356E0,2.364359006E0
1.119853471E1,-2.049650084E-2,-1.524111843E-1,-2.472763818E0,2.477541155E0
1.120850171E1,1.246831030E-1,-7.455322748E-1,-2.703731468E0,2.807405938E0
1.121846871E1,1.821667877E-1,-9.709956479E-1,-2.899664063E0,3.063342776E0
1.122843471E1,6.902605187E-2,-1.103544425E0,-2.945845080E0,3.146518414E0
1.123840171E1,-1.332817990E-2,-1.331765930E0,-2.901854722E0,3.192888811E0
1.124836904E1,-2.520621378E-2,-1.258343028E0,-2.797354454E0,3.067450809E0
1.125833604E1,-1.390494560E-1,-1.113492878E0,-2.847876736E0,3.060980732E0
1.126830304E1,-2.430122560E-1,-7.702923095E-1,-2.657132960E0,2.777185763E0
1.127827004E1,-6.757828858E-1,-3.397372627E-1,-2.195009965E0,2.321674539E0
1.128823604E1,-1.064816562E0,-2.762721688E-1,-1.719474919E0,2.041262996E0
1.129820304E1,-9.245184696E-1,-6.133471942E-1,-1.180723579E0,1.620196701E0
1.130817004E1,-1.040883908E0,-1.000241082E0,-4.818614405E-1,1.521877781E0
1.131813704E1,-1.175106670E0,-6.173654008E-1,6.312159929E-1,1.469846711E0
1.132810404E1,-1.550997048E0,-1.266226244E-1,1.432403528E0,2.115042553E0
1.133807004E1,-1.193555659E0,3.221003062E-1,1.617890365E0,2.036146594E0
1.134803704E1,-2.829391640E-1,1.035351273E0,1.721811467E0,2.028950851E0
1.135800404E1,5.798558047E-1,1.916091054E0,2.036741917E0,2.855863323E0
1.136797104E1,1.471044560E0,2.774388637E0,2.352279016E0,3.923572476E0
1.137793804E1,2.203732257E0,3.447256978E0,2.718063286E0,4.912014307E0
1.138790404E1,2.523171495E0,3.658862450E0,2.980435453E0,5.351323604E0
1.139787104E1,2.434184766E0,3.351747973E0,2.962956956E0,5.092993607E0
1.140783804E1,2.019455501E0,2.542737740E0,2.693025216E0,4.218542468E0
1.141780504E1,1.475161000E0,1.218435196E0,2.238091227E0,2.944441652E0
1.142777204E1,6.919758725E-1,-3.939234102E-1,1.674984040E0,1.854609877E0
1.143773804E1,-4.249803845E-1,-1.673746185E0,1.094551262E0,2.044523681E0
1.144770504E1,-1.462092181E0,-3.123886072E0,9.903123634E-1,3.588467126E0
1.145767204E1,-2.226626737E0,-5.384959341E0,1.418044521E0,5.997208017E0
1.146763904E1,-2.725805292E0,-6.681909780E0,1.957919111E0,7.477391259E0
1.147760604E1,-3.348159829E0,-6.306858258E0,2.976279545E0,7.735946953E0
1.148757204E1,-3.818758070E0,-3.895964706E0,3.711728881E0,6.598362333E0
1.149753904E1,-3.707441995E0,-1.339138684E0,3.466027125E0,5.248977290E0
1.150750604E1,-3.354567208E0,4.001015782E-2,2.638863042E0,4.268292413E0
1.151747304E1,-2.811655281E0,8.990129149E-1,1.474312862E0,3.299579982E0
1.152744004E1,-2.288542904E0,1.479237971E0,4.113539600E-1,2.755863871E0
1.153740604E1,-1.825914125E0,1.763837160E0,-5.346857715E-1,2.594411839E0
1.154737304E1,-1.201279173E0,1.699022529E0,-1.198357027E0,2.401209855E0
1.155734004E1,-3.927685851E-1,1.292270912E0,-1.468440503E0,1.995131269E0
1.156730704E1,2.868684930E-1,6.996129209E-1,-1.345361145E0,1.543291412E0
1.157727404E1,5.837447879E-1,2.815370017E-1,-1.000384923E0,1.191969402E0
1.158724004E1,6.216522869E-1,1.969985425E-2,-4.955011674E-1,7.952113285E-1
1.159720704E1,5.083583906E-1,-1.062743139E-1,7.432213090E-2,5.246391734E-1
1.160717404E1,2.493121192E-1,-2.408760488E-2,5.892882407E-1,6.403103748E-1
1.161714104E1,1.006949008E-2,2.418490255E-1,8.862987292E-1,9.187588275E-1
1.162710804E1,-1.335887413E-1,5.283929980E-1,9.265358321E-1,1.074948259E0
1.163707404E1,-2.079576865E-1,8.344052750E-1,6.423669255E-1,1.073365655E0
1.164704104E1,-1.988421696E-1,1.117329236E0,1.413728106E-1,1.143656024E0
1.165700804E1,-2.494354954E-1,1.155859464E0,-2.627265090E-1,1.211302764E0
1.166697504E1,-2.858104393E-1,1.045417839E0,-3.633962667E-1,1.143084823E0
1.167694204E1,-3.932182360E-1,9.992330217E-1,-3.593540865E-1,1.132352671E0
1.168690804E1,-6.140509066E-1,9.682568121E-1,-5.081300569E-1,1.254103634E0
1.169687504E1,-9.030781916E-1,7.747052032E-1,-8.493432299E-1,1.461883133E0
1.170684204E1,-1.234280858E0,6.183155733E-1,-1.234006916E0,1.851630756E0
1.171680904E1,-1.467625693E0,4.550016707E-1,-1.460866604E0,2.120161063E0
1.172677604E1,-1.606358194E0,1.348250985E-1,-1.415166083E0,2.145054660E0
1.173674204E1,-1.694290377E0,-2.694636708E-1,-1.194063563E0,2.090219688E0
1.174670904E1,-1.901278595E0,-6.859824765E-1,-9.211036956E-1,2.221230351E0
1.175667604E1,-2.043273549E0,-1.287665645E0,-5.763657479E-1,2.482991560E0
1.176664304E1,-2.023817232E0,-2.041489856E0,-4.900529511E-2,2.875051050E0
1.177661004E1,-1.864968555E0,-2.630941819E0,5.080984819E-1,3.264678642E0
1.178657604E1,-1.698317062E0,-2.914530609E0,8.787862265E-1,3.485833436E0
1.179654304E1,-1.516281837E0,-2.788579245E0,8.691525002E-1,3.291004540E0
1.180651004E1,-1.330268458E0,-2.317601227E0,4.550227207E-1,2.710707526E0
1.181647704E1,-1.381825113E0,-1.764155248E0,-1.787541334E-1,2.248029676E0
1.182644404E1,-1.503844517E0,-1.667155788E0,-3.993402708E-1,2.280445001E0
1.183641004E1,-1.297274082E0,-2.592405159E0,-5.655181396E-1,2.953522528E0
1.184637704E1,-2.227327234E-1,-4.048989848E0,-6.121315581E-1,4.101052755E0
1.185634404E1,1.679641055E0,-4.298128012E0,2.882421501E-1,4.623654618E0
1.186631104E1,3.010749173E0,-2.723409687E0,1.374027851E0,4.285968204E0
1.187627804E1,3.340646157E0,-1.304382250E0,2.311701386E0,4.266766117E0
1.188624404E1,3.456804020E0,-5.158741093E-1,2.383340449E0,4.230358356E0
1.189621104E1,3.877819334E0,1.911372936E-1,1.580282097E0,4.191814375E0
1.190617804E1,3.603009554E0,1.137430794E0,8.419961303E-1,3.870966822E0
1.191614504E1,2.157450668E0,2.180395727E0,4.188859047E-1,3.095833379E0
1.192611204E1,9.842036310E-1,2.926957111E0,3.204777038E-1,3.104583817E0
1.193607804E1,4.666295169E-1,3.581642951E0,3.509105609E-1,3.628918235E0
1.194604504E1,2.968018160E-1,3.928234904E0,6.791019116E-1,3.997536765E0
1.195601204E1,1.557801307E-1,3.555054492E0,1.335913214E0,3.800966193E0
1.196597904E1,9.718722917E-2,2.552585036E0,1.785439406E0,3.116557331E0
1.197594604E1,3.825578848E-1,1.554354227E0,1.924185355E0,2.502969612E0
1.198591204E1,9.536569724E-1,8.963465846E-1,1.755807617E0,2.189922192E0
1.199587904E1,1.585160575E0,4.159498715E-1,1.259595209E0,2.066961160E0
1.200584604E1,2.147797207E0,8.482321858E-2,7.147896615E-1,2.265204644E0
1.201581304E1,2.605392410E0,2.674984217E-2,4.007374629E-1,2.636166853E0
1.202578004E1,2.962050930E0,4.301679611E-2,2.781429854E-1,2.975392357E0
1.203574604E1,3.115297682E0,1.110766321E-1,2.368183735E-1,3.126259843E0
1.204571304E1,3.114443988E0,3.488419622E-1,9.930794120E-2,3.135492647E0
1.205568004E1,3.282546760E0,7.879567480E-1,-2.583969381E-1,3.385669513E0
1.206564704E1,3.395001874E0,9.117364562E-1,-6.485257977E-1,3.574617014E0
1.207561404E1,2.979530889E0,9.720563328E-1,-5.274200213E-1,3.178155080E0
1.208558004E1,2.697481379E0,1.091561142E0,-5.904389727E-1,2.969264167E0
1.209554704E1,2.584899673E0,1.045074608E0,-7.070852239E-1,2.876431256E0
1.210551404E1,2.246985280E0,8.423504716E-1,-6.274606186E-1,2.480363682E0
1.211548104E1,1.951272289E0,7.836186987E-1,-2.990792334E-1,2.123904470E0
1.212544804E1,1.356040646E0,4.862901217E-1,-9.356670633E-2,1.443633972E0
1.213541404E1,7.806135222E-1,2.440317911E-1,1.068724841E-3,8.178692611E-1
1.214538104E1,2.711815828E-1,-2.025943279E-2,1.373522651E-1,3.046564298E-1
1.215534804E1,2.724334717E-2,-2.097314394E-1,2.470302433E-1,3.251975057E-1
1.216531504E1,-2.605031052E-1,-4.805352920E-1,2.560308623E-1,6.035957564E-1
1.217528204E1,-5.079829994E-1,-6.693600118E-1,-8.540443182E-3,8.403347501E-1
1.218524804E1,-6.183240518E-1,-8.101404995E-1,-3.524143186E-1,1.078354355E0
1.219521504E1,-5.064717865E-1,-8.154743296E-1,-5.239960380E-1,1.093656208E0
1.220518204E1,-4.256846085E-1,-6.960999137E-1,-6.414034505E-1,1.037863605E0
1.221514904E1,-4.831563064E-1,-4.280998009E-1,-6.791687161E-1,9.370056568E-1
1.222511604E1,-5.995541972E-1,-1.488455522E-1,-5.127166128E-1,8.028066759E-1
1.223508204E1,-7.348502889E-1,4.359508574E-2,-5.623474869E-1,9.263585562E-1
1.224504892E1,-7.847279155E-1,1.328674507E-1,-7.550670370E-1,1.097076976E0
1.225501592E1,-6.577570894E-1,7.490751028E-2,-9.111356547E-1,1.126243182E0
1.226498292E1,-4.883164743E-1,-4.612985373E-2,-1.205334510E0,1.301311731E0
1.227494992E1,-4.126251447E-1,-3.149602711E-2,-1.589317653E0,1.642309993E0
1.228491592E1,-1.999475858E-1,-1.155409813E-2,-1.950814160E0,1.961068183E0
1.229488292E1,2.223557241E-2,4.163919210E-2,-2.136921971E0,2.137443274E0
1.230484992E1,5.733289964E-2,1.461102247E-2,-2.340097512E0,2.340845340E0
1.231481692E1,1.334954417E-1,2.361105680E-3,-2.380843542E0,2.384584362E0
1.232478392E1,3.855913471E-2,-6.522627532E-2,-2.526106212E0,2.527242345E0
1.233474992E1,-3.164931552E-1,-2.802260560E-1,-2.729389342E0,2.761930619E0
1.234471692E1,-4.723833963E-1,-5.233731633E-1,-3.005764130E0,3.087342473E0
1.235468392E1,-5.327860111E-1,-6.961379206E-1,-3.266751092E0,3.382326364E0
1.236465092E1,-8.102760818E-1,-8.132857168E-1,-3.528144728E0,3.710227245E0
1.237461792E1,-1.033416429E0,-1.051153373E0,-3.535049413E0,3.830071446E0
1.238458392E1,-1.061100656E0,-1.347680297E0,-3.240056798E0,3.666080310E0
1.239455092E1,-9.476363137E-1,-1.503774058E0,-2.728472207E0,3.256364780E0
1.240451792E1,-1.007498061E0,-1.724891195E0,-2.201559139E0,2.972736891E0
1.241448492E1,-9.857744124E-1,-1.698666433E0,-1.561198685E0,2.508896207E0
1.242445192E1,-8.773367018E-1,-1.625210202E0,-8.458383358E-1,2.031371551E0
1.243441892E1,-4.564828435E-1,-1.523967417E0,8.975095958E-2,1.593395277E0
1.244438492E1,1.133169928E-1,-1.503773473E0,8.996941155E-1,1.756025313E0
1.245435192E1,2.946867319E-1,-1.361531766E0,1.281608807E0,1.892915781E0
1.246431892E1,-1.231547139E-1,-8.838528389E-1,1.372296782E0,1.636936585E0
1.247428592E1,-5.016299996E-1,-4.600384623E-1,1.292926970E0,1.461139347E0
1.248425292E1,-4.959579080E-1,-1.590676546E-2,1.328395595E0,1.418048705E0
1.249421892E1,-1.093259027E-1,7.526612002E-1,1.486387070E0,1.669669894E0
1.250418592E1,8.547685689E-1,1.833029602E0,1.462860213E0,2.496114346E0
1.251415292E1,1.711088550E0,2.994558526E0,1.343819965E0,3.701493873E0
1.252411992E1,2.009565813E0,3.976616521E0,1.359836658E0,4.658432080E0
1.253408692E1,2.245574932E0,4.819248828E0,1.367026102E0,5.489674527E0
1.254405292E1,2.440136940E0,5.416678147E0,1.155489335E0,6.052257929E0
1.255401992E1,2.136536639E0,5.384969866E0,6.464155376E-1,5.829283174E0
1.256398692E1,1.599576301E0,3.880402341E0,3.571701515E-1,4.212331562E0
1.257395392E1,9.144478101E-1,1.681461586E0,2.838998616E-1,1.934974675E0
1.258392092E1,3.918803930E-3,-1.331820309E-2,4.249487364E-1,4.251754463E-1
1.259388692E1,-1.138860731E0,-1.327739537E0,7.901270883E-1,1.919426180E0
1.260385392E1,-2.128069286E0,-3.415217745E0,1.270816308E0,4.219877394E0
1.261382092E1,-2.625518526E0,-6.064576539E0,1.695394331E0,6.822521386E0
1.262378792E1,-2.843497463E0,-7.700821606E0,3.034161133E0,8.751814955E0
1.263375492E1,-3.776350847E0,-6.300063794E0,4.748472376E0,8.746406086E0
1.264372092E1,-4.140878257E0,-2.401660214E0,4.581703938E0,6.626224830E0
1.265368792E1,-4.088914052E0,5.720769614E-1,2.766735216E0,4.970041643E0
1.266365492E1,-3.641210583E0,1.859725065E0,1.333576813E0,4.300630063E0
1.267362192E1,-2.803242307E0,1.729238015E0,5.016041256E-1,3.331671990E0
1.268358892E1,-1.785033317E0,6.425499433E-1,-4.761738539E-2,1.897757041E0
1.269355492E1,-8.297041136E-1,-4.552840912E-1,-3.320703936E-1,1.002977201E0
1.270352192E1,6.069906861E-2,-1.303357233E0,-3.618545021E-1,1.354017405E0
1.271348892E1,9.047803161E-1,-2.067940321E0,-4.417045176E-1,2.300023363E0
1.272345592E1,1.331302538E0,-2.665308829E0,-5.123675340E-1,3.023037891E0
1.273342292E1,1.318949710E0,-2.768661289E0,-5.198911464E-1,3.110530578E0
1.274338892E1,9.704968804E-1,-2.156740816E0,-5.368350618E-1,2.425198347E0
1.275335592E1,7.349996853E-1,-1.002919106E0,-6.484386742E-1,1.402335190E0
1.276332292E1,4.908462356E-1,7.945196629E-3,-7.244084774E-1,8.750775938E-1
1.277328992E1,2.194360266E-1,7.752343762E-1,-7.477382831E-1,1.099205644E0
1.278325692E1,1.038261213E-1,1.133809029E0,-9.463351621E-1,1.480490803E0
1.279322292E1,9.778920002E-3,1.413847389E0,-1.107941093E0,1.796272121E0
1.280318992E1,-6.313410502E-2,1.825668542E0,-1.119516168E0,2.142514408E0
1.281315692E1,-1.418932128E-1,1.981806741E0,-9.656337512E-1,2.209103933E0
1.282312392E1,-1.597898588E-1,1.915412192E0,-8.883351682E-1,2.117422026E0
1.283309092E1,-1.392303542E-1,1.721268845E0,-8.699646053E-1,1.933646799E0
1.284305692E1,-8.654489469E-2,1.523347612E0,-8.938346938E-1,1.768337758E0
1.285302392E1,4.933054648E-2,1.339716974E0,-1.010914443E0,1.679054223E0
1.286299092E1,1.400674197E-1,1.126535093E0,-1.289260765E0,1.717816497E0
1.287295792E1,-4.917797070E-2,7.841110343E-1,-1.520905815E0,1.711842015E0
1.288292492E1,-5.706154498E-1,3.553820729E-1,-1.572415692E0,1.710084652E0
1.289289192E1,-1.066332453E0,8.381048083E-2,-1.598146949E0,1.923060781E0
1.290285792E1,-1.512753334E0,-4.656488657E-2,-1.348878976E0,2.027329631E0
1.291282492E1,-1.775356467E0,-2.377045190E-1,-8.857711641E-1,1.998245375E0
1.292279192E1,-1.579754824E0,-4.772626054E-1,-6.048605454E-1,1.757629420E0
1.293275892E1,-1.164322139E0,-6.234593689E-1,-4.673270897E-1,1.400979028E0
1.294272592E1,-8.423405313E-1,-6.529574025E-1,-4.235921824E-1,1.146874569E0
1.295269192E1,-7.531477616E-1,-6.359408355E-1,-5.726013105E-1,1.139966911E0
1.296265892E1,-9.278016812E-1,-6.995152724E-1,-8.032285058E-1,1.412555701E0
1.297262592E1,-1.252610418E0,-8.793475592E-1,-8.658896077E-1,1.758422532E0
1.298259292E1,-1.406281969E0,-1.162289062E0,-9.688164637E-1,2.065708155E0
1.299255992E1,-1.347725905E0,-1.439052397E0,-8.285118663E-1,2.138613764E0
1.300252592E1,-1.270027519E0,-1.650907545E0,-4.775537968E-1,2.136942500E0
1.301249292E1,-1.066353064E0,-1.647244849E0,-2.272891662E-1,1.975394851E0
1.302245992E1,-5.940046048E-1,-1.372905185E0,-8.384907246E-4,1.495897998E0
1.303242692E1,1.935884829E-1,-8.899614251E-1,2.839739750E-1,9.540173255E-1
1.304239392E1,9.391233525E-1,-3.633986056E-1,4.167678970E-1,1.089819571E0
1.305235992E1,1.449484707E0,-1.370148808E-1,3.109917659E-1,1.488789734E0
1.306232692E1,1.927180006E0,-3.261401474E-1,1.586934328E-3,1.954582485E0
1.307229392E1,2.508779451E0,-6.523083615E-1,-4.993590872E-1,2.639856062E0
1.308226092E1,3.072493724E0,-9.923607892E-1,-9.655996911E-1,3.370071273E0
1.309222792E1,3.222782369E0,-1.101392065E0,-1.192535539E0,3.608535949E0
1.310219392E1,2.725144556E0,-8.651452571E-1,-1.123215774E0,3.071889133E0
1.311216092E1,1.982290306E0,-4.544976407E-1,-8.167285573E-1,2.191594967E0
1.312212792E1,1.476422537E0,-1.166174537E-1,-5.323786063E-1,1.573801169E0
1.313209492E1,1.190125902E0,4.119948149E-2,-3.914383435E-1,1.253523449E0
1.314206192E1,9.923412010E-1,2.258563060E-1,-4.297892077E-1,1.104749245E0
1.315202792E1,7.640980616E-1,5.732002115E-1,-6.467669553E-1,1.153564833E0
1.316199492E1,6.181781638E-1,9.152763605E-1,-1.074011893E0,1.540576712E0
1.317196192E1,6.091784218E-1,1.110479223E0,-1.642473814E0,2.074122148E0
1.318192892E1,8.779123601E-1,1.218810003E0,-2.172666292E0,2.641345633E0
1.319189592E1,1.275125414E0,1.345406899E0,-2.582605226E0,3.178980072E0
1.320186192E1,1.610061528E0,1.384870927E0,-2.718605615E0,3.449780007E0
1.321182892E1,1.948234368E0,1.259479142E0,-2.605690033E0,3.488771333E0
1.322179592E1,2.140450765E0,9.305867100E-1,-2.529147934E0,3.441527332E0
1.323176292E1,2.047777075E0,3.543459463E-1,-2.459348259E0,3.219836309E0
1.324173004E1,1.914431760E0,-3.416095412E-1,-2.441031271E0,3.120958140E0
1.325169604E1,1.823652129E0,-8.342064697E-1,-2.589759587E0,3.275433138E0
1.326166304E1,1.631230203E0,-1.036766299E0,-2.792688375E0,3.396307509E0
1.327163004E1,1.256616491E0,-1.021695685E0,-2.879475089E0,3.303683379E0
1.328159704E1,9.288924792E-1,-8.690418416E-1,-2.764876679E0,3.043454946E0
1.329156404E1,7.584724554E-1,-7.109682137E-1,-2.629666249E0,2.827702397E0
1.330153104E1,6.779320300E-1,-6.991176617E-1,-2.527520946E0,2.708637937E0
1.331149704E1,7.792875199E-1,-7.584856117E-1,-2.422433032E0,2.655328842E0
1.332146404E1,1.015181595E0,-7.938197511E-1,-2.421281716E0,2.742872329E0
1.333143104E1,1.268790833E0,-8.398718369E-1,-2.509847737E0,2.935055458E0
1.334139804E1,1.536071592E0,-8.857151771E-1,-2.625691019E0,3.168321423E0
1.335136504E1,1.669139748E0,-9.296546638E-1,-2.715705104E0,3.320442667E0
1.336133104E1,1.824432879E0,-9.489814657E-1,-2.768768586E0,3.448941958E0
1.337129804E1,1.857888162E0,-8.837312168E-1,-2.757730212E0,3.440611168E0
1.338126504E1,1.796533036E0,-7.737456751E-1,-2.704129078E0,3.337443242E0
1.339123204E1,1.744445600E0,-7.302400517E-1,-2.568721890E0,3.189776345E0
1.340119904E1,1.682006254E0,-8.293719918E-1,-2.419108306E0,3.060896590E0
1.341116504E1,1.540825086E0,-9.992113870E-1,-2.357195355E0,2.988132407E0
1.342113204E1,1.402404096E0,-1.124952836E0,-2.307736974E0,2.925389901E0
1.343109904E1,1.378412531E0,-1.200340987E0,-2.258050551E0,2.905104453E0
1.344106604E1,1.396613306E0,-1.231202592E0,-2.268510635E0,2.934711067E0
1.345103304E1,1.512715620E0,-1.115608401E0,-2.257996172E0,2.937930796E0
1.346099904E1,1.682042214E0,-8.728115416E-1,-2.269957529E0,2.956987180E0
1.347096604E1,1.827092485E0,-4.356555730E-1,-2.334168727E0,2.996065149E0
1.348093304E1,2.032344372E0,2.372332335E-2,-2.571434998E0,3.277691930E0
1.349090004E1,2.344265407E0,4.257638383E-1,-2.812418343E0,3.685994042E0
1.350086704E1,2.613674991E0,6.492432511E-1,-2.914817122E0,3.968497526E0
1.351083304E1,2.780739298E0,6.799563360E-1,-2.978728066E0,4.131303978E0
1.352080004E1,2.902382433E0,5.405183691E-1,-2.866154547E0,4.114708469E0
1.353076704E1,2.999756116E0,1.420136654E-1,-2.694040585E0,4.034421806E0
1.354073404E1,2.945229660E0,-2.045361882E-1,-2.443058209E0,3.832068138E0
1.355070104E1,2.481663280E0,-5.532524353E-1,-2.207102592E0,3.366904030E0
1.356066804E1,1.908300078E0,-8.325347507E-1,-2.026424797E0,2.905360693E0
1.357063404E1,1.355994599E0,-1.083575014E0,-1.871569185E0,2.552572698E0
1.358060104E1,8.362453207E-1,-1.335505224E0,-1.793266781E0,2.387192114E0
1.359056804E1,3.958831776E-1,-1.600088224E0,-1.789706411E0,2.433116285E0
1.360053504E1,8.730477691E-2,-1.716985175E0,-1.805250357E0,2.492907753E0
1.361050204E1,-1.711624740E-1,-1.715755506E0,-1.831506402E0,2.515458059E0
1.362046804E1,-2.787288033E-1,-1.450150997E0,-1.881228493E0,2.391578621E0
1.363043504E1,-2.642097283E-1,-1.033145703E0,-1.964340231E0,2.235135201E0
1.364040204E1,-1.485058290E-1,-5.751911885E-1,-2.050448083E0,2.134768424E0
1.365036904E1,3.939064533E-2,-2.369139755E-1,-2.209214898E0,2.222230933E0
1.366033604E1,2.812772392E-1,1.328604341E-2,-2.481570602E0,2.497495957E0
1.367030204E1,4.374484755E-1,1.731126666E-1,-2.596299697E0,2.638579406E0
1.368026904E1,6.541189519E-1,1.789312309E-1,-2.562277088E0,2.650500305E0
1.369023604E1,8.955792837E-1,1.190879023E-1,-2.320906073E0,2.490551983E0
1.370020304E1,1.095948892E0,1.369067073E-2,-1.805201533E0,2.111881621E0
1.371017004E1,1.259849563E0,-1.687056202E-1,-1.231780297E0,1.770018420E0
1.372013604E1,1.399423039E0,-3.602007633E-1,-8.108743250E-1,1.656999277E0
1.373010304E1,1.424170210E0,-5.121868551E-1,-5.208079898E-1,1.600573998E0
1.374007004E1,1.352242295E0,-6.560283601E-1,-2.936544791E-1,1.531393282E0
1.375003704E1,1.205010720E0,-7.052946603E-1,-3.152441534E-1,1.431387533E0
1.376000404E1,9.826396470E-1,-6.429323512E-1,-5.841637409E-1,1.311560125E0
1.376997104E1,7.438115855E-1,-4.669276518E-1,-1.039331180E0,1.360693356E0
1.377993704E1,5.536988702E-1,-1.738307047E-1,-1.619207450E0,1.720067533E0
1.378990404E1,3.418030840E-1,6.966138840E-2,-2.151980013E0,2.180068814E0
1.379987104E1,9.234478444E-2,2.344838727E-1,-2.533656430E0,2.546158901E0
1.380983804E1,-2.948765472E-2,3.059245688E-1,-2.797111209E0,2.813945714E0
1.381980504E1,-9.524339542E-2,2.066984886E-1,-3.001269960E0,3.009886533E0
1.382977104E1,-2.110916479E-1,-5.496382713E-4,-3.177058312E0,3.184063364E0
1.383973804E1,-4.441449992E-1,-2.131064522E-1,-3.260114210E0,3.297123565E0
1.384970504E1,-9.409665410E-1,-5.650234652E-1,-3.220605451E0,3.402494529E0
1.385967204E1,-1.387375144E0,-1.248331425E0,-3.136169318E0,3.649479295E0
1.386963904E1,-1.486103041E0,-2.189399269E0,-2.830376604E0,3.874661679E0
1.387960504E1,-1.405169829E0,-2.904181037E0,-2.335595448E0,3.982935581E0
1.388957204E1,-1.059406133E0,-3.138229292E0,-1.513283969E0,3.641545388E0
1.389953904E1,-6.306591918E-1,-2.869553241E0,-8.634369931E-1,3.062285137E0
1.390950604E1,-4.016222928E-1,-2.403036649E0,-6.498680261E-1,2.521549931E0
1.391947304E1,-1.402483910E-1,-1.589598320E0,-5.852016217E-1,1.699692139E0
1.392943904E1,2.907003196E-1,-5.832767183E-1,-4.048299292E-1,7.672064112E-1
1.393940604E1,8.148352289E-1,3.122810769E-1,-2.245015061E-1,9.010420898E-1
1.394937304E1,1.391610720E0,9.146530473E-1,-9.140075147E-2,1.667790362E0
1.395934004E1,1.916007585E0,1.357539287E0,3.083441466E-2,2.348392800E0
1.396930704E1,2.245523184E0,1.733532211E0,4.739753008E-3,2.836817012E0
1.397927304E1,2.325423047E0,2.026105832E0,-2.954691625E-1,3.098386550E0
1.398924004E1,1.894365140E0,2.111418462E0,-7.460591090E-1,2.933140194E0
1.399920704E1,1.156097153E0,1.950911223E0,-1.216343647E0,2.573345507E0
1.400917404E1,3.820898151E-1,1.597461655E0,-1.500481490E0,2.224706963E0
1.401914104E1,-1.937241018E-1,1.228026969E0,-1.639063425E0,2.057208831E0
1.402910804E1,-4.388370430E-1,8.770297229E-1,-1.522117943E0,1.810691060E0
1.403907404E1,-4.779246564E-1,6.298223090E-1,-1.137452721E0,1.385238900E0
1.404904104E1,-3.728721182E-1,4.121404105E-1,-5.588683936E-1,7.881796850E-1
1.405900804E1,-1.420953803E-1,-4.719170809E-2,1.280104610E-1,1.969894224E-1
1.406897504E1,1.579401653E-1,-7.013296634E-1,8.957060221E-1,1.148519774E0
1.407894204E1,2.982327028E-1,-1.387892768E0,1.673693852E0,2.194638966E0
1.408890804E1,2.669869365E-1,-1.777381650E0,2.202873885E0,2.843065407E0
1.409887504E1,1.569250886E-1,-1.770704130E0,2.128838780E0,2.773440670E0
1.410884204E1,-2.823404092E-1,-1.263028402E0,1.411117909E0,1.914735126E0
1.411880904E1,-9.485113496E-1,-3.796304762E-1,2.826087964E-1,1.060028684E0
1.412877604E1,-1.277127208E0,-3.621063709E-2,-5.230936664E-1,1.380576727E0
1.413874204E1,-1.506206207E0,-1.193726617E-1,-1.011807167E0,1.818422589E0
1.414870904E1,-1.696355906E0,-2.575026065E-1,-1.174822569E0,2.079456424E0
1.415867604E1,-1.857744613E0,-2.354843313E-1,-1.039820007E0,2.141936872E0
1.416864304E1,-1.917826508E0,1.070332825E-2,-7.337539360E-1,2.053428332E0
1.417861004E1,-1.838439738E0,1.130389577E-1,-4.535802126E-1,1.896937923E0
1.418857604E1,-1.695985777E0,2.432125962E-1,-2.201348054E-1,1.727419884E0
1.419854304E1,-1.480142536E0,3.883083290E-1,-8.088921189E-2,1.532366911E0
1.420851004E1,-1.145883237E0,4.635871375E-1,-5.478256345E-2,1.237320717E0
1.421847704E1,-8.700642273E-1,4.998381203E-1,-8.520460322E-2,1.007030154E0
1.422844404E1,-5.241546803E-1,5.737416637E-1,-2.291860029E-1,8.102122249E-1
1.423841104E1,-2.352972203E-1,5.255366331E-1,-5.262599337E-1,7.800660565E-1
1.424837658E1,5.521320174E-2,3.692996156E-1,-7.134358849E-1,8.052462142E-1
1.425834358E1,2.001753348E-1,3.362371194E-1,-9.543544722E-1,1.031464020E0
1.426831058E1,2.552862194E-1,2.194109201E-1,-1.055264550E0,1.107653139E0
1.427827758E1,2.757488430E-2,7.676341653E-2,-1.097842805E0,1.100868667E0
1.428824458E1,-2.919359824E-1,-1.030817342E-1,-1.245000266E0,1.282917817E0
1.429821058E1,-5.988127702E-1,-3.274458307E-1,-1.332886987E0,1.497459591E0
1.430817758E1,-9.513846713E-1,-4.921706665E-1,-1.346802630E0,1.720825988E0
1.431814458E1,-1.271293733E0,-4.880132961E-1,-1.211237859E0,1.822482341E0
1.432811158E1,-1.824989680E0,-4.174461740E-1,-1.079468515E0,2.161041627E0
1.433807858E1,-2.405910263E0,-2.836308897E-1,-9.229607713E-1,2.592432691E0
1.434804458E1,-3.037540823E0,-2.443346769E-1,-7.259528732E-1,3.132628491E0
1.435801158E1,-3.541187820E0,-4.014253879E-1,-4.816972800E-1,3.596273875E0
1.436797858E1,-3.711086857E0,-9.365695810E-1,-1.259735835E-1,3.829516625E0
1.437794558E1,-3.418459733E0,-1.539796414E0,3.817351815E-1,3.768628623E0
1.438791258E1,-2.802294766E0,-1.724453239E0,6.669611916E-1,3.357295364E0
1.439787858E1,-2.107404056E0,-1.815299674E0,3.554298739E-1,2.804067610E0
1.440784558E1,-1.460941741E0,-1.911681669E0,-3.909091705E-1,2.437557703E0
1.441781258E1,-8.769320744E-1,-1.807003060E0,-1.072453172E0,2.276933404E0
1.442777958E1,-6.726104790E-1,-1.638383979E0,-1.057534440E0,2.062785982E0
1.443774658E1,-3.515641335E-1,-2.076433986E0,-1.020223649E0,2.340092249E0
1.444771358E1,3.311447793E-1,-3.427359488E0,-7.205500460E-1,3.517903110E0
1.445767958E1,1.357366502E0,-4.980305121E0,-4.477321199E-1,5.181346058E0
1.446764658E1,2.861325624E0,-5.668741674E0,2.774249473E-1,6.356003547E0
1.447761358E1,3.824859348E0,-4.084579511E0,1.776034452E0,5.870914510E0
1.448758058E1,2.904045966E0,-1.526096973E0,2.650697222E0,4.217659387E0
1.449754758E1,4.991075107E-1,1.721578163E-1,2.625092264E0,2.677658682E0
1.450751358E1,-5.288932273E-1,1.172192491E0,1.766764276E0,2.185227514E0
1.451748058E1,-5.337028545E-1,1.649683723E0,5.214574693E-1,1.810583612E0
1.452744758E1,-9.952317721E-1,1.707765285E0,-9.166767687E-2,1.978724719E0
1.453741458E1,-8.113029259E-1,1.425082814E0,4.293801950E-1,1.695122655E0
1.454738158E1,3.700995147E-2,1.383176404E0,1.109284637E0,1.773431450E0
1.455734758E1,7.868601027E-1,1.456533233E0,1.567261225E0,2.279681036E0
1.456731458E1,1.527799682E0,1.730030898E0,1.845376290E0,2.955096010E0
1.457728158E1,1.952474476E0,2.214907748E0,1.658432619E0,3.386498437E0
1.458724858E1,2.351522094E0,2.380803781E0,1.135156520E0,3.533618984E0
1.459721558E1,2.575868064E0,2.238086110E0,2.871857044E-1,3.424412555E0
1.460718158E1,2.688035494E0,2.028112596E0,-5.549291244E-1,3.412729385E0
1.461714858E1,2.827697117E0,1.977880921E0,-9.532057866E-1,3.580011899E0
1.462711558E1,2.897052112E0,1.933083647E0,-1.038613142E0,3.634341837E0
1.463708258E1,2.844408752E0,1.710984762E0,-1.069207529E0,3.487310532E0
1.464704958E1,2.892421702E0,1.388527776E0,-9.095533982E-1,3.334876320E0
1.465701658E1,2.748160659E0,9.511461049E-1,-5.693118131E-1,2.963305900E0
1.466698258E1,2.476201981E0,4.611763304E-1,-4.324176773E-1,2.555630041E0
1.467694958E1,2.287651496E0,8.763397515E-2,-4.042881846E-1,2.324753324E0
1.468691658E1,2.054118965E0,-3.591827631E-2,-3.641914880E-1,2.086463583E0
1.469688358E1,2.073891032E0,3.997215092E-2,-3.385923779E-1,2.101729427E0
1.470685058E1,2.387000660E0,2.285407627E-1,-3.952843496E-1,2.430278327E0
1.471681658E1,2.562698380E0,4.713668579E-1,-5.001603019E-1,2.653256496E0
1.472678358E1,2.302212524E0,7.165786171E-1,-5.435367018E-1,2.471659274E0
1.473675058E1,1.896357578E0,8.203959310E-1,-4.582550615E-1,2.116416606E0
1.474671758E1,1.363850479E0,7.426852655E-1,-4.678380632E-1,1.621894567E0
1.475668458E1,9.196667424E-1,5.274282074E-1,-5.808448613E-1,1.208862351E0
1.476665158E1,6.139190519E-1,3.286257988E-1,-7.976166406E-1,1.058812459E0
1.477661758E1,4.834703019E-1,1.740107989E-1,-9.767212415E-1,1.103633850E0
1.478658458E1,4.345042562E-1,6.262251019E-2,-1.067570016E0,1.154305534E0
1.479655158E1,4.694988918E-1,-8.806491494E-3,-1.101613382E0,1.197521945E0
1.480651858E1,5.200390810E-1,-8.640313625E-2,-1.070823991E0,1.193553588E0
1.481648558E1,6.396143487E-1,-2.399013180E-1,-1.059968051E0,1.261027924E0
1.482645158E1,6.030938092E-1,-3.271283269E-1,-1.090353692E0,1.288257062E0
1.483641858E1,5.673499992E-1,-3.751959479E-1,-1.098141306E0,1.291732305E0
1.484638558E1,5.897860580E-1,-4.171122980E-1,-1.145114328E0,1.353926544E0
1.485635258E1,5.742895478E-1,-5.978368700E-1,-1.106987266E0,1.382981639E0
1.486631958E1,4.521537843E-1,-8.389362824E-1,-1.105455880E0,1.459551244E0
1.487628558E1,3.140443048E-1,-1.123865254E0,-1.188912604E0,1.665896190E0
1.488625258E1,2.318926790E-1,-1.403258082E0,-1.376375508E0,1.979221311E0
1.489621958E1,8.636132866E-2,-1.627826246E0,-1.610895048E0,2.291780841E0
1.490618658E1,-2.041020325E-1,-1.793591301E0,-1.878552514E0,2.605299780E0
1.491615358E1,-5.053807691E-1,-1.836368946E0,-2.148954956E0,2.871527125E0
1.492612058E1,-9.973295338E-1,-1.656567065E0,-2.561492392E0,3.209380612E0
1.493608658E1,-1.534497960E0,-1.257165983E0,-3.006720442E0,3.602154649E0
1.494605358E1,-1.688294350E0,-6.376850599E-1,-3.420980176E0,3.867826962E0
1.495602058E1,-1.831415478E0,-3.462434596E-1,-3.766895899E0,4.202793345E0
1.496598758E1,-1.906818247E0,-1.829009056E-1,-4.126046795E0,4.549029646E0
1.497595458E1,-1.824952550E0,-5.196245134E-2,-4.435403971E0,4.796452887E0
1.498592058E1,-1.596686753E0,-2.290518093E-1,-4.418359338E0,4.703591453E0
1.499588758E1,-1.243540509E0,-6.605359787E-1,-4.163744963E0,4.395392235E0
1.500585458E1,-7.028233346E-1,-1.103252649E0,-3.805822275E0,4.024352151E0
1.501582158E1,-2.099553877E-1,-1.240666895E0,-3.357846619E0,3.585870818E0
1.502578858E1,-2.583954763E-1,-9.531242180E-1,-2.663490345E0,2.840668023E0
1.503575558E1,-2.089096863E-1,-1.985164797E-1,-2.010755429E0,2.031302401E0
1.504572158E1,-3.960248995E-1,6.063118243E-1,-1.487236962E0,1.654183645E0
1.505568858E1,-8.612455297E-1,1.301022440E0,-6.584131470E-1,1.693490810E0
1.506565558E1,-1.549619444E0,1.531469395E0,2.259045455E-1,2.190377089E0
1.507562258E1,-1.932582249E0,1.632266622E0,1.153405387E0,2.780200076E0
1.508558958E1,-1.303004938E0,1.676417778E0,2.293078296E0,3.125125039E0
1.509555558E1,5.540704608E-2,1.792287372E0,3.597382486E0,4.019517971E0
1.510552258E1,1.600956536E0,1.724218765E0,4.285434292E0,4.888858686E0
1.511548958E1,2.748813500E0,1.442498161E0,4.251752868E0,5.264425805E0
1.512545658E1,3.169688189E0,9.204821366E-1,4.072974249E0,5.242454560E0
1.513542358E1,2.711725489E0,3.542827964E-1,3.862068397E0,4.732287367E0
1.514539058E1,1.612741891E0,-4.323665142E-2,3.486695863E0,3.841855523E0
1.515535658E1,5.311458671E-1,-3.823108399E-1,3.024542463E0,3.094533021E0
1.516532358E1,-2.605519295E-1,-7.785152489E-1,2.470070883E0,2.602925944E0
1.517529058E1,-1.071198140E0,-7.503696764E-1,1.619703586E0,2.081816470E0
1.518525758E1,-1.297246600E0,-1.460753753E0,1.286780230E0,2.339327602E0
1.519522458E1,-1.774476753E0,-3.024438382E0,1.206520325E0,3.708326654E0
1.520519058E1,-1.995913149E0,-4.264243982E0,1.298996379E0,4.884141443E0
1.521515758E1,-2.214434708E0,-4.636916857E0,1.697801045E0,5.411769341E0
1.522512458E1,-2.569499569E0,-3.535407262E0,2.194391622E0,4.890479234E0
1.523509158E1,-2.893666574E0,-1.729121656E0,2.617508426E0,4.267847033E0
1.524505929E1,-2.863866824E0,7.338431060E-2,2.421329663E0,3.750993972E0
1.525502629E1,-2.515018137E0,1.636521640E0,1.788497061E0,3.493170630E0
1.526499229E1,-2.235770028E0,2.682731777E0,1.050051758E0,3.646687004E0
1.527495929E1,-1.820775592E0,2.717873544E0,4.792810643E-1,3.306322835E0
1.528492629E1,-1.374926860E0,2.024896043E0,3.748796135E-3,2.447578785E0
1.529489329E1,-9.614348656E-1,1.235634781E0,-4.276742698E-1,1.622977386E0
1.530486029E1,-5.414717576E-1,4.641671813E-1,-6.083770609E-1,9.374249221E-1
1.531482629E1,-3.171570700E-1,-1.965658486E-1,-5.823860411E-1,6.916648327E-1
1.532479329E1,-2.650323585E-1,-5.532752395E-1,-4.080947220E-1,7.368154069E-1
1.533476029E1,-3.538188198E-1,-7.614653528E-1,-1.069515677E-1,8.464371675E-1
1.534472729E1,-4.615610772E-1,-7.219136167E-1,1.888615572E-1,8.774204156E-1
1.535469429E1,-6.325126129E-1,-4.741127104E-1,2.350603350E-1,8.246868671E-1
1.536466129E1,-9.305390552E-1,-1.778921807E-1,2.361800037E-1,9.763859664E-1
1.537462729E1,-1.067629365E0,1.971043772E-1,-7.641631119E-2,1.088357501E0
1.538459429E1,-1.247078075E0,6.006148821E-1,-4.218792406E-1,1.447039756E0
1.539456129E1,-1.336084099E0,1.002078862E0,-7.631937897E-1,1.836231882E0
1.540452829E1,-1.529447135E0,1.236038239E0,-1.063016204E0,2.235397620E0
1.541449529E1,-1.771670967E0,1.383445376E0,-1.436181268E0,2.667462419E0
1.542446129E1,-2.052811235E0,1.342111993E0,-1.840230009E0,3.066226518E0
1.543442829E1,-2.482912246E0,1.030415053E0,-2.014260689E0,3.359144910E0
1.544439529E1,-2.895668953E0,4.281173426E-1,-1.983540587E0,3.535903902E0
1.545436229E1,-3.166193601E0,-3.089025557E-1,-1.792904985E0,3.651672355E0
1.546432929E1,-3.351312063E0,-1.089362589E0,-1.276559736E0,3.748013894E0
1.547429629E1,-3.185531512E0,-2.005376283E0,-4.555590566E-1,3.791659150E0
1.548426229E1,-2.800997561E0,-2.380739461E0,2.642472236E-1,3.685557531E0
1.549422929E1,-2.162583354E0,-2.313933268E0,3.515204255E-1,3.186631535E0
1.550419629E1,-1.367295951E0,-2.009513773E0,-2.604924341E-1,2.444483612E0
1.551416329E1,-9.250058350E-1,-1.466400994E0,-9.071615946E-1,1.956760034E0
1.552413029E1,-6.859894931E-1,-9.755330873E-1,-1.435934077E0,1.866588616E0
1.553409629E1,-4.024542055E-1,-1.013421291E0,-1.936392148E0,2.222297606E0
1.554406329E1,-7.450112879E-2,-1.410505121E0,-2.351606294E0,2.743196543E0
1.555403029E1,3.440136239E-1,-1.649665596E0,-1.995579858E0,2.611911354E0
1.556399729E1,1.063605311E0,-2.010542883E0,-7.832801449E-1,2.405632292E0
1.557396429E1,2.248145660E0,-3.004157315E0,1.217848721E0,3.944905016E0
1.558393129E1,3.537999626E0,-4.673509902E0,3.886775222E0,7.033218166E0
1.559389729E1,4.727800714E0,-6.355373776E0,5.700078657E0,9.758779233E0
1.560386429E1,5.798154005E0,-6.303961548E0,6.297687485E0,1.063105774E1
1.561383129E1,5.670751947E0,-3.518610551E0,5.589202584E0,8.705011969E0
1.562379829E1,4.594266389E0,-4.141401583E-1,3.895902725E0,6.037951123E0
1.563376529E1,3.765232074E0,1.932590142E0,1.652758774E0,4.543510624E0
1.564373129E1,2.995259899E0,3.592563795E0,-2.921355186E-1,4.686516793E0
1.565369829E1,2.427471870E0,4.766636751E0,-1.293678483E0,5.503367116E0
1.566366529E1,2.236062974E0,5.688537422E0,-1.572656889E0,6.311314072E0
1.567363229E1,2.070808965E0,6.033716104E0,-1.543263813E0,6.563203714E0
1.568359929E1,2.028965997E0,5.436232991E0,-1.187710125E0,5.922836102E0
1.569356529E1,2.203000478E0,4.551922899E0,-6.798946479E-1,5.102496440E0
1.570353229E1,2.182238769E0,3.198790659E0,1.475427926E-1,3.875073754E0
1.571349929E1,2.245508858E0,1.781387578E0,1.095820838E0,3.068627551E0
1.572346629E1,2.456015346E0,2.483020127E-1,1.868125759E0,3.095732405E0
1.573343329E1,2.759692537E0,-1.183223848E0,2.041977514E0,3.631197288E0
1.574340029E1,3.177970770E0,-1.926987340E0,1.605729326E0,4.048597917E0
1.575336629E1,3.299917669E0,-1.747894142E0,9.196278584E-1,3.845816682E0
1.576333329E1,2.766074189E0,-9.435757148E-1,-3.915295601E-3,2.922587360E0
1.577330029E1,2.208877806E0,9.357299209E-3,-8.153986081E-1,2.354592027E0
1.578326729E1,1.737953290E0,7.532739884E-1,-1.368499016E0,2.336812551E0
1.579323429E1,1.570435532E0,1.285828450E0,-1.483369614E0,2.513962604E0
1.580320029E1,1.429252464E0,1.570158666E0,-1.192991037E0,2.435444201E0
1.581316729E1,1.381000363E0,1.481392670E0,-6.585274601E-1,2.129634866E0
1.582313429E1,1.263614293E0,1.092709535E0,-2.326121789E-1,1.686666426E0
1.583310129E1,1.094546145E0,4.772093958E-1,2.118066162E-2,1.194239797E0
1.584306829E1,8.111266324E-1,-1.108655477E-1,9.896997213E-3,8.187279976E-1
1.585303529E1,4.424538383E-1,-5.931883335E-1,-2.479511797E-1,7.804598552E-1
1.586300129E1,-2.066786994E-2,-1.069500182E0,-5.063428554E-1,1.183486750E0
1.587296829E1,-3.123024192E-1,-1.203765702E0,-6.273001125E-1,1.392871170E0
1.588293529E1,-3.577458099E-1,-9.204914922E-1,-7.034916714E-1,1.212512756E0
1.589290229E1,-2.789303313E-1,-7.244168097E-1,-7.017883775E-1,1.046464892E0
1.590286929E1,-5.593355130E-2,-4.423874724E-1,-7.576503369E-1,8.791298374E-1
1.591283629E1,1.355840306E-1,-1.192364216E-1,-9.473223183E-1,9.643754084E-1
1.592280229E1,2.764589508E-1,1.946766132E-1,-1.178782596E0,1.226318451E0
1.593276929E1,3.361482052E-1,3.813173980E-1,-1.355887741E0,1.448043556E0
1.594273629E1,4.712223586E-1,4.772953498E-1,-1.585546491E0,1.721574581E0
1.595270329E1,4.780920330E-1,5.272773492E-1,-1.717700289E0,1.859324522E0
1.596267029E1,5.804533536E-1,5.208267009E-1,-1.716285556E0,1.885158523E0
1.597263629E1,5.467757669E-1,4.232963133E-1,-1.620416654E0,1.761787059E0
1.598260329E1,2.959971295E-1,1.572380608E-1,-1.800041073E0,1.830979512E0
1.599257029E1,1.312600511E-1,-1.382609224E-1,-1.954780326E0,1.964054838E0
1.600253729E1,-3.270523131E-2,-5.804530978E-1,-2.127338676E0,2.205349241E0
1.601250429E1,-4.016068708E-1,-1.040868706E0,-2.247510360E0,2.509182847E0
1.602247129E1,-6.985577177E-1,-1.394505969E0,-2.413688229E0,2.873764195E0
1.603243729E1,-1.057158756E0,-1.620614875E0,-2.654210229E0,3.284632270E0
1.604240429E1,-1.604548773E0,-1.428475953E0,-3.166906669E0,3.826802603E0
1.605237129E1,-2.341081598E0,-1.081717354E0,-3.579948428E0,4.412120378E0
1.606233829E1,-2.856210187E0,-1.035782797E0,-3.633333507E0,4.736232153E0
1.607230529E1,-3.040798015E0,-1.390126405E0,-3.302289884E0,4.699364049E0
1.608227129E1,-2.992385116E0,-1.571777760E0,-2.924443686E0,4.469588894E0
1.609223829E1,-2.644862870E0,-1.469320509E0,-2.593470230E0,3.985008180E0
1.610220529E1,-2.149492315E0,-1.096102674E0,-2.387409380E0,3.394330837E0
1.611217229E1,-1.889659885E0,-8.431164569E-1,-2.081330737E0,2.934893095E0
1.612213929E1,-1.205008893E0,-4.966414475E-1,-1.782573685E0,2.208227367E0
1.613210629E1,-3.827946970E-1,-1.503553033E-2,-1.619196925E0,1.663897993E0
1.614207229E1,-5.734978348E-2,3.707134724E-1,-9.389382881E-1,1.011099691E0
1.615203929E1,2.582018604E-1,5.007432693E-1,-6.083706290E-2,5.666684840E-1
1.616200629E1,4.674617949E-1,5.666361272E-1,5.358435202E-1,9.092443613E-1
1.617197329E1,4.988943066E-1,6.031373709E-1,1.163878628E0,1.402598901E0
1.618194029E1,9.224721634E-1,9.122837555E-1,1.839012765E0,2.250596475E0
1.619190629E1,1.542797498E0,1.611392646E0,2.664380291E0,3.475015499E0
1.620187329E1,2.186381521E0,2.259440727E0,3.356170515E0,4.598827794E0
1.621184029E1,2.651888592E0,2.818529268E0,3.555954671E0,5.255609761E0
1.622180729E1,2.734767904E0,3.208008209E0,3.703344266E0,5.611152369E0
1.623177429E1,2.390183299E0,2.922790385E0,3.883380036E0,5.416301353E0
1.624174129E1,1.732224188E0,2.068154329E0,3.957374796E0,4.789434021E0
1.625170642E1,8.752074382E-1,1.381014104E0,3.745014156E0,4.086357675E0
1.626167342E1,7.948149472E-2,7.873252487E-1,3.217385974E0,3.313271927E0
1.627164042E1,-8.392766634E-1,-2.996405661E-2,2.476525040E0,2.615044825E0
1.628160742E1,-1.637394630E0,-1.010551477E0,1.527744133E0,2.456883717E0
1.629157442E1,-2.085919632E0,-2.607133711E0,9.265590017E-1,3.465071209E0
1.630154142E1,-2.638097349E0,-4.210024506E0,6.970746446E-1,5.016948976E0
1.631150742E1,-3.043331321E0,-4.711853603E0,8.060971498E-1,5.666852964E0
1.632147442E1,-3.473498697E0,-4.340102835E0,1.138126467E0,5.674241594E0
1.633144142E1,-3.735911503E0,-3.078140380E0,1.597760886E0,5.097531050E0
1.634140842E1,-3.192983496E0,-1.541006788E0,2.164244840E0,4.153769524E0
