"Time (s)","Linear Acceleration x (m/s^2)","Linear Acceleration y (m/s^2)","Linear Acceleration z (m/s^2)","Absolute acceleration (m/s^2)"
5.690832622E-4,-9.399079026E-1,7.895746726E-1,1.468017164E0,1.913616844E0
1.053608337E-2,-1.014458294E0,3.219962257E-1,1.163453243E0,1.576841986E0
2.050308336E-2,-9.974750564E-1,-1.696593010E-1,4.927413547E-1,1.125404287E0
3.047008335E-2,-6.474977110E-1,-5.827726883E-1,7.589097541E-2,8.744350932E-1
4.043608333E-2,-4.034200193E-1,-7.538388294E-1,-2.319002073E-2,8.553119137E-1
5.040308333E-2,-3.553791493E-3,-7.910054862E-1,3.449274341E-2,7.917651533E-1
6.037008332E-2,5.932492907E-1,-6.563827014E-1,1.891656125E-1,9.047467052E-1
7.033708331E-2,1.153216961E0,-3.440881759E-1,3.417007577E-1,1.251025755E0
8.030308329E-2,1.489008815E0,2.439633787E-1,3.346653879E-1,1.545531075E0
9.027008328E-2,1.782848212E0,6.191476321E-1,1.250315970E-1,1.891434492E0
1.002370833E-1,1.982122199E0,8.686629421E-1,-3.002995473E-1,2.184848630E0
1.102040833E-1,1.835261191E0,1.011634381E0,-7.493785733E-1,2.225568693E0
1.201710834E-1,1.732192613E0,7.377496308E-1,-1.025808032E0,2.144072734E0
1.301370834E-1,1.520371087E0,2.883232802E-1,-1.242524555E0,1.984571950E0
1.401040833E-1,1.018979654E0,2.119317466E-1,-1.371721124E0,1.721874979E0
1.500710833E-1,5.537807313E-1,4.966414475E-1,-1.462916054E0,1.641173119E0
1.600380833E-1,2.508670400E-1,7.318392652E-1,-1.489923758E0,1.678807847E0
1.700040833E-1,1.694492398E-1,7.633224285E-1,-1.408529493E0,1.611002640E0
1.799710833E-1,2.383541447E-1,6.421716285E-1,-1.177587790E0,1.362317915E0
1.899380833E-1,4.505591024E-1,4.701909828E-1,-1.026928432E0,1.216003729E0
1.999050833E-1,7.618522923E-1,2.563325787E-1,-9.873720179E-1,1.273196296E0
2.098710833E-1,1.363117531E0,-2.977601016E-1,-1.213536472E0,1.849167718E0
2.198380834E-1,1.898761515E0,-1.164380611E0,-1.844394250E0,2.891862315E0
2.298050834E-1,2.359464952E0,-1.288911687E0,-2.784513676E0,3.870643952E0
2.397720834E-1,2.775218649E0,-1.004227713E0,-3.193162714E0,4.348172026E0
2.497390833E-1,3.027169032E0,-7.983291239E-1,-2.744064977E0,4.163048683E0
2.597050833E-1,3.121186413E0,-6.759392989E-1,-2.138834302E0,3.843606475E0
2.696720833E-1,3.112350100E0,-7.183561707E-1,-1.781360096E0,3.657321769E0
2.796390833E-1,3.192620092E0,-8.361196786E-1,-1.796061750E0,3.757360374E0
2.896060833E-1,3.152714599E0,-1.053693404E0,-2.125542412E0,3.945606376E0
2.995720833E-1,3.398802271E0,-1.366705967E0,-2.354624627E0,4.354767412E0
3.095390833E-1,3.534645078E0,-2.024700746E0,-1.947664849E0,4.515144217E0
3.195060833E-1,2.961363882E0,-3.184065031E0,-6.963226926E-1,4.403726996E0
3.294730834E-1,2.468485703E0,-4.294923738E0,5.127563739E-1,4.980231991E0
3.394400834E-1,2.208129655E0,-4.773148211E0,1.256684757E0,5.407220820E0
3.494060833E-1,9.170724790E-1,-4.596336595E0,1.833047143E0,5.032632895E0
3.593730833E-1,-8.759493037E-1,-3.739617761E0,2.474901853E0,4.569153900E0
3.693400833E-1,-2.430849076E0,-2.372855660E0,2.923478603E0,4.481762863E0
3.793070833E-1,-3.355246362E0,-1.049180523E0,3.036719874E0,4.645441369E0
3.892730833E-1,-3.670324162E0,1.269284338E-1,2.513236783E0,4.450140381E0
3.992400833E-1,-3.698472366E0,9.815744305E-1,1.704364545E0,4.188919277E0
4.092070833E-1,-3.888646623E0,1.618574197E0,1.119229508E0,4.358214047E0
4.191740833E-1,-3.818784968E0,2.108427027E0,7.046345097E-1,4.418720737E0
4.291395834E-1,-3.645110968E0,2.489098307E0,4.958439239E-1,4.441655722E0
4.391065834E-1,-3.577426816E0,2.777230968E0,5.977292812E-1,4.568180685E0
4.490735834E-1,-3.692240111E0,3.057607298E0,7.762354195E-1,4.856350569E0
4.590405833E-1,-3.698797179E0,2.840131806E0,1.043833829E0,4.778811391E0
4.690075833E-1,-2.918426024E0,1.419926739E0,1.295700304E0,3.494601791E0
4.789735833E-1,-2.049239171E0,-2.093753439E-1,1.566236354E0,2.587724006E0
4.889405833E-1,-1.603593338E0,-7.457614857E-1,1.806920614E0,2.528365854E0
4.989075833E-1,-1.197280555E0,-4.923162621E-1,1.956136880E0,2.345704057E0
5.088745833E-1,-1.095057850E0,-3.072080326E-1,1.913055764E0,2.225603475E0
5.188405833E-1,-9.186007950E-1,-5.587014556E-3,1.475080601E0,1.737734564E0
5.288075833E-1,-6.577053416E-1,2.431120241E-1,8.005329394E-1,1.064205224E0
5.387745834E-1,-4.730973048E-1,7.081855237E-2,1.466072563E-1,5.003299060E-1
5.487415834E-1,-1.476647801E-1,-5.994390070E-2,-5.955154888E-1,6.164712937E-1
5.587075833E-1,6.870383374E-2,-5.928258061E-2,-1.245405478E0,1.248707110E0
5.686745833E-1,1.895650869E-1,1.367616963E-1,-1.640251579E0,1.656823445E0
5.786415833E-1,1.245328295E-1,3.358225518E-1,-1.623832598E0,1.662864251E0
5.886085833E-1,1.271884887E-1,6.482854772E-1,-1.255556245E0,1.418757363E0
5.985755833E-1,9.308186252E-2,6.536701781E-1,-9.996411574E-1,1.198011427E0
6.085415833E-1,7.176437605E-2,6.668790382E-1,-8.805779596E-1,1.106930585E0
6.185085833E-1,-1.408261325E-1,8.002306384E-1,-9.773246741E-1,1.270969942E0
6.284755833E-1,-2.101368707E-1,9.732316232E-1,-1.017628362E0,1.423694061E0
6.384425833E-1,1.557325490E-2,1.196169584E0,-1.011568308E0,1.566631623E0
6.484085834E-1,4.124081399E-2,1.256098282E0,-8.334867505E-1,1.508039741E0
6.583755834E-1,7.484516434E-2,1.460049748E0,-5.896004820E-1,1.576380600E0
6.683425833E-1,1.669990006E-1,1.750393242E0,-3.842332948E-1,1.799833434E0
6.783095833E-1,2.860043476E-1,1.743057910E0,-2.634263476E-1,1.785901118E0
6.882765833E-1,4.113129199E-1,1.704045287E0,-4.490077630E-1,1.809573604E0
6.982425833E-1,3.924957759E-1,1.441007121E0,-9.080469362E-1,1.747885493E0
7.082095833E-1,2.859868425E-1,8.894117868E-1,-1.549968231E0,1.809763332E0
7.181765833E-1,9.328914631E-2,3.923288745E-1,-2.007202953E0,2.047312508E0
7.281435833E-1,-5.818622768E-2,-4.227186084E-2,-2.602747715E0,2.603741195E0
7.381095833E-1,-2.473912723E-1,-3.370311713E-1,-2.368497877E0,2.405114268E0
7.480765834E-1,-5.434189900E-1,-5.315434778E-1,-1.706000011E0,1.867693418E0
7.580435834E-1,-5.962659058E-1,-8.128214478E-1,-8.094147138E-1,1.292812405E0
7.680105834E-1,-6.874032037E-1,-1.155005186E0,-3.904665363E-1,1.399651478E0
7.779775833E-1,-6.079043135E-2,-1.430373375E0,-5.545557066E-1,1.535316091E0
7.879435833E-1,5.666997888E-1,-1.606552321E0,-1.345922624E0,2.171098045E0
7.979105833E-1,1.152689542E0,-1.691775489E0,-2.381968546E0,3.140791563E0
8.078775833E-1,1.489047845E0,-1.748325081E0,-3.331052338E0,4.045962648E0
8.178445833E-1,1.557565226E0,-1.430397348E0,-3.924993793E0,4.458432716E0
8.278105833E-1,1.080781800E0,-7.111757898E-1,-3.790815396E0,4.005513908E0
8.377775833E-1,1.437124278E-1,-4.626433969E-1,-3.748348238E0,3.779524665E0
8.477445833E-1,-1.032012805E0,-1.812502366E0,-2.330683787E0,3.127667209E0
8.577115834E-1,-1.010355157E0,-3.313009585E0,-1.519795136E-1,3.466979640E0
8.676775834E-1,-7.710347597E-1,-3.847571980E0,9.439863355E-1,4.036014735E0
8.776445834E-1,-1.198923330E0,-3.052206225E0,2.154405438E0,3.923626228E0
8.876115833E-1,-1.889102061E0,-2.096826151E0,2.869392443E0,4.024773223E0
8.975785833E-1,-2.343359381E0,-1.724212918E0,2.713982806E0,3.978686473E0
9.075455833E-1,-2.542363518E0,-1.406437798E0,1.753412598E0,3.393543174E0
9.175115833E-1,-1.884772929E0,-2.454497409E-1,1.669148665E0,2.529559613E0
9.274785833E-1,-8.846525187E-1,1.505821753E0,2.647559606E0,3.171700032E0
9.374455833E-1,1.018248021E-1,2.997643517E0,3.971745790E0,4.977047274E0
9.474125833E-1,7.759829660E-1,3.654554222E0,4.710908693E0,6.012534976E0
9.573785833E-1,9.160899275E-1,3.569504716E0,4.831467755E0,6.076484620E0
9.673455834E-1,9.027890468E-1,3.023315717E0,4.854834398E0,5.790067618E0
9.773125834E-1,7.076510882E-1,2.270284388E0,4.888810229E0,5.436490295E0
9.872795834E-1,3.112744056E-1,1.467734744E0,4.914892319E0,5.138803708E0
9.972465833E-1,-1.252140301E-1,5.765477425E-1,4.472117761E0,4.510867225E0
1.007212583E0,-4.588135437E-1,-2.247763252E-1,3.607982611E0,3.643977605E0
1.017179583E0,-6.897285683E-1,-7.723107684E-1,2.731184145E0,2.920882787E0
1.027146583E0,-8.680829713E-1,-8.752322888E-1,1.765468679E0,2.153248537E0
1.037113583E0,-1.209316463E0,-4.111639255E-1,1.118071833E0,1.697523698E0
1.047079583E0,-1.469293612E0,1.790604544E-1,1.268559283E0,1.949391961E0
1.057046583E0,-1.636351194E0,5.614870691E-1,1.454266852E0,2.260045362E0
1.067013583E0,-1.337028717E0,8.061877817E-1,1.353006964E0,2.065965240E0
1.076980583E0,-1.050695828E0,8.240054172E-1,1.090078726E0,1.723722217E0
1.086947583E0,-8.491366039E-1,6.008154416E-1,8.573164201E-1,1.347962763E0
1.096913583E0,-6.008669702E-1,3.702521271E-1,6.333624326E-1,9.483014945E-1
1.106880583E0,-4.848221051E-1,7.023324609E-2,3.803626207E-1,6.202103721E-1
1.116847583E0,-2.880464876E-1,-1.297380209E-1,2.175925092E-1,3.836003560E-1
1.126814583E0,-2.035819227E-1,-2.916415751E-1,-6.001465201E-2,3.606967785E-1
1.136780583E0,-2.297861465E-1,-4.971103942E-1,-8.004947864E-2,5.534693634E-1
1.146747583E0,9.148495138E-2,-4.594999337E-1,-1.694311865E-1,4.982134205E-1
1.156714583E0,3.093201200E-1,-2.805529153E-1,-2.383512942E-1,4.808328341E-1
1.166681583E0,3.288186108E-1,-7.843922853E-2,-2.619938529E-1,4.276858313E-1
1.176648583E0,7.464464870E-1,2.501029551E-2,-3.705018762E-1,8.337142875E-1
1.186614583E0,1.448318772E0,7.460520923E-2,-2.176181638E-1,1.466475662E0
1.196581583E0,1.420966374E0,2.083386326E-1,-1.566165018E-1,1.444672680E0
1.206548583E0,1.682170268E0,1.760783744E-1,-4.320120998E-1,1.745661726E0
1.216515583E0,2.006510643E0,2.265749288E-1,-7.968923899E-1,2.170819808E0
1.226481583E0,2.033194996E0,2.475290108E-1,-1.077147170E0,2.314173401E0
1.236448583E0,1.909589243E0,3.140217930E-1,-1.232370865E0,2.294314432E0
1.246415583E0,1.772182014E0,2.995739079E-1,-1.390505304E0,2.272416911E0
1.256382583E0,1.611160658E0,5.706239283E-1,-1.556618854E0,2.311820190E0
1.266348583E0,1.385098969E0,6.416658443E-1,-1.662438254E0,2.256974780E0
1.276315583E0,1.334584142E0,6.467529219E-1,-1.478135186E0,2.093869099E0
1.286282583E0,1.346779533E0,4.691536868E-1,-1.115550513E0,1.810627858E0
1.296249583E0,1.375720181E0,3.268078995E-1,-9.563893032E-1,1.707070566E0
1.306216583E0,1.487126742E0,1.495331848E-1,-1.026742417E0,1.813313573E0
1.316182583E0,1.458632237E0,-2.809470177E-2,-1.322158370E0,1.968882950E0
1.326149583E0,1.283941699E0,6.752949357E-2,-1.449718303E0,1.937717647E0
1.336116583E0,1.202449932E0,-4.048027396E-2,-1.637473567E0,2.031955751E0
1.346083583E0,1.276370286E0,-3.941233850E-1,-1.787007337E0,2.231109493E0
1.356049583E0,1.677108334E0,-8.517545485E-1,-1.559687473E0,2.443522700E0
1.366016583E0,2.211795275E0,-1.258027278E0,-1.319292065E0,2.866217459E0
1.375983583E0,2.750867627E0,-1.517718498E0,-1.209198350E0,3.366437700E0
1.385950583E0,2.799118851E0,-1.381906974E0,-1.402974492E0,3.422436362E0
1.395917583E0,2.611162443E0,-1.289726204E0,-1.930396267E0,3.493993808E0
1.405883583E0,2.351705843E0,-1.114924276E0,-2.093107907E0,3.339861857E0
1.415850583E0,2.148045860E0,-1.179805566E0,-1.319518352E0,2.783374008E0
1.425817917E0,1.776868703E0,-1.268670380E0,-2.575043241E-1,2.198430212E0
1.435784917E0,1.030053549E0,-1.217903684E0,2.468642189E-1,1.614076095E0
1.445750917E0,2.510735929E-1,-1.326734986E0,4.341861677E-1,1.418372765E0
1.455717917E0,-1.660223329E-1,-1.580685409E0,5.931193364E-1,1.696443434E0
1.465684917E0,-1.778087848E-1,-1.904382589E0,9.485411704E-1,2.134951841E0
1.475651917E0,1.023570449E-1,-2.183491243E0,1.469179591E0,2.633742516E0
1.485618917E0,3.840301406E-1,-2.305257754E0,1.923699451E0,3.026931126E0
1.495584917E0,-9.703454375E-4,-1.712556494E0,2.524673937E0,3.050709618E0
1.505551917E0,-9.372260041E-1,-5.128867668E-1,3.182216141E0,3.356775981E0
1.515518917E0,-1.776059302E0,5.446149284E-1,3.640179427E0,4.086795606E0
1.525485917E0,-2.421681665E0,1.414502862E0,3.693811258E0,4.637844547E0
1.535451917E0,-2.899799718E0,2.100362547E0,3.295505944E0,4.866284072E0
1.545418917E0,-2.913652942E0,2.167361113E0,2.784427722E0,4.576009768E0
1.555385917E0,-2.901748011E0,2.298866163E0,2.256465079E0,4.335500179E0
1.565352917E0,-2.662399839E0,2.238142828E0,1.781433771E0,3.907833479E0
1.575318917E0,-2.288710134E0,2.056218408E0,1.582491614E0,3.459842182E0
1.585285917E0,-1.685415473E0,1.727336501E0,1.537237673E0,2.861366171E0
1.595252917E0,-7.324693758E-1,1.311933344E0,1.687010593E0,2.259133734E0
1.605219917E0,1.049392484E-2,1.148031211E0,1.987331775E0,2.295119468E0
1.615186917E0,4.576832038E-1,5.801250690E-1,2.331152734E0,2.445463571E0
1.625152917E0,7.843379793E-1,2.379173577E-2,2.633816310E0,2.748224967E0
1.635119917E0,7.198274763E-1,-5.431870383E-1,2.779547635E0,2.922171934E0
1.645086917E0,3.786454397E-1,-1.416622478E0,2.405537503E0,2.817233091E0
1.655053917E0,-2.660504318E-1,-2.284653921E0,1.429289886E0,2.708005899E0
1.665019917E0,-3.975719997E-1,-2.861553665E0,8.183763027E-2,2.890199002E0
1.674986917E0,5.031349267E-1,-2.860683015E0,-1.924264877E0,3.484170975E0
1.684953917E0,6.795794830E-1,-2.707443280E0,-3.616199995E0,4.568257851E0
1.694920917E0,9.603439944E-1,-2.069592159E0,-2.710700179E0,3.543073208E0
1.704886917E0,1.154681835E0,-1.135028173E0,-9.095952058E-1,1.857132879E0
1.714853917E0,9.402759118E-1,-2.056179231E-1,7.994894307E-2,9.658102060E-1
1.724820917E0,4.961084738E-1,6.311683381E-1,4.495269592E-1,9.200932430E-1
1.734787917E0,1.052100476E-1,1.198478065E0,7.232409346E-1,1.403743664E0
1.744754917E0,-2.293440239E-1,1.428722121E0,9.826105571E-1,1.749105225E0
1.754720917E0,-2.932192270E-1,1.499259422E0,9.328403000E-1,1.789957362E0
1.764687917E0,-3.956810832E-2,1.567729148E0,6.144885707E-1,1.684320789E0
1.774654917E0,4.237281302E-1,1.465849602E0,1.325552094E-1,1.531610742E0
1.784621917E0,8.861664359E-1,1.219682407E0,-2.833747451E-1,1.534020004E0
1.794587917E0,1.300523087E0,1.084583074E0,-4.924185519E-1,1.763563658E0
1.804554917E0,1.651576320E0,1.048416876E0,-5.753122258E-1,2.039084708E0
1.814521917E0,1.935932849E0,1.034806312E0,-6.474200892E-1,2.288626853E0
1.824488917E0,2.019845510E0,8.637132740E-1,-7.831363034E-1,2.332183307E0
1.834455917E0,1.843911855E0,4.704014826E-1,-7.224538263E-1,2.035492081E0
1.844421917E0,1.444546733E0,9.472489357E-3,-4.563447031E-1,1.514944052E0
1.854388917E0,9.351786015E-1,-3.785358775E-1,-4.287950349E-1,1.096226988E0
1.864355917E0,6.344174896E-1,-7.245548040E-1,-5.686124496E-1,1.118385145E0
1.874322917E0,6.455295382E-1,-9.338833702E-1,-4.453484659E-1,1.219500631E0
1.884289917E0,6.611272784E-1,-8.186481982E-1,-1.521795980E-1,1.063218125E0
1.894255917E0,4.108258103E-1,-3.703971380E-1,1.088657634E-1,5.637584950E-1
1.904222917E0,-1.479725629E-2,2.857206845E-1,5.519596159E-1,6.217030529E-1
1.914189917E0,-1.197862060E-1,4.157832259E-1,9.985021198E-1,1.088223740E0
1.924156917E0,1.210740553E-1,-1.111076224E-1,1.112654972E0,1.124724374E0
1.934122917E0,1.707595278E-1,-8.004715437E-1,1.358621607E0,1.586116698E0
1.944089917E0,8.976652779E-2,-1.478852640E0,1.766626282E0,2.305652094E0
1.954056917E0,7.139596492E-2,-2.075117193E0,2.012479481E0,2.891588216E0
1.964023917E0,1.627107623E-1,-2.544835721E0,2.078738959E0,3.289957340E0
1.973990917E0,3.124754968E-1,-2.681276990E0,2.252984231E0,3.516080940E0
1.983956917E0,4.861478151E-1,-2.474166858E0,2.441692007E0,3.509943189E0
1.993923917E0,7.158987321E-1,-2.040198791E0,2.660007159E0,3.427909011E0
2.003890917E0,8.682349259E-1,-1.537448173E0,3.193003669E0,3.648678008E0
2.013857917E0,9.049209416E-1,-1.005600640E0,3.802149054E0,4.035647654E0
2.023823917E0,1.036571587E0,-5.234789979E-1,4.221324835E0,4.378138220E0
2.033790917E0,1.257979623E0,-1.552482533E-1,4.448897883E0,4.625938513E0
2.043757917E0,1.510376734E0,4.847809553E-2,4.449322976E0,4.698942748E0
2.053724917E0,1.799621096E0,3.107818508E-1,4.193181016E0,4.573618752E0
2.063691917E0,1.879444069E0,7.527430612E-1,3.862909226E0,4.361307122E0
2.073657917E0,1.839601287E0,9.551847768E-1,3.495823367E0,4.064147126E0
2.083624917E0,1.711577962E0,9.468671125E-1,3.034226621E0,3.610067540E0
2.093591917E0,1.473074860E0,8.889358234E-1,2.501885583E0,3.036377433E0
2.103558917E0,1.346579997E0,1.046227679E0,1.920073593E0,2.567986107E0
2.113524917E0,1.271884156E0,1.243281770E0,1.458849900E0,2.300365600E0
2.123491917E0,1.258626325E0,1.224886429E0,1.255417081E0,2.158832796E0
2.133458917E0,1.385794495E0,9.231490517E-1,1.294529691E0,2.109131972E0
2.143425917E0,1.550260007E0,7.905283535E-1,1.402021980E0,2.234705081E0
2.153392917E0,1.760603503E0,9.171620876E-1,1.623991642E0,2.564811854E0
2.163358917E0,2.048011256E0,1.058847139E0,1.824524096E0,2.940135293E0
2.173325917E0,2.157395411E0,1.215686420E0,1.842731887E0,3.086731158E0
2.183292917E0,2.111061344E0,1.404386010E0,1.806045871E0,3.112985986E0
2.193259917E0,1.877194352E0,1.389245229E0,1.797501919E0,2.947011044E0
2.203226917E0,1.566325670E0,1.086821389E0,1.831517512E0,2.643674192E0
2.213192917E0,1.212427767E0,7.460105771E-1,1.774535226E0,2.274969920E0
2.223159917E0,8.294363111E-1,3.976726449E-1,1.711872370E0,1.943351522E0
2.233126917E0,4.914925356E-1,1.491390824E-1,1.687234542E0,1.763680180E0
2.243093917E0,2.845622049E-1,1.228634495E-1,1.653604281E0,1.682402506E0
2.253060917E0,2.304688820E-1,2.062669641E-1,1.563635513E0,1.593931612E0
2.263026917E0,3.447100273E-1,2.014722472E-1,1.394484919E0,1.450518617E0
2.272993917E0,4.562175992E-1,1.386836761E-1,1.128327849E0,1.224945466E0
2.282960917E0,7.746933626E-1,8.011153221E-2,1.005283867E0,1.271677363E0
2.292927917E0,9.929921423E-1,1.103661954E-2,1.016785632E0,1.421269933E0
2.302893917E0,1.169737684E0,-1.079793620E-1,1.115937453E0,1.620266086E0
2.312860917E0,1.291814391E0,-3.548774582E-1,1.174682163E0,1.781740894E0
2.322827917E0,1.339365849E0,-6.207170248E-1,1.145129823E0,1.868291415E0
2.332794917E0,1.128706310E0,-6.297223216E-1,9.939388065E-1,1.630473087E0
2.342761917E0,8.779864005E-1,-1.684834260E-1,7.655723640E-1,1.177007999E0
2.352727917E0,6.626801527E-1,-1.349402887E-1,5.538658082E-1,8.741402632E-1
2.362694917E0,4.088194844E-1,-3.606702948E-1,3.281317091E-1,6.363071985E-1
2.372661917E0,4.421844278E-1,-2.694063681E-1,1.172611590E-1,5.309020991E-1
2.382628917E0,6.897286414E-1,7.264346838E-2,-1.023357756E-1,7.010529817E-1
2.392594917E0,1.085909223E0,2.130251759E-1,-1.911852407E-1,1.123000607E0
2.402561917E0,1.587060920E0,6.497367561E-2,-7.885964334E-2,1.590346750E0
2.412528917E0,2.009004919E0,-3.373434126E-2,1.312245293E-1,2.013568635E0
2.422495917E0,2.233653482E0,-1.496787804E-1,3.919575032E-1,2.272716943E0
2.432462417E0,2.179160648E0,-3.205355912E-1,4.646781548E-1,2.251090843E0
2.442428417E0,1.792759974E0,-3.483075267E-1,3.161816814E-1,1.853450110E0
2.452395417E0,1.299509765E0,-2.437739289E-1,2.227648830E-1,1.340811527E0
2.462362417E0,9.151573697E-1,-1.243772936E-1,2.769726652E-1,9.642077472E-1
2.472329417E0,6.452327920E-1,-1.614954185E-1,3.759410293E-1,7.640273449E-1
2.482296417E0,7.923601399E-1,9.564875364E-3,4.148902830E-1,8.944607454E-1
2.492262417E0,7.560014221E-1,7.222129941E-2,3.881001681E-1,8.528632990E-1
2.502229417E0,9.193335973E-1,-4.417688370E-2,2.636357510E-1,9.574077863E-1
2.512196417E0,1.001216982E0,-1.591068310E-1,1.460130879E-1,1.024241305E0
2.522163417E0,1.028491466E0,-3.086546338E-1,1.173005547E-1,1.080195259E0
2.532130417E0,1.279539185E0,-4.228998721E-1,1.941743374E-2,1.347754378E0
2.542096417E0,1.645577223E0,-5.895560431E-1,-9.758016206E-2,1.750720598E0
2.552063417E0,2.185498445E0,-8.340246212E-1,-5.757460892E-2,2.339939179E0
2.562030417E0,2.739580162E0,-7.758840019E-1,1.670765128E-1,2.852228955E0
2.571997417E0,2.856161948E0,-7.105419517E-2,3.003966111E-1,2.872794440E0
2.581963417E0,2.792323802E0,4.764855105E-1,7.414210975E-2,2.833656244E0
2.591930417E0,2.736384074E0,9.929864413E-1,-2.174982959E-1,2.919096672E0
2.601897417E0,2.768215439E0,1.521878207E0,-3.457769249E-1,3.177843872E0
2.611864417E0,2.668007904E0,1.592987366E0,-6.613949347E-1,3.176998297E0
2.621831417E0,2.473969222E0,1.376343933E0,-1.116115208E0,3.043116739E0
2.631797417E0,2.603765130E0,1.177520474E0,-1.499221416E0,3.227043875E0
2.641764417E0,2.870384423E0,8.953016871E-1,-1.913839291E0,3.564190326E0
2.651731417E0,3.402563201E0,4.159188813E-1,-2.138347814E0,4.040167846E0
2.661698417E0,4.142022850E0,5.085381925E-2,-1.959574604E0,4.582452621E0
2.671665417E0,4.588457765E0,-1.569784445E-1,-1.537485010E0,4.841740085E0
2.681631417E0,4.699233558E0,-9.846752089E-1,-9.161735427E-1,4.887919318E0
2.691598417E0,4.258628609E0,-1.856314384E0,-6.486602837E-1,4.690690875E0
2.701565417E0,3.272646840E0,-2.554946142E0,-8.064960761E-1,4.229468412E0
2.711532417E0,2.604901244E0,-3.299334701E0,-8.998169801E-1,4.298929002E0
2.721499417E0,2.286144961E0,-3.394846045E0,-3.471703894E-1,4.107549845E0
2.731465417E0,1.822661904E0,-2.771465614E0,3.592856010E-1,3.336495797E0
2.741432417E0,1.595837737E0,-1.955717635E0,7.025575056E-1,2.620136752E0
2.751399417E0,1.257545906E0,-1.463338223E0,9.530809486E-1,2.152009237E0
2.761366417E0,7.088605848E-1,-7.519683051E-1,1.113040742E0,1.518815115E0
2.771332417E0,2.961898318E-1,-7.527471542E-2,1.323081792E0,1.357917570E0
2.781299417E0,-1.751185539E-1,4.800020260E-1,1.559425956E0,1.640999014E0
2.791266417E0,-5.976871812E-1,1.195090188E0,1.692849623E0,2.156666495E0
2.801233417E0,-1.164975273E0,1.484073619E0,1.687358357E0,2.531169713E0
2.811200417E0,-1.815404339E0,1.629699109E0,1.514105649E0,2.871258961E0
2.821166417E0,-2.428529486E0,1.626831635E0,1.402263909E0,3.242017998E0
2.831133417E0,-2.883123459E0,1.588381514E0,1.424520312E0,3.586727594E0
2.841100417E0,-3.071911926E0,1.554792184E0,1.440258824E0,3.732072761E0
2.851067417E0,-2.815089936E0,1.363494092E0,1.429746553E0,3.439189249E0
2.861034417E0,-2.271164248E0,8.184534860E-1,1.372620426E0,2.777073997E0
2.871000417E0,-1.844680471E0,1.839563280E-1,1.336590468E0,2.285423385E0
2.880967417E0,-1.459192547E0,9.935588837E-3,1.317771058E0,1.966179586E0
2.890934417E0,-1.296990200E0,-3.721284986E-2,1.245120134E0,1.798302678E0
2.900901417E0,-1.451676828E0,2.256001979E-1,1.168418260E0,1.877088781E0
2.910867417E0,-1.792384436E0,3.523725110E-1,1.150235027E0,2.158668333E0
2.920834417E0,-2.181344145E0,7.196109831E-2,1.121352267E0,2.453746439E0
2.930801417E0,-2.504156057E0,-1.653615975E-1,1.052766181E0,2.721480966E0
2.940768417E0,-2.691302041E0,-2.300440818E-1,8.837065854E-1,2.842000050E0
2.950735417E0,-2.719188582E0,-9.472723246E-2,5.691311342E-1,2.779724814E0
2.960701417E0,-2.474086166E0,2.368005395E-1,1.594002881E-1,2.490499007E0
2.970668417E0,-1.726265291E0,3.714923215E-1,-2.211083668E-1,1.779575036E0
2.980635417E0,-8.604338631E-1,3.271645796E-1,-4.459694767E-1,1.022874317E0
2.990602417E0,-1.963667509E-1,9.135163486E-2,-6.337674254E-1,6.697508280E-1
3.000569417E0,-6.025497258E-2,-5.676248914E-1,-8.185780317E-1,9.979472296E-1
3.010535417E0,2.017289400E-1,-9.446632969E-1,-1.046634645E0,1.424263806E0
3.020502417E0,1.894592889E-1,-1.289104645E0,-1.838302474E0,2.253229148E0
3.030469417E0,2.629628827E-1,-2.034926941E0,-2.973947675E0,3.613093122E0
3.040436417E0,3.087892659E-1,-2.917420887E0,-4.042324022E0,4.994705091E0
3.050403417E0,-2.897514626E-2,-3.099116097E0,-4.096723008E0,5.136973773E0
3.060369417E0,-4.150520316E-1,-1.797881988E0,-3.112596853E0,3.618412221E0
3.070336417E0,-3.389828257E-1,-6.019977486E-1,-2.271135743E0,2.373893049E0
3.080303417E0,-4.367109954E-2,1.520837402E-1,-2.153653047E0,2.159457820E0
3.090270417E0,3.145103279E-1,9.447445732E-1,-2.006664425E0,2.240125257E0
3.100236417E0,3.970085473E-1,1.498201076E0,-1.701117001E0,2.301308607E0
3.110203417E0,4.973876984E-1,1.884779799E0,-1.412191458E0,2.407088309E0
3.120170417E0,6.975311659E-1,2.077406378E0,-1.267717869E0,2.531654712E0
3.130137417E0,8.840609998E-1,1.942692962E0,-1.276213873E0,2.486833658E0
3.140104417E0,1.526551009E0,1.690782632E0,-1.508571113E0,2.732195216E0
3.150070417E0,1.782933874E0,1.538642759E0,-1.979276651E0,3.076330736E0
3.160037417E0,1.896872279E0,1.490274591E0,-2.349348099E0,3.367265848E0
3.170004417E0,1.737925808E0,1.349966558E0,-2.534265125E0,3.356381317E0
3.179971417E0,1.409094188E0,1.251910506E0,-2.226440796E0,2.917167284E0
3.189937417E0,1.095999909E0,9.937027252E-1,-1.851334310E0,2.369831141E0
3.199904417E0,5.663696404E-1,3.029804957E-1,-1.877490660E0,1.984324300E0
3.209871417E0,-1.131819221E-1,-5.962183607E-1,-2.009945297E0,2.099563426E0
3.219838417E0,-8.000897205E-1,-1.587014435E0,-1.907420218E0,2.607107644E0
3.229805417E0,-1.200569467E0,-2.524963374E0,-1.653884947E0,3.248406149E0
3.239771417E0,-1.362907762E0,-2.956653950E0,-1.432137480E0,3.556731352E0
3.249738417E0,-1.176161289E0,-2.038223017E0,-1.545548905E0,2.815391600E0
3.259705417E0,-8.174856256E-1,-2.871667010E-1,-2.428874910E0,2.578794445E0
3.269672417E0,-7.024023351E-1,5.307997119E-1,-3.091741004E0,3.214650807E0
3.279639417E0,-9.675946149E-1,-7.332525373E-2,-3.346311232E0,3.484166298E0
3.289605417E0,-6.178801019E-1,-2.037093920E0,-1.762684089E0,2.763798592E0
3.299572417E0,-3.557182878E-2,-4.010774201E0,-2.245085227E-1,4.017210365E0
3.309539417E0,-2.081082523E-2,-4.836755392E0,4.050120334E-1,4.853727491E0
3.319506417E0,-1.798659083E-1,-4.462489151E0,1.364462975E0,4.669895115E0
3.329472417E0,-4.493456590E-1,-3.110064424E0,1.613787081E0,3.532523317E0
3.339439417E0,-6.294413629E-1,-1.590350856E0,6.404045999E-1,1.826343431E0
3.349406417E0,-2.869350050E-1,-5.029938626E-1,-2.831479096E-1,6.445985275E-1
3.359373417E0,7.130680950E-1,1.549167162E-1,1.257618777E-1,7.404602264E-1
3.369340417E0,1.681996314E0,7.338261491E-1,1.040080501E0,2.109355320E0
3.379306417E0,2.434756186E0,1.250847482E0,1.861381581E0,3.310196142E0
3.389273417E0,3.024844472E0,1.520370795E0,2.691946989E0,4.325250284E0
3.399240417E0,3.408238216E0,1.525987045E0,3.469874593E0,5.097524290E0
3.409207417E0,3.583713450E0,1.211147227E0,4.196675313E0,5.649952511E0
3.419174417E0,3.427135247E0,5.582804561E-1,4.802718165E0,5.926469003E0
3.429142167E0,3.114379669E0,-1.995730716E-1,5.131493068E0,6.005947988E0
3.439109167E0,2.730000669E0,-6.548121393E-1,5.033031803E0,5.763080055E0
3.449076167E0,2.327461533E0,-7.682358438E-1,4.399553230E0,5.036202153E0
3.459043167E0,1.997135363E0,-4.151394475E-1,3.747499807E0,4.266690196E0
3.469009167E0,1.725692410E0,1.109971100E-1,3.404170600E0,3.818207973E0
3.478976167E0,1.144071331E0,7.204687697E-1,3.361544983E0,3.623252562E0
3.488943167E0,3.771283065E-1,1.222159873E0,3.464920832E0,3.693450539E0
3.498910167E0,-1.723775254E-1,1.250553367E0,3.625308788E0,3.838809912E0
3.508877167E0,-7.212100504E-1,9.068984699E-1,3.642766235E0,3.822610968E0
3.518843167E0,-1.066577743E0,5.619402283E-1,3.086514763E0,3.313598992E0
3.528810167E0,-1.059273986E0,3.915739989E-1,2.114057896E0,2.396796270E0
3.538777167E0,-1.134290986E0,2.922379911E-1,1.267464100E0,1.725828591E0
3.548744167E0,-1.186497120E0,6.543209732E-2,8.000055206E-1,1.432503266E0
3.558710167E0,-9.459249799E-1,1.192551327E-1,-2.164597939E-1,9.776761717E-1
3.568677167E0,-1.019432959E0,5.385326546E-1,-1.366355719E0,1.787788838E0
3.578644167E0,-1.066089647E0,7.460187632E-1,-1.973049366E0,2.363475181E0
3.588611167E0,-3.591071878E-1,6.984937638E-1,-1.773616043E0,1.939733327E0
3.598578167E0,2.751129583E-2,9.383810484E-1,-1.237030511E0,1.552919943E0
3.608544167E0,7.794369163E-1,1.285144910E0,-4.797956192E-1,1.577758912E0
3.618511167E0,1.505504833E0,1.264363906E0,2.352907884E-1,1.980030971E0
3.628478167E0,1.723045960E0,1.002570612E0,9.469133786E-1,2.206961749E0
3.638445167E0,1.550596660E0,7.982297212E-1,1.531056581E0,2.320701391E0
3.648411167E0,7.463979551E-1,4.883734846E-1,1.525597036E0,1.767219535E0
3.658378167E0,1.196197066E-1,1.617141044E-1,7.954716627E-1,8.205092881E-1
3.668345167E0,3.350681148E-2,-9.147442639E-2,-9.933315732E-2,1.391307056E-1
3.678312167E0,-2.611816015E-1,3.426462525E-1,-8.965372769E-1,9.946865698E-1
3.688279167E0,-4.314900166E-1,1.066974185E0,-1.591807544E0,1.964298552E0
3.698245167E0,-6.540205725E-1,2.227361732E0,-1.913112044E0,3.008135783E0
3.708212167E0,-5.757256240E-1,2.687938723E0,-1.716416387E0,3.240765309E0
3.718179167E0,-4.793032106E-1,2.000954618E0,-1.469671049E0,2.528533952E0
3.728146167E0,-2.407775232E-1,8.965465593E-1,-1.196473639E0,1.514370733E0
3.738113167E0,-4.358105242E-2,1.976686335E-1,-9.030241048E-1,9.254321859E-1
3.748079167E0,1.734820645E-1,-4.149768949E-3,-8.013123733E-1,8.198870452E-1
3.758046167E0,3.114845400E-1,-9.491083503E-2,-9.775889683E-1,1.030393554E0
3.768013167E0,2.695730138E-1,-1.367599422E-1,-1.324298451E0,1.358359039E0
3.777980167E0,3.889970579E-1,-1.034799296E-1,-1.820393330E0,1.864365491E0
3.787946167E0,6.711520372E-1,-3.263564944E-2,-2.244453874E0,2.342879283E0
3.797913167E0,1.189616609E0,-9.642175555E-2,-2.271958446E0,2.566374877E0
3.807880167E0,1.963842925E0,-3.057006204E-1,-1.960408417E0,2.791654181E0
3.817847167E0,2.403904814E0,-4.073439395E-1,-1.475713854E0,2.849985758E0
3.827814167E0,2.362518075E0,-5.826890731E-1,-1.139335817E0,2.686839094E0
3.837780167E0,2.067536571E0,-8.931060576E-1,-1.103926249E0,2.508186409E0
3.847747167E0,1.556973780E0,-8.664538640E-1,-1.510001488E0,2.335597171E0
3.857714167E0,1.831606097E0,-7.985951722E-1,-2.310313696E0,3.054518704E0
3.867681167E0,2.527069541E0,-8.050399733E-1,-2.434586909E0,3.600192112E0
3.877647167E0,2.670274284E0,-4.817784101E-1,-8.443402791E-1,2.841722312E0
3.887614167E0,2.501109073E0,-2.980928081E-1,1.000912342E0,2.710393225E0
3.897581167E0,2.064199711E0,-1.055960954E0,2.304875200E0,3.269315474E0
3.907548167E0,1.184787759E0,-1.950163364E0,3.288964664E0,4.003017330E0
3.917515167E0,-8.005978435E-2,-2.942169812E0,3.894520444E0,4.881604476E0
3.927481167E0,-1.064984816E0,-3.488858748E0,4.041837534E0,5.444518222E0
3.937448167E0,-1.879039149E0,-4.079321110E0,3.592655597E0,5.751419223E0
3.947415167E0,-2.571489377E0,-3.321324325E0,2.830509043E0,5.065129251E0
3.957382167E0,-2.959530196E0,-1.717476341E0,1.970643676E0,3.948668188E0
3.967348167E0,-3.142821110E0,1.741803682E-1,1.327954715E0,3.416303127E0
3.977315167E0,-3.088730273E0,1.577824951E0,9.528593391E-1,3.596905224E0
3.987282167E0,-2.971247723E0,2.165014041E0,7.044148006E-1,3.743233768E0
3.997249167E0,-2.928679993E0,2.085249249E0,5.760938524E-1,3.641059607E0
4.007216167E0,-2.616852076E0,1.549924377E0,6.574334460E-1,3.111655363E0
4.017182167E0,-2.287828082E0,9.314006424E-1,9.358199680E-1,2.641481308E0
4.027149167E0,-1.966674440E0,4.043940192E-1,1.276329209E0,2.379150925E0
4.037116167E0,-1.498481743E0,7.477828681E-2,1.620791461E0,2.208620448E0
4.047083167E0,-1.005623444E0,-6.006669223E-2,1.836303458E0,2.094492040E0
4.057049167E0,-4.410346460E-1,-2.032141328E-2,1.817964689E0,1.870807347E0
4.067016167E0,4.952642821E-2,6.126946449E-2,1.413819469E0,1.416012819E0
4.076983167E0,4.726901559E-1,1.469428682E-1,5.229967488E-1,7.201067902E-1
4.086950167E0,6.176850242E-1,4.391025066E-2,-9.676691669E-1,1.148845732E0
4.096917167E0,7.262252804E-1,-8.228289574E-1,-3.292699866E0,3.470781332E0
4.106883167E0,1.448981408E0,-2.275985423E0,-5.237808312E0,5.891883628E0
4.116850167E0,2.441742585E0,-2.895662228E0,-4.790238453E0,6.106828230E0
4.126817167E0,3.257372451E0,-2.886731191E0,-3.227288234E0,5.418402126E0
4.136784167E0,2.902339164E0,-2.285518139E0,-2.828181852E0,4.652502377E0
4.146750167E0,2.036247827E0,-9.547474051E-1,-2.849332985E0,3.629951278E0
4.156717167E0,1.509370866E0,-1.150199944E-1,-2.055897980E0,2.553066101E0
4.166684167E0,8.401150811E-1,4.373261225E-1,-1.040789768E0,1.407228065E0
4.176651167E0,2.882289939E-1,8.569638330E-1,-2.215702969E-1,9.308900904E-1
4.186618167E0,9.818936884E-4,1.093373778E0,7.114623034E-1,1.304471461E0
4.196584167E0,-1.691599488E-3,9.566904348E-1,1.602366884E0,1.866236609E0
4.206551167E0,1.401562974E-1,1.094519248E0,1.618768909E0,1.959088807E0
4.216518167E0,5.209651338E-1,1.240090944E0,8.663503683E-1,1.599935368E0
4.226485167E0,7.093613988E-1,1.363283007E0,-2.498872659E-1,1.556977135E0
4.236451167E0,8.700731443E-1,1.682389539E0,-1.171437616E0,2.227044662E0
4.246418167E0,9.372330938E-1,2.143004537E0,-1.696049219E0,2.889196648E0
4.256385167E0,1.105942076E0,2.323253730E0,-1.685646438E0,3.076039610E0
4.266352167E0,1.223883924E0,2.148550621E0,-1.250810060E0,2.771044467E0
4.276318167E0,8.785562848E-1,1.858738055E0,-9.176070607E-1,2.251393128E0
4.286285167E0,4.556027645E-1,1.528675010E0,-8.734114659E-1,1.818589771E0
4.296252167E0,-1.207230762E-2,1.083998938E0,-1.223152145E0,1.634411395E0
4.306219167E0,-3.560810345E-1,4.433604491E-1,-1.818250179E0,1.905097348E0
4.316186167E0,-7.878430928E-1,-3.228575206E-1,-2.339620671E0,2.489730629E0
4.326152167E0,-1.144539839E0,-1.036389738E0,-2.705164620E0,3.114801881E0
4.336119167E0,-1.410989855E0,-1.468312449E0,-2.786071374E0,3.450945887E0
4.346086167E0,-1.492790063E0,-1.587871052E0,-2.591733899E0,3.386272472E0
4.356053167E0,-1.134650589E0,-1.143399047E0,-1.988311184E0,2.558940153E0
4.366019167E0,-1.053346371E0,-3.122834158E-1,-1.329653331E0,1.724829699E0
4.375986167E0,-1.290822410E0,2.410046875E-2,-9.339465201E-1,1.593442635E0
4.385953167E0,-2.110772784E0,-3.081973815E-1,-1.113005805E0,2.406060949E0
4.395920167E0,-3.050660221E0,-1.906636691E0,-1.484564785E0,3.891750744E0
4.405887167E0,-3.094278988E0,-4.625749844E0,-8.914290762E-1,5.636201724E0
4.415853167E0,-3.028198434E0,-6.473433153E0,1.993678343E-1,7.149480406E0
4.425820167E0,-3.293750026E0,-6.429392509E0,1.414834399E0,7.361225010E0
4.435785833E0,-3.315221002E0,-4.827045506E0,2.668028369E0,6.435016238E0
4.445752833E0,-2.835147640E0,-2.402388192E0,3.251690419E0,4.937916741E0
4.455718833E0,-1.748490704E0,9.401679575E-2,2.371150028E0,2.947611126E0
4.465685833E0,-6.839628482E-1,2.092585750E0,1.227387868E0,2.520555748E0
4.475652833E0,2.303662634E-1,3.423019685E0,1.423573648E0,3.714390166E0
4.485619833E0,1.001074164E0,3.916128244E0,2.270387299E0,4.636040163E0
4.495586833E0,1.573863024E0,3.890026274E0,2.941288637E0,5.124502715E0
4.505552833E0,1.591719397E0,3.692504990E0,3.224118458E0,5.153940587E0
4.515519833E0,1.444911746E0,3.203000654E0,3.548476374E0,4.993863006E0
4.525486833E0,1.464887004E0,2.394315526E0,3.895126215E0,4.801109143E0
4.535453833E0,1.205565475E0,1.501283144E0,4.361810038E0,4.767874369E0
4.545419833E0,7.046378718E-1,7.671348131E-1,4.871068608E0,4.981196616E0
4.555386833E0,7.451004580E-2,2.867381001E-1,4.688498654E0,4.697849520E0
4.565353833E0,-1.922106962E-1,2.032258272E-1,3.497061807E0,3.508231316E0
4.575320833E0,-6.585031211E-1,8.098393679E-4,2.319522622E0,2.411184814E0
4.585286833E0,-1.050582831E0,-2.035702282E-1,1.867005433E0,2.151946656E0
4.595253833E0,-9.444650763E-1,-6.540695429E-3,2.010171000E0,2.221000790E0
4.605220833E0,-5.825407000E-1,4.944692069E-1,2.259962883E0,2.385641569E0
4.615187833E0,-7.270539039E-1,7.329052126E-1,2.392666027E0,2.605879534E0
4.625154833E0,-1.047477521E0,5.295180023E-1,2.421957654E0,2.691370905E0
4.635120833E0,-1.367369334E0,6.734647572E-2,1.952154926E0,2.384353853E0
4.645087833E0,-1.271585071E0,-3.869049972E-1,1.208411314E0,1.796352408E0
4.655054833E0,-8.395072630E-1,-7.912580860E-1,7.317813778E-1,1.366149987E0
4.665021833E0,-2.594001742E-1,-1.037871423E0,6.291452014E-1,1.241083891E0
4.674987833E0,4.098980033E-1,-1.119019666E0,8.243650210E-1,1.449068347E0
4.684954833E0,9.289024195E-1,-9.037322026E-1,9.160640536E-1,1.587061735E0
4.694921833E0,1.389230904E0,-6.585941184E-1,4.713136482E-1,1.608056365E0
4.704888833E0,1.639691124E0,-3.537401748E-1,7.482210439E-2,1.679082321E0
4.714855833E0,1.822460467E0,-6.802533746E-2,-1.972230756E-1,1.834362707E0
4.724821833E0,1.991204094E0,3.811513370E-1,-3.431866083E-1,2.056197251E0
4.734788833E0,2.020046508E0,8.793048745E-1,-4.922063345E-1,2.257439265E0
4.744755833E0,2.004348342E0,1.243360707E0,-6.128555164E-1,2.436996104E0
4.754722833E0,1.635180289E0,1.098277254E0,-6.604126755E-1,2.077539989E0
4.764688833E0,1.360123026E0,8.779845732E-1,-8.376121073E-1,1.822741232E0
4.774655833E0,1.289522721E0,7.081872779E-1,-9.846097932E-1,1.770269616E0
4.784622833E0,1.085224514E0,2.812200826E-1,-9.787028629E-1,1.488172125E0
4.794589833E0,1.027478728E0,-1.517562962E-1,-1.213352796E0,1.597174855E0
4.804555833E0,1.016950378E0,-3.282252645E-1,-1.694885770E0,2.003636111E0
4.814522833E0,6.705706047E-1,-2.394405574E-1,-2.187381980E0,2.300355764E0
4.824489833E0,1.021632389E0,-2.985021132E-1,-2.353564673E0,2.583041409E0
4.834456833E0,1.125203608E0,-3.487893373E-1,-2.273650192E0,2.560707394E0
4.844423833E0,1.260654578E0,-2.827970767E-1,-2.192215434E0,2.544608548E0
4.854389833E0,1.209270344E0,-1.997701228E-1,-2.033431808E0,2.374255206E0
4.864356833E0,1.235696177E0,-6.380423248E-2,-1.800775775E0,2.184904898E0
4.874323833E0,1.333971354E0,-1.136406362E-2,-1.726400508E0,2.181757876E0
4.884290833E0,1.420741403E0,-6.402935028E-2,-1.600507470E0,2.141081514E0
4.894256833E0,1.829429763E0,-2.512425774E-1,-1.525094029E0,2.394963025E0
4.904223833E0,2.426882617E0,-5.431104398E-1,-1.628551155E0,2.972693568E0
4.914190833E0,2.733147933E0,-6.041781753E-1,-1.930299642E0,3.400174348E0
4.924157833E0,2.616769045E0,-6.114538658E-1,-2.037228844E0,3.372188819E0
4.934124833E0,2.156142499E0,-7.021248847E-1,-1.933073707E0,2.979715387E0
4.944090833E0,1.609666841E0,-7.768382674E-1,-1.956859596E0,2.650246122E0
4.954057833E0,1.236500461E0,-7.028856075E-1,-2.447588339E0,2.830842674E0
4.964024833E0,1.444497909E0,-5.652479982E-1,-2.860989994E0,3.254434398E0
4.973991833E0,1.650189068E0,-7.879947549E-1,-1.784557938E0,2.555133407E0
4.983957833E0,8.531521062E-1,-1.695169798E0,-2.905015142E-1,1.919859446E0
4.993924833E0,5.025503513E-1,-2.327057928E0,4.990447994E-1,2.432447568E0
5.003891833E0,9.958368127E-1,-2.262899939E0,1.364557262E0,2.823902196E0
5.013858833E0,9.069233206E-1,-2.204989700E0,2.897555557E0,3.752374940E0
5.023824833E0,-2.758040261E-1,-1.892156062E0,3.722692410E0,4.185064062E0
5.033791833E0,-2.253274838E0,-1.340518627E0,3.607332693E0,4.459494012E0
5.043758833E0,-3.571364423E0,-7.850635457E-1,3.265105686E0,4.902232527E0
5.053725833E0,-4.237342113E0,-3.144451314E-1,2.694557771E0,5.031360204E0
5.063692833E0,-4.927076747E0,-3.725144148E-2,1.933994498E0,5.293185020E0
5.073658833E0,-5.052006603E0,4.691343910E-1,1.222816880E0,5.219017045E0
5.083625833E0,-4.656430477E0,1.159898136E0,7.106569956E-1,4.851055745E0
5.093592833E0,-4.114005623E0,1.716969388E0,5.122464967E-1,4.487251121E0
5.103559833E0,-3.616542934E0,2.168014832E0,5.833819681E-1,4.256759992E0
5.113525833E0,-3.399306301E0,2.374138539E0,8.114215513E-1,4.224952316E0
5.123492833E0,-3.348456283E0,2.237994309E0,1.265934468E0,4.221773097E0
5.133459833E0,-3.149100728E0,2.033444672E0,1.815441177E0,4.165040131E0
5.143426833E0,-2.793727718E0,1.759268146E0,2.210060406E0,3.972946761E0
5.153393833E0,-2.259500807E0,1.258174628E0,2.674143387E0,3.720133082E0
5.163359833E0,-1.695736393E0,8.126980716E-1,2.806972246E0,3.378622983E0
5.173326833E0,-1.465078354E0,4.058061218E-1,2.468782157E0,2.899313458E0
5.183293833E0,-1.264360544E0,1.661077023E-2,1.678411678E0,2.101416014E0
5.193260833E0,-9.525544799E-1,-4.431441021E-1,7.927304149E-2,1.053575316E0
5.203226833E0,-4.132526971E-2,-1.376325806E0,-2.298052230E0,2.678996931E0
5.213193833E0,1.382889014E0,-2.136056290E0,-3.760881745E0,4.540853444E0
5.223160833E0,2.883646785E0,-2.631740549E0,-4.129465077E0,5.682777395E0
5.233127833E0,3.053922090E0,-2.420463690E0,-4.213740411E0,5.739398302E0
5.243093833E0,1.777475790E0,-1.569887940E0,-3.097105240E0,3.900772897E0
5.253060833E0,8.669419603E-1,-5.602784497E-1,-1.423188901E0,1.758114601E0
5.263027833E0,-2.009711409E-1,2.462689358E-1,-4.574142319E-1,5.570148721E-1
5.272994833E0,-1.201954965E0,6.266876167E-1,1.824386101E-2,1.355642263E0
5.282961833E0,-1.758460645E0,9.460005552E-1,1.298017190E-1,2.000987101E0
5.292927833E0,-1.551246724E0,1.185361590E0,-1.303835901E-1,1.956642119E0
5.302894833E0,-7.839425614E-1,1.200084295E0,-5.546516740E-1,1.537012275E0
5.312861833E0,-4.402164012E-2,1.076363059E0,-9.377413630E-1,1.428234646E0
5.322828833E0,4.090652137E-1,9.471103567E-1,-1.210290610E0,1.590331958E0
5.332794833E0,7.675180981E-1,1.020642017E0,-1.355206248E0,1.862089722E0
5.342761833E0,1.137374003E0,9.196617723E-1,-1.394109528E0,2.020628312E0
5.352728833E0,1.445380839E0,8.342643571E-1,-1.427642140E0,2.196197821E0
5.362695833E0,1.632227153E0,7.384325856E-1,-1.662560461E0,2.444085811E0
5.372661833E0,1.362615255E0,7.283888233E-1,-2.138570008E0,2.638323766E0
5.382628833E0,7.571028183E-1,7.488803905E-1,-2.539397811E0,2.753646266E0
5.392595833E0,1.038772479E-1,4.958666915E-1,-2.767530438E0,2.813520745E0
5.402562833E0,-5.108098358E-1,-9.719417274E-2,-2.970311877E0,3.015481063E0
5.412529833E0,-1.108773590E0,-7.031154031E-1,-3.255629103E0,3.510394707E0
5.422495833E0,-1.446115395E0,-1.191684769E0,-3.584748992E0,4.044970662E0
5.432462417E0,-1.429886302E0,-1.258016753E0,-3.431503994E0,3.924589233E0
5.442429417E0,-1.160908315E0,-1.003317887E0,-2.592078885E0,3.012179915E0
5.452396417E0,-8.537065684E-1,-5.771605307E-1,-1.435583829E0,1.767153109E0
5.462362417E0,-5.846869936E-1,-9.016055703E-2,-5.915826881E-1,8.366348567E-1
5.472329417E0,-2.648877130E-1,1.267150104E-1,-6.659230185E-1,7.277881978E-1
5.482296417E0,-1.026490329E0,-5.183942592E-1,-1.886083728E0,2.209010374E0
5.492263417E0,-2.282200429E0,-2.926968806E0,-2.598757575E0,4.530907869E0
5.502229417E0,-2.565086968E0,-5.654590243E0,-1.428525070E0,6.371400618E0
5.512196417E0,-2.995470107E0,-6.550504133E0,4.808169086E-2,7.203072775E0
5.522163417E0,-3.269388771E0,-6.567264592E0,1.516667168E0,7.491204607E0
5.532130417E0,-2.777216058E0,-5.548596595E0,2.709399759E0,6.770576065E0
5.542097417E0,-1.215889611E0,-3.090812466E0,2.773542545E0,4.327129244E0
5.552063417E0,3.030148481E-1,-2.654887336E-1,1.620348827E0,1.669680384E0
5.562030417E0,1.249670291E0,2.411453131E0,1.322258942E0,3.020786446E0
5.571997417E0,2.243555888E0,4.294126178E0,2.432515386E0,5.421272338E0
5.581964417E0,2.822800074E0,5.319593902E0,3.963122317E0,7.209203704E0
5.591930417E0,2.687225947E0,5.510852233E0,4.978129957E0,7.897623281E0
5.601897417E0,2.797677220E0,4.862573773E0,5.342853541E0,7.747109492E0
5.611864417E0,2.755005117E0,3.492376433E0,5.019570343E0,6.706924241E0
5.621831417E0,2.205585093E0,1.736644683E0,4.542789549E0,5.340175769E0
5.631798417E0,1.566200686E0,9.683983147E-2,4.106739289E0,4.396324616E0
5.641764417E0,7.418513064E-1,-1.184198579E0,3.408560690E0,3.683877795E0
5.651731417E0,1.554932517E-1,-1.459879010E0,2.604735475E0,2.989995280E0
5.661698417E0,-2.338972507E-1,-1.126692967E0,2.351911519E0,2.618326328E0
5.671665417E0,-7.496761966E-1,-5.454604357E-1,2.379358349E0,2.553602874E0
5.681631417E0,-9.613155824E-1,2.417116159E-1,2.709093364E0,2.884742452E0
5.691598417E0,-9.774040501E-1,9.724849337E-1,2.842094132E0,3.158883454E0
5.701565417E0,-8.387626201E-1,1.483830959E0,2.551855888E0,3.068753089E0
5.711532417E0,-8.220442611E-1,1.623206946E0,2.180605642E0,2.839999739E0
5.721498417E0,-7.766341996E-1,1.443342499E0,1.648038901E0,2.324312903E0
5.731465417E0,-5.697446533E-1,1.047635103E0,1.101976860E0,1.623730667E0
5.741432417E0,-2.543195285E-1,6.514868277E-1,7.021196222E-1,9.910022569E-1
5.751399417E0,1.632302874E-1,4.566997021E-1,3.393840909E-1,5.919462018E-1
5.761365417E0,4.119940840E-1,3.260945392E-1,3.204274178E-4,5.254301822E-1
5.771332417E0,7.714010878E-1,2.382348615E-1,1.385439642E-1,8.191519502E-1
5.781299417E0,8.920307547E-1,3.339163595E-1,4.492626286E-1,1.053117236E0
5.791266417E0,9.742328127E-1,4.703079271E-1,6.347234452E-1,1.254269896E0
5.801233417E0,1.069329443E0,6.654657662E-1,5.897139180E-1,1.390709405E0
5.811199417E0,1.281249203E0,6.869659781E-1,2.899306798E-1,1.482424222E0
5.821166417E0,1.579832446E0,6.102405685E-1,-1.011685252E-1,1.696614034E0
5.831133417E0,1.724876870E0,3.269178271E-1,-5.040317434E-1,1.826505811E0
5.841100417E0,1.633189020E0,1.431070948E-1,-8.998484820E-1,1.870163978E0
5.851066417E0,1.286189223E0,1.044447201E-1,-1.083633487E0,1.685067640E0
5.861033417E0,1.040183266E0,-3.399278820E-2,-1.174668787E0,1.569389529E0
5.871000417E0,8.678179463E-1,-2.670569569E-1,-1.147066933E0,1.462938807E0
5.880967417E0,5.623869556E-1,-5.379140192E-1,-1.046367427E0,1.304038102E0
5.890933417E0,4.408200531E-1,-8.137599260E-1,-8.095551201E-1,1.229596287E0
5.900900417E0,2.888251906E-1,-8.316260934E-1,-6.566259456E-1,1.098262074E0
5.910867417E0,2.817597806E-1,-7.913387775E-1,-7.411719330E-1,1.120241701E0
5.920834417E0,2.917973303E-1,-7.288969463E-1,-7.442090499E-1,1.081796446E0
5.930801417E0,4.068119891E-1,-7.201442492E-1,-5.871172426E-1,1.014302909E0
5.940767417E0,6.629656430E-1,-8.631104261E-1,-3.149743775E-1,1.133001284E0
5.950734417E0,8.602433170E-1,-9.289798951E-1,-3.375171480E-1,1.310320585E0
5.960701417E0,1.254965822E0,-8.117999393E-1,-8.529193139E-1,1.720880505E0
5.970668417E0,1.578145524E0,-7.854225647E-1,-1.478603548E0,2.300804284E0
5.980634417E0,1.521957729E0,-7.881274867E-1,-2.157320859E0,2.755273771E0
5.990601417E0,1.420290729E0,-6.610078490E-1,-2.808895395E0,3.216216795E0
6.000568417E0,1.508913614E0,-6.849627221E-1,-2.771770254E0,3.229350487E0
6.010535417E0,1.811062782E0,-7.158348513E-1,-1.967231387E0,2.768098131E0
6.020501417E0,2.165792013E0,-8.050931829E-1,-1.053210497E0,2.539307470E0
6.030468417E0,2.369796397E0,-8.033068585E-1,-8.408184280E-1,2.639737203E0
6.040435417E0,2.592723248E0,-6.602979970E-1,-1.087766883E0,2.888155827E0
6.050402417E0,3.083451406E0,-7.007712543E-1,-7.813381384E-1,3.257183172E0
6.060368417E0,2.784867432E0,-1.605524381E0,9.111131430E-3,3.214541673E0
6.070335417E0,1.649233926E0,-2.993030648E0,3.875337191E-1,3.439242269E0
6.080302417E0,7.460267300E-1,-3.916992463E0,2.320194174E-1,3.994148075E0
6.090269417E0,6.537108162E-1,-4.015347893E0,8.040266508E-1,4.146904314E0
6.100236417E0,3.198959059E-1,-3.677340236E0,2.762949144E0,4.610754014E0
6.110202417E0,-6.433485268E-1,-2.595948572E0,3.879094319E0,4.711710842E0
6.120169417E0,-1.503281430E0,-9.089783245E-1,3.658664814E0,4.058561922E0
6.130136417E0,-2.260917733E0,6.842826909E-1,3.256383979E0,4.022937784E0
6.140103417E0,-2.914141184E0,1.836568921E0,2.944010516E0,4.531269376E0
6.150069417E0,-3.281606528E0,2.642529831E0,2.167606112E0,4.738187583E0
6.160036417E0,-3.680298050E0,3.200272343E0,1.292719393E0,5.045538647E0
6.170003417E0,-4.079490971E0,3.195565919E0,6.225869644E-1,5.219339293E0
6.179970417E0,-4.144616090E0,2.801181749E0,3.111513948E-1,5.012113018E0
6.189936417E0,-3.727301770E0,2.259761154E0,1.558107189E-1,4.361602451E0
6.199903417E0,-2.783908781E0,1.691673163E0,1.073017063E-1,3.259358809E0
6.209870417E0,-1.845547321E0,1.408279086E0,4.450818694E-1,2.363766648E0
6.219837417E0,-9.122530577E-1,1.390010045E0,1.084867249E0,1.985263336E0
6.229804417E0,-2.872518876E-1,1.135398887E0,1.740451221E0,2.097811891E0
6.239770417E0,1.828533970E-3,4.265935582E-1,2.225933842E0,2.266443663E0
6.249737417E0,2.170448809E-1,-4.592964506E-1,2.213178726E0,2.270731552E0
6.259704417E0,3.935792650E-1,-1.333315442E0,1.589888926E0,2.111961530E0
6.269671417E0,4.992923193E-1,-2.075960947E0,7.997611070E-1,2.280027303E0
6.279637417E0,9.098163767E-1,-2.555144947E0,-2.665184283E-1,2.725355686E0
6.289604417E0,1.210625290E0,-2.398247779E0,-1.458133031E0,3.056690684E0
6.299571417E0,1.144477128E0,-1.704597849E0,-1.754646506E0,2.700789900E0
6.309538417E0,8.163958508E-1,-7.983343863E-1,-8.827401137E-1,1.443284479E0
6.319504417E0,4.780643318E-1,1.335550833E-1,4.289634347E-1,6.560427531E-1
6.329471417E0,3.248910360E-2,9.178982520E-1,1.118214505E0,1.447064761E0
6.339438417E0,-6.029736855E-1,1.581654292E0,1.247038021E0,2.102453660E0
6.349405417E0,-1.226557856E0,1.850944886E0,1.009435244E0,2.439139327E0
6.359372417E0,-1.614956524E0,1.704439389E0,5.503283159E-1,2.411650775E0
6.369338417E0,-1.536797524E0,1.309254150E0,1.919878442E-2,2.018975396E0
6.379305417E0,-1.156390976E0,8.446946204E-1,-4.468359975E-1,1.500137160E0
6.389272417E0,-5.788451866E-1,5.741041911E-1,-7.363796282E-1,1.098595617E0
6.399239417E0,-2.144918403E-1,5.577635622E-1,-7.755232286E-1,9.790522045E-1
6.409205417E0,2.434192222E-1,6.598869377E-1,-7.110084864E-1,1.000118371E0
6.419172417E0,5.606984259E-1,6.004879975E-1,-6.361630297E-1,1.039072644E0
6.429139417E0,7.992581733E-1,5.587447250E-1,-5.500920884E-1,1.119647534E0
6.439106042E0,9.593437551E-1,5.255027193E-1,-6.218595707E-1,1.258253899E0
6.449072042E0,1.030103616E0,5.238362628E-1,-9.572535948E-1,1.500617318E0
6.459039042E0,9.101261330E-1,3.585255361E-1,-1.268652838E0,1.601983197E0
6.469006042E0,8.081260606E-1,1.387930191E-1,-1.319486192E0,1.553504118E0
6.478973042E0,5.696700282E-1,-8.051615953E-4,-1.135124725E0,1.270052255E0
6.488939042E0,3.920423609E-1,-8.633472383E-2,-8.649166310E-1,9.535364051E-1
6.498906042E0,2.245668487E-1,-2.915602988E-1,-7.760904086E-1,8.589260734E-1
6.508873042E0,5.639665078E-2,-5.436168087E-1,-9.743765811E-1,1.117188229E0
6.518840042E0,5.888909955E-2,-8.422697800E-1,-1.317719164E0,1.565014410E0
6.528807042E0,2.315434541E-1,-1.463123045E0,-1.621920558E0,2.196580914E0
6.538773042E0,2.514737617E-1,-2.194308007E0,-2.174083511E0,3.099171792E0
6.548740042E0,1.734576523E-2,-2.952318825E0,-3.022976578E0,4.225502894E0
6.558707042E0,-2.015397460E-1,-3.192745222E0,-3.647995985E0,4.852021746E0
6.568674042E0,3.412997849E-2,-2.423324733E0,-3.117538919E0,3.948761392E0
6.578640042E0,3.052965778E-1,-8.450074464E-1,-1.527389792E0,1.772050553E0
6.588607042E0,1.069150957E-1,4.200791752E-1,4.340936355E-1,6.134611932E-1
6.598574042E0,1.635366815E-1,1.235372241E0,1.543639205E0,1.983862600E0
6.608541042E0,4.811580205E-1,1.561849773E0,1.163156204E0,2.005946188E0
6.618507042E0,8.799246794E-1,1.196691155E0,8.106954002E-1,1.692206901E0
6.628474042E0,1.100285845E0,3.611784178E-1,6.729292984E-1,1.339370237E0
6.638441042E0,4.820969371E-1,-9.333927888E-1,6.045139517E-1,1.212054732E0
6.648408042E0,-4.327123770E-1,-2.438701741E0,1.299342535E0,2.796926385E0
6.658374042E0,-6.927412000E-1,-3.533249055E0,2.911750842E0,4.630554203E0
6.668341042E0,-2.793469271E-1,-2.932859291E0,4.740837082E0,5.581687429E0
6.678308042E0,3.625178687E-1,-7.754209024E-1,4.931360418E0,5.005098635E0
6.688275042E0,1.332084603E0,1.056825757E0,3.423593881E0,3.822607112E0
6.698242042E0,2.309522129E0,1.962964674E0,2.425885813E0,3.882273142E0
6.708208042E0,3.081934639E0,2.481256022E0,2.214424767E0,4.534162504E0
6.718175042E0,3.614841687E0,2.746360009E0,2.408014676E0,5.138882018E0
6.728142042E0,3.472657283E0,2.470619937E0,3.601543365E0,5.579823123E0
6.738109042E0,3.087223738E0,1.830756204E0,4.011096382E0,5.382519194E0
6.748075042E0,2.673838747E0,1.075560236E0,2.921462775E0,4.103801678E0
6.758042042E0,2.448343799E0,4.094179469E-1,2.575794682E0,3.577251551E0
6.768009042E0,2.441132867E0,-1.349595845E-2,2.948412592E0,3.827851699E0
6.777976042E0,2.428851960E0,-1.996713048E-1,2.685420327E0,3.626385639E0
6.787942042E0,2.375180806E0,-3.238304973E-1,2.522091222E0,3.479553733E0
6.797909042E0,2.429708869E0,-3.602142119E-1,2.746131967E0,3.684356151E0
6.807876042E0,2.486595114E0,-3.632728904E-1,3.014113369E0,3.924283611E0
6.817843042E0,2.253693937E0,-3.191468775E-1,2.980739801E0,3.750440088E0
6.827809042E0,2.138195640E0,-3.203315234E-1,2.856933196E0,3.582814559E0
6.837776042E0,2.183055771E0,-4.908731693E-1,2.745613904E0,3.541904103E0
6.847743042E0,2.332467919E0,-8.515422946E-1,2.562217155E0,3.567980888E0
6.857710042E0,2.498674293E0,-1.479080681E0,2.401845717E0,3.768277555E0
6.867677042E0,2.824530850E0,-1.994056073E0,2.222054361E0,4.109958604E0
6.877643042E0,2.947207189E0,-2.118377234E0,2.013292390E0,4.150529914E0
6.887610042E0,2.949005207E0,-2.114469540E0,1.904847443E0,4.098299273E0
6.897577042E0,3.345821235E0,-1.887853680E0,2.074527794E0,4.366025289E0
6.907544042E0,3.388900889E0,-1.157951598E0,2.045594602E0,4.124313084E0
6.917510042E0,2.843320293E0,-8.865314484E-2,1.722631977E0,3.325626347E0
6.927477042E0,2.506304909E0,6.658815032E-1,1.787558144E0,3.149654996E0
6.937444042E0,2.413791725E0,8.310267538E-1,2.127498890E0,3.323138198E0
6.947411042E0,2.595616158E0,6.415904152E-1,2.312311835E0,3.534918319E0
6.957377042E0,3.049477329E0,1.790645474E-1,2.377127198E0,3.870673043E0
6.967344042E0,3.233543293E0,-2.572435749E-1,2.202880025E0,3.921053033E0
6.977311042E0,3.290756251E0,-5.388332015E-1,2.049194148E0,3.913900175E0
6.987278042E0,3.264667729E0,-6.577550429E-1,2.005354064E0,3.887433858E0
6.997244042E0,2.917391067E0,-6.459828436E-1,1.855087638E0,3.517074724E0
7.007211042E0,2.558343959E0,-6.813105512E-1,1.810302644E0,3.207257947E0
7.017178042E0,2.232063186E0,-6.677777553E-1,1.898292714E0,3.005253471E0
7.027145042E0,1.975273647E0,-5.777844286E-1,1.936017780E0,2.825545199E0
7.037112042E0,1.711675611E0,-4.338891292E-1,1.895873137E0,2.590835410E0
7.047078042E0,1.492883618E0,-3.229990232E-1,1.785020453E0,2.349324985E0
7.057045042E0,1.396302819E0,-4.148915255E-1,1.664648502E0,2.211979018E0
7.067012042E0,1.313623774E0,-4.970718026E-1,1.593529987E0,2.124152918E0
7.076979042E0,1.396391404E0,-5.882088447E-1,1.568557114E0,2.180887438E0
7.086945042E0,1.395960464E0,-6.036589426E-1,1.498088225E0,2.134801646E0
7.096912042E0,1.299494855E0,-5.404037637E-1,1.375448724E0,1.967887776E0
7.106879042E0,1.327997692E0,-4.351287389E-1,1.233923886E0,1.864264747E0
7.116846042E0,1.460008526E0,-3.692756420E-1,1.190691912E0,1.919827238E0
7.126812042E0,1.716547511E0,-3.945736206E-1,1.083203132E0,2.067740971E0
7.136779042E0,1.826610382E0,-3.943982041E-1,9.620938468E-1,2.101827776E0
7.146746042E0,1.899563899E0,-3.479251188E-1,8.043201079E-1,2.091966953E0
7.156713042E0,1.983916855E0,-3.093305719E-1,6.956754059E-1,2.124988415E0
7.166679042E0,2.093931779E0,-2.210475558E-1,6.502963346E-1,2.203700896E0
7.176646042E0,2.022126363E0,-1.341339576E-1,6.671988809E-1,2.133574769E0
7.186613042E0,1.718335736E0,2.485534430E-2,6.901527107E-1,1.851919613E0
7.196580042E0,1.432743836E0,1.530280656E-1,5.673482816E-1,1.548565969E0
7.206546042E0,1.148270655E0,2.946587384E-1,3.927761134E-1,1.248848407E0
7.216513042E0,1.069607917E0,3.902297240E-1,2.497912620E-1,1.165648321E0
7.226480042E0,1.093975311E0,3.901063478E-1,-4.177258171E-2,1.162200452E0
7.236447042E0,1.323655257E0,1.741844612E-1,-2.776122775E-1,1.363624598E0
7.246414042E0,1.701948475E0,-1.339380759E-1,-3.049849212E-1,1.734238687E0
7.256380042E0,1.856513920E0,-1.102100748E-1,-2.807067702E-1,1.880847279E0
7.266347042E0,1.742246024E0,3.958331108E-2,-1.916892707E-1,1.753206440E0
7.276314042E0,1.677159351E0,5.482583284E-2,-9.493948638E-2,1.680738786E0
7.286281042E0,1.745946142E0,9.185040236E-2,-1.138774484E-1,1.752065210E0
7.296247042E0,1.883187310E0,1.361132401E-1,-1.946064466E-1,1.898102454E0
7.306214042E0,1.960666572E0,1.546167541E-1,-3.291948060E-1,1.994113579E0
7.316181042E0,1.961268250E0,1.706188291E-1,-3.236487219E-1,1.995102110E0
7.326148042E0,1.865425223E0,1.689506185E-1,-2.837316079E-1,1.894428462E0
7.336114042E0,1.731046121E0,1.581204057E-1,-2.557830866E-1,1.756971178E0
7.346081042E0,1.639168529E0,2.025884807E-2,-1.893019988E-1,1.650187606E0
7.356048042E0,1.339739486E0,-2.034070909E-1,-2.533119071E-1,1.378565652E0
7.366015042E0,1.041998534E0,-4.934886289E-1,-3.690259659E-1,1.210566865E0
7.375981042E0,7.916207595E-1,-6.611657238E-1,-6.061400624E-1,1.196331608E0
7.385948042E0,3.831358820E-1,-6.527843249E-1,-9.429869002E-1,1.209191785E0
7.395915042E0,2.477653845E-1,-6.240528613E-1,-1.078234314E0,1.270204273E0
7.405882042E0,2.971873668E-1,-4.980365932E-1,-9.148847432E-1,1.083224295E0
7.415849042E0,5.746197693E-1,-4.174309713E-1,-6.008341527E-1,9.302892959E-1
7.425815042E0,1.155399726E0,-6.019410306E-1,2.692189649E-2,1.303075716E0
7.435782833E0,1.559999422E0,-9.313907021E-1,5.974490534E-1,1.912598287E0
7.445749833E0,1.694966461E0,-1.255000175E0,7.886812180E-1,2.251656014E0
7.455716833E0,1.610987873E0,-1.676654005E0,8.108361720E-1,2.462499924E0
7.465682833E0,1.293140101E0,-2.051655241E0,6.627006179E-1,2.514094798E0
7.475649833E0,8.258983071E-1,-1.897596896E0,4.170473939E-1,2.111139626E0
7.485616833E0,2.264788882E-1,-1.239108027E0,-2.125892660E-1,1.277448858E0
7.495583833E0,-3.996128972E-1,-7.448943436E-1,-6.689968997E-1,1.078014333E0
7.505549833E0,-8.368774778E-1,-6.952140605E-1,-6.603712334E-1,1.272704470E0
7.515516833E0,-1.002079300E0,-7.018629295E-1,-3.524504252E-1,1.273183332E0
7.525483833E0,-1.043520125E0,-6.413612044E-1,-1.003455296E-2,1.224899644E0
7.535450833E0,-1.048339254E0,-3.898707050E-1,3.109781711E-1,1.160914201E0
7.545416833E0,-1.103044781E0,-7.071622610E-2,4.614505649E-1,1.197766754E0
7.555383833E0,-1.184257344E0,2.395382059E-1,4.561582500E-1,1.291481458E0
7.565350833E0,-1.258565368E0,3.231259078E-1,4.796463691E-1,1.385084033E0
7.575317833E0,-1.349351139E0,2.867848778E-1,6.887568341E-1,1.541875494E0
7.585283833E0,-1.381058835E0,2.222187531E-1,9.365894616E-1,1.683420476E0
7.595250833E0,-1.570692810E0,2.620482320E-1,1.013748442E0,1.887705242E0
7.605217833E0,-1.796696465E0,3.375901651E-1,9.851128730E-1,2.076663834E0
7.615184833E0,-1.952424337E0,5.568648452E-1,9.158568428E-1,2.227297242E0
7.625151833E0,-1.891721906E0,7.391751820E-1,7.909367815E-1,2.179580857E0
7.635117833E0,-1.783187935E0,7.743660647E-1,6.004137379E-1,2.034674095E0
7.645084833E0,-1.367406171E0,6.840300912E-1,4.480352980E-1,1.593245879E0
7.655051833E0,-9.988085139E-1,5.565467566E-1,3.604521936E-1,1.198869686E0
7.665018833E0,-7.397344682E-1,4.835512859E-1,3.743744141E-1,9.597838983E-1
7.674984833E0,-6.940343848E-1,5.037686187E-1,4.734835500E-1,9.796189160E-1
7.684951833E0,-6.730433191E-1,5.336590004E-1,4.847131276E-1,9.862687535E-1
7.694918833E0,-5.641645092E-1,2.298096085E-1,4.501467276E-1,7.574471110E-1
7.704885833E0,-5.212383449E-1,-1.611738217E-1,5.022658843E-1,7.415776638E-1
7.714851833E0,-5.345583022E-1,-4.834396040E-1,6.309011203E-1,9.578635878E-1
7.724818833E0,-5.743412957E-1,-8.472901994E-1,7.032352710E-1,1.241897118E0
7.734785833E0,-6.065898594E-1,-9.750536156E-1,6.987317455E-1,1.344212358E0
7.744752833E0,-4.381263140E-1,-8.733412993E-1,7.636890489E-1,1.240121226E0
7.754718833E0,-1.419016913E-1,-6.979932421E-1,9.056000957E-1,1.152146774E0
7.764685833E0,1.983479337E-1,-4.707745349E-1,8.047544830E-1,9.532052997E-1
7.774652833E0,3.002549623E-1,-3.971703690E-1,4.827807690E-1,6.935233344E-1
7.784619833E0,4.249389423E-1,-3.174184406E-1,-1.655313130E-1,5.556331404E-1
7.794585833E0,6.672794263E-1,-6.303514820E-1,-1.547281435E0,1.799078837E0
7.804552833E0,1.040427679E0,-1.263405547E0,-2.629768283E0,3.097477127E0
7.814519833E0,1.287300779E0,-1.309275784E0,-2.644436023E0,3.219376998E0
7.824486833E0,1.219294737E0,-1.147174594E0,-2.356677584E0,2.890781631E0
7.834453833E0,1.147772765E0,-8.125624162E-1,-2.066193758E0,2.499359247E0
7.844419833E0,1.228990005E0,-3.376381123E-1,-2.208331969E0,2.549734498E0
7.854386833E0,7.984563008E-1,2.684351456E-1,-1.839030014E0,2.022775639E0
7.864353833E0,7.963162199E-1,7.977560967E-1,-8.972388697E-1,1.440684525E0
7.874320833E0,7.864684854E-1,9.425594687E-1,-2.629188824E-1,1.255419201E0
7.884286833E0,7.531878881E-1,1.105062363E0,4.916046560E-2,1.338234498E0
7.894253833E0,8.014842814E-1,1.325973678E0,-7.246048708E-2,1.551075037E0
7.904220833E0,6.948803307E-1,1.405979961E0,-2.912814232E-1,1.595143627E0
7.914187833E0,8.916354829E-1,1.409723348E0,-5.966001838E-1,1.771515039E0
7.924153833E0,9.652142134E-1,1.487097799E0,-9.762031782E-1,2.023875240E0
7.934120833E0,8.880075780E-1,1.613008232E0,-1.416968633E0,2.323392589E0
7.944087833E0,9.187484372E-1,1.661306233E0,-1.536169387E0,2.442100218E0
7.954054833E0,9.361648075E-1,1.668025269E0,-1.409190667E0,2.375822211E0
7.964020833E0,8.403330360E-1,1.511972439E0,-1.022914830E0,2.009620615E0
7.973987833E0,8.588622777E-1,1.388685651E0,-5.369825578E-1,1.718849184E0
7.983954833E0,5.457066035E-1,9.841518831E-1,-4.815234715E-1,1.224016127E0
7.993921833E0,1.899163949E-1,5.307266217E-1,-9.497644079E-1,1.104441675E0
8.003887833E0,-1.257291698E-1,-6.425797641E-2,-1.625285631E0,1.631407458E0
8.013854833E0,-4.533970486E-1,-6.536198920E-1,-2.324833063E0,2.457160275E0
8.023821833E0,-6.579851308E-1,-1.102791889E0,-2.866584610E0,3.141082888E0
8.033788833E0,-7.620769715E-1,-1.283177322E0,-3.089741256E0,3.431298061E0
8.043755833E0,-5.102104962E-1,-1.254211385E0,-2.728931798E0,3.046379770E0
8.053721833E0,9.037865818E-2,-1.132715600E0,-2.144541185E0,2.426987809E0
8.063688833E0,8.215775071E-1,-9.551572949E-1,-1.475225612E0,1.940001460E0
8.073655833E0,1.374608918E0,-8.401507491E-1,-1.301477938E0,2.071049922E0
8.083622833E0,1.776799852E0,-6.577024180E-1,-1.642079419E0,2.507192654E0
8.093588833E0,2.051539758E0,-6.360577798E-1,-2.230147930E0,3.096279165E0
8.103555833E0,2.289998714E0,-6.270893204E-1,-2.913168207E0,3.758175639E0
8.113522833E0,2.295668759E0,-6.054458517E-1,-3.581072263E0,4.296596127E0
8.123489833E0,1.910815404E0,-4.476587373E-1,-4.027059281E0,4.479823691E0
8.133455833E0,1.418336004E0,-6.804007244E-1,-4.060455068E0,4.354528393E0
8.143422833E0,9.846800329E-1,-1.166343521E0,-3.454342049E0,3.776563381E0
8.153389833E0,7.314030629E-1,-1.677700657E0,-2.427918305E0,3.040463325E0
8.163356833E0,3.781582935E-1,-1.707353641E0,-7.489043641E-1,1.902345368E0
8.173322833E0,-4.507894827E-1,-2.124133818E0,1.123191655E0,2.444732117E0
8.183289833E0,-1.902652106E0,-2.883913418E0,2.696111376E0,4.382471699E0
8.193256833E0,-2.870514523E0,-3.244228202E0,3.368224257E0,5.487240190E0
8.203223833E0,-2.687408381E0,-2.505214403E0,3.514711043E0,5.084432783E0
8.213189833E0,-2.044441385E0,-1.071290014E0,3.403247910E0,4.112116147E0
8.223156833E0,-1.458986286E0,-1.439818382E-2,3.514332143E0,3.805177881E0
8.233123833E0,-1.162533183E0,7.137666911E-1,3.774031549E0,4.013011391E0
8.243090833E0,-7.488586096E-1,1.844067391E0,3.699347402E0,4.200779089E0
8.253056833E0,-2.288914494E-1,2.828509880E0,3.617952991E0,4.598091265E0
8.263023833E0,-1.280911526E-1,2.964236035E0,3.452673254E0,4.552368088E0
8.272990833E0,1.244572543E-1,3.036731569E0,3.224264638E0,4.430926617E0
8.282957833E0,1.947801089E-1,2.790645066E0,3.221125853E0,4.266297099E0
8.292924833E0,1.000281720E-1,2.420152618E0,2.834721962E0,3.728644919E0
8.302890833E0,-2.127605894E-1,2.037778628E0,2.010178016E0,2.870300414E0
8.312857833E0,-5.878388621E-1,1.618860126E0,1.378897412E0,2.206268503E0
8.322824833E0,-7.744394472E-1,1.192095244E0,1.131948445E0,1.817183208E0
8.332791833E0,-5.565450025E-1,6.592045677E-1,1.175071660E0,1.457767611E0
8.342757833E0,1.390029341E-2,6.078297615E-2,1.401391650E0,1.402778082E0
8.352724833E0,1.623565672E-1,-3.193567926E-1,1.696974249E0,1.734378856E0
8.362691833E0,-2.513970901E-1,-4.275554252E-1,1.762961247E0,1.831402877E0
8.372658833E0,-5.993724950E-1,-2.734771997E-1,1.275772993E0,1.435839091E0
8.382624833E0,-6.574042100E-1,-1.634934121E-1,7.654426289E-1,1.022160853E0
8.392591833E0,-6.815961877E-1,-1.561422926E-1,6.780817187E-1,9.740372661E-1
8.402558833E0,-7.436762224E-1,-6.224244118E-2,6.339679849E-1,9.792057246E-1
8.412525833E0,-6.230711138E-1,-6.789845288E-2,4.081719053E-1,7.479519484E-1
8.422491833E0,-5.054627033E-1,-1.937732184E-1,1.176465636E-1,5.539686981E-1
8.432458333E0,-4.256631200E-1,-3.877253616E-1,-3.164121348E-1,6.569906291E-1
8.442425333E0,-2.576689598E-1,-4.953743559E-1,-8.344070292E-1,1.004004052E0
8.452392333E0,1.369378437E-1,-4.397667503E-1,-9.928641614E-1,1.094498063E0
8.462358333E0,4.217770605E-1,-5.809793472E-2,-1.265253267E0,1.334967074E0
8.472325333E0,6.835164133E-1,3.618520170E-1,-1.411479267E0,1.609473607E0
8.482292333E0,9.813775255E-1,6.125624979E-1,-1.116129388E0,1.607507223E0
8.492259333E0,1.134107968E0,6.320097524E-1,-5.716833707E-1,1.418611676E0
8.502225333E0,1.178718569E0,4.667995977E-1,-3.320785797E-1,1.310555421E0
8.512192333E0,1.197113178E0,4.383096242E-1,-6.322828905E-1,1.423016845E0
8.522159333E0,1.180515126E0,4.464390081E-1,-1.181600661E0,1.728902505E0
8.532126333E0,1.096027976E0,4.907000917E-1,-1.817927413E0,2.178743671E0
8.542093333E0,9.812466940E-1,4.854434448E-1,-2.274178634E0,2.523962930E0
8.552059333E0,1.038322389E0,2.783502692E-1,-2.412552407E0,2.641212103E0
8.562026333E0,1.012111222E0,-4.840559006E-2,-2.273766405E0,2.489322376E0
8.571993333E0,1.086580776E0,-1.773250008E-1,-1.819861526E0,2.126969184E0
8.581960333E0,1.258529115E0,-8.840288401E-2,-1.386424386E0,1.874535458E0
8.591926333E0,1.356114175E0,1.458880305E-1,-1.297684703E0,1.882635004E0
8.601893333E0,1.507435146E0,3.515825522E-1,-1.512032080E0,2.163841958E0
8.611860333E0,1.828900152E0,3.202742207E-1,-1.710142909E0,2.524290021E0
8.621827333E0,2.591362601E0,-2.964479864E-2,-2.209387537E0,3.405500291E0
8.631793333E0,3.275449995E0,-6.148674703E-1,-2.917916731E0,4.429545431E0
8.641760333E0,3.750579536E0,-7.759126532E-1,-3.342806996E0,5.083625272E0
8.651727333E0,4.321455479E0,-6.829226285E-1,-3.243614829E0,5.446319669E0
8.661694333E0,4.740527179E0,-7.193572140E-1,-2.970386136E0,5.640325038E0
8.671660333E0,4.639456303E0,-9.153079355E-1,-2.481160712E0,5.340271705E0
8.681627333E0,4.202462302E0,-1.060822914E0,-2.176546504E0,4.850091684E0
8.691594333E0,3.837348123E0,-1.072950039E0,-1.908921198E0,4.418194489E0
8.701561333E0,2.765844685E0,-1.380925811E0,-9.162627858E-1,3.224343408E0
8.711527333E0,1.194703321E0,-2.072453202E0,5.134900533E-1,2.446640622E0
8.721494333E0,-3.433492340E-2,-2.649038951E0,1.235841188E0,2.923335372E0
8.731461333E0,-8.817137812E-1,-3.117986816E0,1.339707472E0,3.506291073E0
8.741428333E0,-1.352207357E0,-3.498546415E0,1.603681338E0,4.079226102E0
8.751394333E0,-1.806535721E0,-3.386013241E0,2.410609524E0,4.532074057E0
8.761361333E0,-2.661685309E0,-2.492828831E0,3.486439170E0,5.045197950E0
8.771328333E0,-3.548342473E0,-1.050213726E0,3.961998482E0,5.421357316E0
8.781295333E0,-4.068213446E0,2.893424499E-1,3.490531636E0,5.368229764E0
8.791261333E0,-4.492620731E0,1.306010699E0,2.810247856E0,5.457728281E0
8.801228333E0,-4.993898143E0,1.697611011E0,1.959342908E0,5.626715422E0
8.811195333E0,-5.021012267E0,1.686899496E0,1.110396120E0,5.411947305E0
8.821162333E0,-4.788500075E0,1.452788676E0,4.084420466E-1,5.020672546E0
8.831129333E0,-4.148960279E0,1.099875298E0,3.700922057E-2,4.292431333E0
8.841095333E0,-3.498513963E0,7.241870141E-1,8.341754794E-2,3.573654330E0
8.851062333E0,-2.785902974E0,2.445919544E-1,3.564731634E-1,2.819247013E0
8.861029333E0,-2.169692398E0,5.979888976E-2,5.616828778E-1,2.242014421E0
8.870996333E0,-1.675873109E0,1.877108252E-1,7.547018053E-1,1.847528308E0
8.880962333E0,-1.319203772E0,1.455997628E-1,1.017030704E0,1.672079345E0
8.890929333E0,-1.156804739E0,-1.557487750E-1,1.258545341E0,1.716505538E0
8.900896333E0,-8.918934913E-1,-7.173194593E-1,1.240023116E0,1.687506603E0
8.910863333E0,-7.270951999E-1,-1.366230004E0,9.255598587E-1,1.803306104E0
8.920829333E0,-4.108736844E-1,-1.882332739E0,1.236539930E-1,1.930617527E0
8.930796333E0,1.533162602E-1,-1.865446565E0,-4.863766605E-1,1.933897365E0
8.940763333E0,1.015024085E0,-1.264601303E0,-7.382349497E-1,1.781707381E0
8.950730333E0,1.716342858E0,-7.276900810E-1,-1.201558962E0,2.217906581E0
8.960696333E0,1.858817138E0,4.803136826E-2,-1.409145643E0,2.333066568E0
8.970663333E0,1.695499289E0,7.738339680E-1,-1.010261455E0,2.119944588E0
8.980630333E0,1.246179942E0,1.063867559E0,-4.000740963E-1,1.686664731E0
8.990597333E0,6.586598264E-1,1.287890178E0,-1.991561651E-3,1.446546869E0
9.000563333E0,3.121970232E-1,1.505610083E0,2.259516156E-1,1.554150198E0
9.010530333E0,-4.854694650E-2,1.662520115E0,2.152564734E-1,1.677100262E0
9.020497333E0,-1.550631890E-1,1.654961420E0,2.020856202E-2,1.662332782E0
9.030464333E0,-2.333348217E-1,1.562678323E0,-2.837677145E-1,1.605282778E0
9.040430333E0,-2.943099520E-1,1.631243359E0,-5.850127566E-1,1.757786440E0
9.050397333E0,-2.951069275E-1,1.735597447E0,-7.405346596E-1,1.909915752E0
9.060364333E0,-2.060280322E-1,1.737636956E0,-9.849237156E-1,2.007960275E0
9.070331333E0,-9.508362025E-2,1.836340880E0,-1.339123482E0,2.274739638E0
9.080298333E0,4.169057451E-2,1.878875865E0,-1.643707284E0,2.496735119E0
9.090264333E0,2.839302671E-1,1.863282511E0,-1.970204111E0,2.726562369E0
9.100231333E0,3.455326574E-1,1.697853670E0,-2.151047966E0,2.762083861E0
9.110198333E0,2.657641375E-1,1.337547072E0,-2.173770247E0,2.566113760E0
9.120165333E0,3.030110474E-1,8.623035103E-1,-2.038926437E0,2.234413582E0
9.130131333E0,7.264595345E-2,1.981896204E-1,-1.744812659E0,1.757534573E0
9.140098333E0,6.177086323E-2,-2.217427897E-1,-1.550406772E0,1.567401245E0
9.150065333E0,-3.929818623E-2,-4.957830763E-1,-1.353584815E0,1.442060005E0
9.160032333E0,-1.441006829E-1,-8.193545419E-1,-1.113613915E0,1.390051375E0
9.169998333E0,-2.956033561E-1,-1.075080764E0,-1.168804615E0,1.615327899E0
9.179965333E0,-5.625068235E-1,-1.273610108E0,-1.825105455E0,2.295540580E0
9.189932333E0,-7.225189497E-1,-1.398376241E0,-2.629318632E0,3.064442235E0
9.199899333E0,-7.777592039E-1,-1.329821146E0,-3.213339701E0,3.563549592E0
9.209865333E0,-1.001380558E0,-1.237801759E0,-3.690243287E0,4.019056075E0
9.219832333E0,-1.402221955E0,-1.167033493E0,-4.016719065E0,4.411601255E0
9.229799333E0,-1.644277680E0,-1.209850899E0,-4.153488947E0,4.628051287E0
9.239766333E0,-1.874764688E0,-1.770808795E0,-3.711808988E0,4.519738088E0
9.249732333E0,-2.116909290E0,-2.481920266E0,-2.856541432E0,4.336019154E0
9.259699333E0,-2.087516507E0,-3.036209997E0,-1.912790301E0,4.151513344E0
9.269666333E0,-1.776574442E0,-3.396361059E0,-6.093359677E-1,3.881079169E0
9.279633333E0,-1.898353818E0,-3.345086240E0,1.319433568E0,4.066233406E0
9.289599333E0,-2.109885176E0,-2.745412760E0,3.217307621E0,4.726518275E0
9.299566333E0,-1.954906480E0,-1.865993865E0,4.334990029E0,5.108398086E0
9.309533333E0,-1.322046688E0,-6.152644962E-1,4.412437570E0,4.647145700E0
9.319500333E0,-4.412106472E-1,7.575085419E-1,4.238848940E0,4.328547835E0
9.329466333E0,3.240357345E-1,1.704304318E0,4.663844454E0,4.976052397E0
9.339433333E0,9.447219153E-1,2.432807162E0,5.084059285E0,5.714779873E0
9.349400333E0,1.334198956E0,2.639224985E0,5.083124900E0,5.880795365E0
9.359367333E0,1.537463375E0,2.616808514E0,4.819588552E0,5.695604817E0
9.369334333E0,1.582564704E0,2.463959373E0,4.510514088E0,5.377763863E0
9.379300333E0,1.298588390E0,2.254171801E0,4.029094112E0,4.795958890E0
9.389267333E0,5.521617834E-1,2.042787938E0,3.558276308E0,4.139951144E0
9.399234333E0,1.071714230E-2,1.854016428E0,3.317967439E0,3.800841972E0
9.409201333E0,-2.518031792E-1,1.550999095E0,3.223893925E0,3.586432081E0
9.419167333E0,-5.939506643E-1,1.195511772E0,2.965596682E0,3.252197637E0
9.429134333E0,-9.767292814E-1,7.692205149E-1,2.584769865E0,2.868228643E0
9.439102167E0,-1.410101078E0,3.268429828E-1,2.097454727E0,2.548436328E0
9.449069167E0,-1.756674613E0,-6.221788287E-2,1.551270990E0,2.344401511E0
9.459035167E0,-1.892797063E0,-1.761041021E-1,1.081663560E0,2.187164701E0
9.469002167E0,-1.860904448E0,-1.639863324E-1,8.186452746E-1,2.039616868E0
9.478969167E0,-1.733348316E0,-3.180809301E-1,6.769274783E-1,1.887830149E0
9.488936167E0,-1.615959760E0,-5.102818322E-1,2.431365641E-1,1.711966379E0
9.498902167E0,-1.672647931E0,-6.253491890E-1,-1.148217738E-1,1.789412404E0
9.508869167E0,-1.255439008E0,-6.762094402E-1,-4.860790372E-2,1.426796776E0
9.518836167E0,-6.805790645E-1,-7.823030752E-1,1.770057245E-1,1.051911114E0
9.528803167E0,-3.444755539E-2,-7.711547738E-1,5.101800907E-1,9.252837641E-1
9.538769167E0,5.545999993E-1,-6.169490790E-1,4.875887883E-1,9.622630367E-1
9.548736167E0,9.894416399E-1,-4.492129272E-1,2.151401138E-1,1.107732947E0
9.558703167E0,1.567413691E0,-2.270824671E-2,-1.032863502E-1,1.570977216E0
9.568670167E0,2.064959410E0,5.273182797E-1,-4.415525265E-1,2.176485830E0
9.578636167E0,2.186642599E0,7.484903812E-1,-9.365520394E-1,2.493746866E0
9.588603167E0,1.954750797E0,8.208198541E-1,-1.315667961E0,2.495150916E0
9.598570167E0,1.806377116E0,7.742473662E-1,-1.458647586E0,2.447470132E0
9.608537167E0,1.632121026E0,6.755843729E-1,-1.433378259E0,2.274820107E0
9.618503167E0,1.239262101E0,6.307292122E-1,-1.277602002E0,1.888347630E0
9.628470167E0,7.961491357E-1,6.979137200E-1,-1.205027677E0,1.604066304E0
9.638437167E0,6.992811645E-1,7.185298330E-1,-1.091500915E0,1.482111169E0
9.648404167E0,5.746089520E-1,5.500189251E-1,-1.072874610E0,1.335573358E0
9.658370167E0,5.239199511E-1,4.240897804E-1,-1.231746383E0,1.404116594E0
9.668337167E0,7.000062923E-1,1.421779722E-1,-1.377622719E0,1.551795006E0
9.678304167E0,1.059905339E0,-1.069420660E-1,-1.435146457E0,1.787311189E0
9.688271167E0,1.538337534E0,-4.123561728E-1,-1.404730411E0,2.123626028E0
9.698238167E0,1.991255696E0,-7.505579567E-1,-1.522109610E0,2.616343662E0
9.708204167E0,2.334873025E0,-9.018330270E-1,-1.944431924E0,3.169503172E0
9.718171167E0,2.430704796E0,-1.105089844E0,-2.255886789E0,3.495507771E0
9.728138167E0,2.471126305E0,-1.330947320E0,-2.606030341E0,3.830049624E0
9.738105167E0,2.551764087E0,-1.447237329E0,-2.913757607E0,4.134728435E0
9.748071167E0,2.526352380E0,-1.510652137E0,-3.006312014E0,4.207426548E0
9.758038167E0,2.466958703E0,-1.564067037E0,-2.854645472E0,4.084261464E0
9.768005167E0,2.586769613E0,-1.565277411E0,-2.598602331E0,3.986753626E0
9.777972167E0,2.835493795E0,-1.486124822E0,-2.363962630E0,3.979561705E0
9.787938167E0,3.038423753E0,-1.293415212E0,-2.344959472E0,4.050157619E0
9.797905167E0,3.045566419E0,-8.687991822E-1,-2.533300919E0,4.055601112E0
9.807872167E0,2.933671177E0,-4.003038919E-1,-2.642384820E0,3.968484259E0
9.817839167E0,2.849803978E0,-5.370112091E-1,-2.029601297E0,3.539639131E0
9.827805167E0,1.799286782E0,-1.150386470E0,-5.997646970E-1,2.218228943E0
9.837772167E0,4.974873935E-1,-1.811825843E0,6.236089115E-1,1.979670343E0
9.847739167E0,-4.328813615E-1,-1.992515332E0,9.368840881E-1,2.243937481E0
9.857706167E0,-7.259866409E-1,-1.666949966E0,8.712233647E-1,2.016137134E0
9.867672167E0,-8.640720007E-1,-1.231130086E0,1.910814527E0,2.431771755E0
9.877639167E0,-1.168305774E0,-7.618612093E-1,3.498044724E0,3.765858172E0
9.887606167E0,-1.916680892E0,-1.649499536E-2,4.396315627E0,4.795990911E0
9.897573167E0,-2.687812423E0,7.999979192E-1,4.354357762E0,5.179262864E0
9.907539167E0,-3.368221918E0,1.517743056E0,3.428358777E0,5.040050276E0
9.917506167E0,-3.859682733E0,1.753498698E0,2.257051554E0,4.802727371E0
9.927473167E0,-4.224264230E0,1.636467261E0,1.267919013E0,4.704258922E0
9.937440167E0,-4.344495555E0,1.475935464E0,7.491628841E-1,4.649115201E0
9.947406167E0,-4.274698219E0,1.192986944E0,5.399055809E-1,4.470767356E0
9.957373167E0,-3.999749568E0,7.081182808E-1,5.386180971E-1,4.097503821E0
9.967340167E0,-3.894587979E0,6.635051948E-1,5.995453898E-1,3.995936604E0
9.977307167E0,-3.567208807E0,1.025237929E0,7.038994416E-1,3.777772611E0
9.987273167E0,-3.137696611E0,1.182568375E0,9.199248970E-1,3.477049007E0
9.997240167E0,-2.688288679E0,1.121749731E0,1.251070261E0,3.170235840E0
1.000720717E1,-2.341852261E0,9.662137949E-1,1.515081988E0,2.951832404E0
1.001717417E1,-1.874206425E0,5.984666151E-1,1.676226574E0,2.584675519E0
1.002714017E1,-1.427104781E0,-7.060220540E-2,1.688305167E0,2.211783684E0
1.003710717E1,-1.227467098E0,-6.174098396E-1,1.450890085E0,1.998237330E0
1.004707417E1,-8.446588793E-1,-9.424401855E-1,7.702274054E-1,1.481516919E0
1.005704117E1,-2.616529602E-1,-1.375152270E0,-2.898716412E-1,1.429521461E0
1.006700717E1,3.836781016E-1,-1.935243609E0,-1.305334176E0,2.365644526E0
1.007697417E1,1.275503436E0,-1.868271940E0,-1.810528346E0,2.897475099E0
1.008694117E1,1.694198283E0,-1.342946976E0,-1.805581602E0,2.816724929E0
1.009690817E1,1.390924550E0,-5.721763641E-1,-1.780056167E0,2.330376976E0
1.010687417E1,1.086815322E0,2.456713504E-1,-1.467991437E0,1.842965224E0
1.011684117E1,8.951816730E-1,6.910385638E-1,-5.725652039E-1,1.267562794E0
1.012680817E1,4.511712328E-1,8.119168836E-1,3.956459999E-2,9.296934251E-1
1.013677517E1,-7.350571342E-2,9.171427917E-1,1.210607529E-1,9.280138449E-1
1.014674117E1,-3.512083304E-1,8.836008239E-1,8.790353179E-2,9.548951451E-1
1.015670817E1,-6.102744824E-1,6.487427294E-1,-1.131786879E-1,8.978371167E-1
1.016667517E1,-6.271283506E-1,7.482787120E-1,-4.669925559E-1,1.082262928E0
1.017664217E1,-3.487776428E-1,7.770955449E-1,-6.967635727E-1,1.100455727E0
1.018660817E1,5.468491495E-2,5.128095835E-1,-8.914536345E-1,1.029880426E0
1.019657517E1,3.016320547E-1,3.565345591E-1,-1.206790466E0,1.294002325E0
1.020654217E1,6.290227023E-1,3.674518955E-1,-1.689467593E0,1.839834559E0
1.021650917E1,8.413888239E-1,3.744574445E-1,-2.283676851E0,2.462383701E0
1.022647517E1,8.772361296E-1,4.924735522E-1,-2.554681263E0,2.745627393E0
1.023644217E1,9.939199492E-1,5.951068050E-1,-2.393429089E0,2.659047156E0
1.024640917E1,7.630802076E-1,3.240649706E-1,-1.968807796E0,2.136238200E0
1.025637617E1,4.086108119E-1,3.966949904E-1,-1.587723702E0,1.686770958E0
1.026634317E1,1.563253105E-1,5.001398367E-1,-1.364279373E0,1.461449851E0
1.027630917E1,1.287329576E-1,3.301536763E-1,-1.153780779E0,1.206972953E0
1.028627617E1,1.771049993E-1,1.153948009E-2,-1.020610442E0,1.035927128E0
1.029624317E1,1.086270142E-1,-2.328875828E-1,-1.097557461E0,1.127239476E0
1.030621017E1,2.614373441E-1,-5.591686481E-1,-1.759962795E0,1.865070535E0
1.031617617E1,5.011745746E-1,-7.883221990E-1,-2.623430486E0,2.784782820E0
1.032614317E1,7.037905372E-1,-8.723168671E-1,-3.268463742E0,3.455302167E0
1.033611017E1,4.856925362E-1,-4.431645674E-1,-3.564252162E0,3.624387610E0
1.034607717E1,-1.656538121E-1,1.293901116E-1,-3.740840414E0,3.746741249E0
1.035604317E1,-8.270363215E-1,-2.712991118E-2,-3.805125872E0,3.894060607E0
1.036601017E1,-1.093570537E0,-1.055106091E0,-3.524665343E0,3.838282319E0
1.037597717E1,-1.265719290E0,-2.144381556E0,-3.257423029E0,4.100149067E0
1.038594417E1,-1.896406695E0,-3.536021805E0,-2.039807028E0,4.501179986E0
1.039591017E1,-2.480925069E0,-5.153789086E0,2.984021989E-1,5.727615124E0
1.040587717E1,-2.381540237E0,-6.155425898E0,2.538338295E0,7.071362188E0
1.041584417E1,-1.780783706E0,-5.233349810E0,4.285147194E0,6.994399711E0
1.042581117E1,-9.172443871E-1,-2.745078299E0,5.058822702E0,5.828248387E0
1.043577679E1,-7.476695783E-2,4.158773661E-2,4.484610922E0,4.485426932E0
1.044574379E1,3.520484291E-1,1.840117012E0,4.045089755E0,4.457882888E0
1.045571079E1,7.432762729E-1,2.668110230E0,4.359169436E0,5.164651971E0
1.046567779E1,1.277778442E0,3.640764148E0,4.461707379E0,5.898704439E0
1.047564379E1,1.693856221E0,4.406946450E0,4.333291998E0,6.408412085E0
1.048561079E1,1.763748282E0,4.584725779E0,4.297922190E0,6.527070831E0
1.049557779E1,1.606901254E0,3.973940250E0,4.250673180E0,6.036766952E0
1.050554479E1,1.234262732E0,3.009808064E0,4.111786605E0,5.243008503E0
1.051551079E1,7.146586838E-1,1.974263833E0,3.857074875E0,4.391523802E0
1.052547779E1,7.536300838E-2,1.015650834E0,3.696000456E0,3.833750848E0
1.053544479E1,-4.280998009E-1,3.736189538E-1,3.121442521E0,3.172737615E0
1.054541179E1,-7.139429846E-1,-1.739780545E-2,2.293031226E0,2.401668061E0
1.055537779E1,-8.548304763E-1,-2.910591924E-1,1.844236375E0,2.053450366E0
1.056534479E1,-1.004415263E0,-5.449868113E-1,1.969329368E0,2.276866005E0
1.057531179E1,-1.258350337E0,-7.135526830E-1,2.250638913E0,2.675439874E0
1.058527879E1,-1.357961895E0,-7.086035997E-1,1.988296566E0,2.509881034E0
1.059524479E1,-1.386856788E0,-4.060359174E-1,9.977970187E-1,1.756085364E0
1.060521179E1,-1.137414861E0,-1.170443004E-1,2.444860467E-1,1.169267018E0
1.061517879E1,-7.964866662E-1,-1.526602757E-1,1.240334773E-1,8.204148175E-1
1.062514579E1,-3.918195820E-1,-2.045712715E-1,3.826172705E-1,5.846092419E-1
1.063511179E1,-4.531884491E-2,-6.135191023E-2,2.281911723E-1,2.406014665E-1
1.064507879E1,2.453393747E-1,4.943820834E-2,-5.544329882E-3,2.503323487E-1
1.065504579E1,6.657373694E-1,-4.276595056E-2,1.011135614E-1,6.747289262E-1
1.066501279E1,9.372844031E-1,-5.869668961E-2,3.091949165E-1,9.887107009E-1
1.067497879E1,1.119076969E0,-8.394847512E-3,4.097050452E-1,1.191747440E0
1.068494579E1,1.595768301E0,4.944931805E-2,3.890257823E-1,1.643247628E0
1.069491279E1,1.795477906E0,2.843372333E-1,2.053027582E-1,1.829409138E0
1.070487979E1,1.880713499E0,5.423637503E-1,-5.442822218E-2,1.958112391E0
1.071484579E1,1.749700639E0,7.546165091E-1,-3.768296599E-1,1.942395169E0
1.072481279E1,1.463216308E0,7.425618893E-1,-6.760983431E-1,1.774685632E0
1.073477979E1,1.278913679E0,6.616908038E-1,-8.903327233E-1,1.692969957E0
1.074474679E1,8.941506627E-1,4.017347056E-1,-9.884174269E-1,1.392072265E0
1.075471279E1,6.214022454E-1,9.748127103E-2,-1.044618598E0,1.219373349E0
1.076467979E1,5.987800258E-1,-1.964389640E-1,-1.176420613E0,1.334575305E0
1.077464679E1,5.840777137E-1,-4.854229796E-1,-1.230495079E0,1.445994600E0
1.078461379E1,5.917048949E-1,-6.053604823E-1,-1.190036439E0,1.460398139E0
1.079457979E1,7.777650511E-1,-6.282347900E-1,-9.328348913E-1,1.367398391E0
1.080454679E1,1.092354390E0,-4.647443014E-1,-7.355481541E-1,1.396515831E0
1.081451379E1,1.542494466E0,-1.210841417E-2,-6.278219765E-1,1.665411728E0
1.082448079E1,1.640343234E0,2.189121526E-1,-7.442810438E-1,1.814553038E0
1.083444679E1,1.664860171E0,3.783569527E-1,-1.170151374E0,2.069823087E0
1.084441379E1,1.652421974E0,1.971248424E-1,-1.677138301E0,2.362657289E0
1.085438079E1,1.716498540E0,-2.871935982E-1,-1.839901249E0,2.532604195E0
1.086434779E1,1.923495968E0,-5.981672376E-1,-1.727831760E0,2.653873278E0
1.087431379E1,2.075365700E0,-6.835225528E-1,-1.720451989E0,2.781061113E0
1.088428079E1,2.028234657E0,-7.050291967E-1,-1.727011396E0,2.755607075E0
1.089424779E1,2.033927945E0,-7.495727009E-1,-1.613554947E0,2.702273429E0
1.090421479E1,2.096347556E0,-8.379568738E-1,-1.273001413E0,2.591790384E0
1.091418079E1,2.428887774E0,-8.759245992E-1,-1.169479968E0,2.834505798E0
1.092414779E1,2.418705140E0,-8.815601456E-1,-1.533338603E0,2.996399526E0
1.093411479E1,2.163461021E0,-9.349230051E-1,-1.886238095E0,3.018698190E0
1.094408179E1,1.893061357E0,-9.562559867E-1,-2.097523724E0,2.982903382E0
1.095404779E1,1.790219212E0,-9.636813658E-1,-2.299964855E0,3.069756494E0
1.096401479E1,2.161953608E0,-8.914337540E-1,-2.069467029E0,3.122721782E0
1.097398179E1,2.342585794E0,-9.887969112E-1,-8.175505297E-1,2.670920516E0
1.098394879E1,1.390889466E0,-1.545462951E0,1.126547956E-1,2.082239262E0
1.099391479E1,9.839731045E-1,-2.131624101E0,6.974541289E-1,2.449176727E0
1.100388179E1,1.159130981E0,-2.272052586E0,1.493687026E0,2.955826199E0
1.101384879E1,1.336549830E0,-1.883112173E0,2.554932693E0,3.443858007E0
1.102381579E1,8.222614121E-1,-1.313663535E0,3.498592608E0,3.826483497E0
1.103378179E1,4.230146237E-2,-6.302433085E-1,3.905973970E0,3.956719436E0
1.104374879E1,-1.106906721E0,6.542741954E-2,3.964224517E0,4.116381816E0
1.105371579E1,-2.268474967E0,6.361641991E-1,3.343329737E0,4.090053458E0
1.106368279E1,-3.168237495E0,1.193596224E0,2.188152643E0,4.031180070E0
1.107364879E1,-3.939857707E0,1.637394045E0,1.015761419E0,4.385807711E0
1.108361579E1,-4.556394850E0,1.798805848E0,2.595619228E-1,4.905487631E0
1.109358279E1,-5.122823401E0,1.642648353E0,-2.068938587E-1,5.383717886E0
1.110354979E1,-5.219127043E0,1.160742474E0,-5.336081296E-1,5.373206474E0
1.111351579E1,-4.573813705E0,9.398668259E-1,-5.107625464E-1,4.697233211E0
1.112348279E1,-3.498594362E0,1.036503759E0,-1.306724060E-1,3.651243327E0
1.113344979E1,-2.321282780E0,1.145145611E0,5.660771700E-1,2.649557619E0
1.114341679E1,-1.393758403E0,1.155162476E0,1.556031209E0,2.387089431E0
1.115338279E1,-8.755969358E-1,7.967164618E-1,2.672586858E0,2.923037398E0
1.116334979E1,-6.144925176E-1,9.489621699E-2,3.307261187E0,3.365201763E0
1.117331679E1,-4.606951777E-1,-8.248158413E-1,3.196269339E0,3.332971483E0
1.118328379E1,2.730038127E-1,-1.706526260E0,2.027699783E0,2.664269012E0
1.119325079E1,3.324791505E-1,-2.529573319E0,7.199776036E-1,2.650971767E0
1.120321679E1,5.894028461E-1,-2.999159700E0,3.441402161E-1,3.075839253E0
1.121318379E1,1.896238295E0,-2.615067213E0,-1.118249588E0,3.418300505E0
1.122315079E1,2.179685290E0,-1.747667270E0,-2.422142426E0,3.697586075E0
1.123311779E1,1.785836578E0,-8.919249201E-1,-1.521382363E0,2.509849924E0
1.124308379E1,8.798542204E-1,-3.314687151E-1,-4.181215274E-1,1.028999791E0
1.125305079E1,3.299815854E-1,-6.162672937E-2,5.704157674E-1,6.618608979E-1
1.126301779E1,-1.379702427E-1,2.718095738E-1,1.262890992E0,1.299157377E0
1.127298479E1,-8.109601329E-1,5.362118948E-1,1.600381755E0,1.872538730E0
1.128295079E1,-1.400117250E0,7.474536699E-1,1.365528338E0,2.093724658E0
1.129291779E1,-1.616968259E0,1.092224216E0,6.638472569E-1,2.061124273E0
1.130288479E1,-1.406773428E0,1.341750051E0,1.294610091E-3,1.944043814E0
1.131285179E1,-1.085464542E0,1.358150321E0,-3.339952970E-1,1.770411937E0
1.132281779E1,-7.642980364E-1,1.344418720E0,-3.322995313E-1,1.581782590E0
1.133278479E1,-3.338404188E-1,1.248109231E0,-2.247424479E-1,1.311386764E0
1.134275179E1,2.954268067E-1,1.213432319E0,-4.062493042E-1,1.313291090E0
1.135271879E1,8.130331171E-1,1.178277689E0,-6.706908381E-1,1.580881830E0
1.136268479E1,1.293768091E0,1.373961192E0,-9.584978092E-1,2.116677416E0
1.137265179E1,1.409791322E0,1.660203449E0,-1.354304023E0,2.564746858E0
1.138261879E1,1.387265947E0,1.543238086E0,-1.483298278E0,2.550738006E0
1.139258579E1,1.148263565E0,1.108625656E0,-1.287374454E0,2.050583586E0
1.140255179E1,9.454637077E-1,6.598208642E-1,-9.520693803E-1,1.495226170E0
1.141251879E1,6.237067062E-1,2.474600136E-1,-8.827681804E-1,1.108840013E0
1.142248579E1,6.278464618E-1,-4.063183379E-1,-1.007690434E0,1.254880784E0
1.143245279E1,8.697487700E-1,-1.017758170E0,-1.402314341E0,1.938757367E0
1.144241892E1,1.063341675E0,-1.491490812E0,-1.442592301E0,2.331590210E0
1.145238592E1,1.074616715E0,-1.862617682E0,-1.471382822E0,2.605592662E0
1.146235292E1,7.164477126E-1,-1.922252265E0,-1.503675824E0,2.543499967E0
1.147231992E1,2.938026329E-1,-1.487956170E0,-1.306414157E0,2.001762099E0
1.148228592E1,5.700472467E-2,-8.630273956E-1,-9.911229336E-1,1.315443079E0
1.149225292E1,-1.834288361E-1,-5.707098824E-1,-8.301128340E-1,1.023935166E0
1.150221992E1,-3.850908986E-1,-7.549047768E-1,-6.953497159E-1,1.096215056E0
1.151218692E1,-3.863763358E-1,-1.324593151E0,-3.334195655E-2,1.380197585E0
1.152215292E1,-3.486104125E-1,-2.124688718E0,1.067266545E0,2.403099925E0
1.153211992E1,-3.364642838E-1,-2.903150173E0,1.886841527E0,3.478744039E0
1.154208692E1,-2.793086278E-1,-3.231053256E0,2.508414584E0,4.099983192E0
1.155205392E1,1.653962423E-1,-2.435568802E0,2.922120295E0,3.807642095E0
1.156201992E1,7.779194176E-1,-8.912302709E-1,2.630398028E0,2.884171250E0
1.157198692E1,1.202392191E0,3.755690002E-1,2.106804425E0,2.454673896E0
1.158195392E1,1.556933726E0,1.112147434E0,1.787524230E0,2.618426516E0
1.159192092E1,1.977561663E0,1.353786544E0,1.580586591E0,2.870843449E0
1.160188692E1,2.491388077E0,1.282562780E0,1.400518076E0,3.132639896E0
1.161185392E1,2.943484266E0,1.104688141E0,1.320219433E0,3.409899539E0
1.162182092E1,3.151617662E0,9.822883755E-1,1.363910998E0,3.571811522E0
1.163178792E1,3.166812821E0,9.452719921E-1,1.588589090E0,3.666859403E0
1.164175392E1,3.120078365E0,9.430500501E-1,2.027506825E0,3.838621670E0
1.165172092E1,2.867350595E0,1.006265468E0,2.349289627E0,3.841019575E0
1.166168792E1,2.510982682E0,1.088903582E0,2.505186921E0,3.710351270E0
1.167165492E1,2.311727406E0,1.025261902E0,2.602063006E0,3.628495205E0
1.168162092E1,2.214415850E0,7.171580762E-1,2.348247069E0,3.306390413E0
1.169158792E1,2.283001497E0,3.203239220E-1,2.057810605E0,3.090192184E0
1.170155492E1,2.692382315E0,2.706635195E-1,2.100609884E0,3.425601138E0
1.171152192E1,2.895426586E0,6.388925099E-1,2.611755935E0,3.951322287E0
1.172148792E1,2.685893075E0,7.496820438E-1,3.216589583E0,4.257052187E0
1.173145492E1,2.258578847E0,4.539053178E-1,3.259328052E0,3.991294000E0
1.174142192E1,1.973452386E0,2.541784644E-3,2.641043469E0,3.296912402E0
1.175138892E1,1.910141074E0,-2.885559994E-1,1.926723631E0,2.728400161E0
1.176135492E1,2.032136212E0,-3.544143587E-1,1.944863448E0,2.835080414E0
1.177132192E1,2.058629507E0,-2.569781113E-1,2.302918283E0,3.099584781E0
1.178128892E1,2.036459350E0,-1.292661506E-1,2.539718823E0,3.257920828E0
1.179125592E1,2.051498243E0,-7.905084729E-2,2.735177794E0,3.419954918E0
1.180122192E1,2.192203740E0,-5.816985548E-2,2.650700730E0,3.440255126E0
1.181118892E1,2.442062866E0,5.994740903E-2,2.328464184E0,3.374760760E0
1.182115592E1,2.655207179E0,2.370285809E-1,2.277331452E0,3.506072768E0
1.183112292E1,2.806229650E0,4.292674899E-1,2.409391987E0,3.723488307E0
1.184108892E1,2.858435638E0,4.693618476E-1,2.600448005E0,3.892722012E0
1.185105592E1,2.801413883E0,4.323489726E-1,2.676671723E0,3.898642955E0
1.186102292E1,2.614782746E0,2.956188512E-1,2.668500824E0,3.747716099E0
1.187098992E1,2.400683144E0,1.859356105E-1,2.670829185E0,3.595995015E0
1.188095592E1,2.105355484E0,9.982717395E-2,2.804363219E0,3.508124890E0
1.189092292E1,1.701035725E0,1.482386112E-2,2.996219135E0,3.445442118E0
1.190088992E1,1.142661129E0,-1.080799341E-2,2.929165020E0,3.144169045E0
1.191085692E1,5.944127405E-1,2.627855659E-2,2.319271191E0,2.394375895E0
1.192082292E1,3.276184697E-1,8.237498939E-2,1.642386398E0,1.676768493E0
1.193078992E1,4.057993975E-1,1.143183285E-1,1.310627661E0,1.376766755E0
1.194075692E1,6.827757172E-1,3.845596790E-2,1.326311209E0,1.492234219E0
1.195072392E1,9.728841524E-1,-1.824939394E-1,1.419023491E0,1.730154698E0
1.196068992E1,1.295138679E0,-3.944350415E-1,1.259964461E0,1.849452255E0
1.197065692E1,1.563684044E0,-5.015478462E-1,1.019187815E0,1.932718768E0
1.198062392E1,2.119967823E0,-6.106668305E-1,8.946226792E-1,2.380656902E0
1.199059092E1,2.772211719E0,-6.163292742E-1,9.599151742E-1,2.997741938E0
1.200055692E1,3.349691507E0,-3.663263065E-1,8.414576018E-1,3.473136774E0
1.201052392E1,3.618369605E0,3.982538581E-3,7.592808330E-1,3.697177550E0
1.202049092E1,3.843889988E0,4.317402774E-1,7.080485527E-1,3.932330436E0
1.203045792E1,4.168971789E0,6.479498470E-1,7.860012929E-1,4.291615409E0
1.204042392E1,3.936562509E0,5.967124504E-1,9.373465298E-1,4.090380013E0
1.205039092E1,3.406827283E0,5.310955811E-1,1.026430761E0,3.597512301E0
1.206035792E1,2.854903042E0,3.870365596E-1,8.963291891E-1,3.017229639E0
1.207032492E1,2.275154534E0,1.301461565E-1,9.178109823E-1,2.456754602E0
1.208029092E1,1.687797482E0,-1.663790131E-1,8.639762525E-1,1.903364727E0
1.209025792E1,1.095923603E0,-3.524730831E-1,6.459079993E-1,1.320031424E0
1.210022492E1,6.612393987E-1,-4.741963255E-1,3.841328323E-1,8.998098301E-1
1.211019192E1,4.018864408E-1,-5.359189492E-1,2.441259313E-1,7.129651477E-1
1.212015792E1,2.870491719E-1,-5.769108546E-1,9.098267555E-2,6.507697046E-1
1.213012492E1,3.406571759E-1,-5.971001208E-1,-1.041867118E-1,6.952918356E-1
1.214009192E1,6.171630871E-1,-5.377508819E-1,-3.567881821E-1,8.929524590E-1
1.215005892E1,1.033305917E0,-4.916789156E-1,-3.860213368E-1,1.207676176E0
1.216002492E1,1.439010443E0,-4.172847909E-1,-1.511974485E-1,1.505901166E0
1.216999192E1,1.738509507E0,-2.858545858E-1,1.540115672E-1,1.768572224E0
1.217995892E1,1.820485716E0,-3.694329321E-2,5.682879657E-1,1.907481130E0
1.218992592E1,1.665410833E0,2.764218575E-1,1.000786481E0,1.962543213E0
1.219989192E1,1.667449903E0,4.873490524E-1,1.234760622E0,2.131321673E0
1.220985892E1,1.589415740E0,5.144134748E-1,1.287249177E0,2.108998355E0
1.221982592E1,1.240824624E0,4.461636043E-1,1.211910727E0,1.790931411E0
1.222979292E1,6.923173499E-1,4.696974778E-1,9.846120590E-1,1.292044868E0
1.223975892E1,6.954283610E-2,5.556842923E-1,5.346382628E-1,7.742475772E-1
1.224972592E1,-5.261064443E-1,4.700132275E-1,-5.092924833E-4,7.054790458E-1
1.225969292E1,-8.445184730E-1,1.129869175E-1,-5.641288412E-1,1.021870268E0
1.226965992E1,-8.949486615E-1,-2.145805353E-1,-8.878710455E-1,1.278785716E0
1.227962592E1,-8.379200363E-1,-4.221110827E-1,-9.068458450E-1,1.304859050E0
1.228959292E1,-6.942972171E-1,-5.686411375E-1,-7.762705028E-1,1.186590604E0
1.229955992E1,-3.935930425E-1,-5.601889873E-1,-5.749111068E-1,8.940078105E-1
1.230952692E1,6.607105181E-2,-4.406414938E-1,-4.632365969E-1,6.427429149E-1
1.231949292E1,-5.428642720E-2,-2.925508171E-1,-3.365920454E-1,4.492518245E-1
1.232945992E1,-2.395402524E-1,-3.290432900E-1,-5.400035217E-2,4.105667513E-1
1.233942692E1,-1.664417244E-1,-5.129984486E-1,1.863232809E-1,5.706019812E-1
1.234939392E1,-4.463694263E-1,-8.380194390E-1,3.388074093E-1,1.008123358E0
1.235935992E1,-8.190620349E-1,-1.046377367E0,4.405011606E-1,1.399931957E0
1.236932692E1,-1.188308587E0,-1.198751130E0,2.716698253E-1,1.709645011E0
1.237929392E1,-1.347524907E0,-1.428770068E0,-2.700244188E-3,1.963979270E0
1.238926092E1,-1.431189938E0,-1.477168057E0,-6.793064180E-1,2.166053397E0
1.239922692E1,-1.363086833E0,-1.281841233E0,-1.255994201E0,2.253584721E0
1.240919392E1,-9.603180474E-1,-8.069590294E-1,-1.282191189E0,1.793713431E0
1.241916092E1,-6.766456425E-1,-4.244739425E-1,-8.738757348E-1,1.183928314E0
1.242912792E1,-2.773096110E-1,-1.980066025E-1,-1.365120202E-2,3.410184604E-1
1.243909417E1,1.332102437E-1,-3.247993809E-1,7.384109509E-1,8.176125851E-1
1.244906117E1,4.444489083E-1,-1.539238590E-1,9.207712814E-1,1.033947358E0
1.245902817E1,3.528142682E-1,2.594473904E-1,7.029651296E-1,8.282214859E-1
1.246899517E1,1.240004405E-2,7.273246300E-1,3.962608346E-1,8.283583328E-1
1.247896117E1,-3.339409178E-1,1.120638760E0,1.702443150E-1,1.181664459E0
1.248892817E1,-7.217374693E-1,1.354596968E0,8.716035068E-2,1.537346691E0
1.249889517E1,-1.065807519E0,1.509905448E0,1.071885261E-1,1.851283206E0
1.250886217E1,-1.280924975E0,1.626598331E0,2.017096442E-1,2.080210975E0
1.251882817E1,-1.396672801E0,1.537313102E0,2.963564774E-1,2.098059496E0
1.252879517E1,-1.491257654E0,1.248319731E0,3.929343536E-1,1.984073826E0
1.253876217E1,-1.335693651E0,9.080000854E-1,5.703526175E-1,1.712846693E0
1.254872917E1,-1.023660204E0,5.241186833E-1,8.235462646E-1,1.414499578E0
1.255869517E1,-7.702911401E-1,8.924312890E-2,1.008734747E0,1.272343730E0
1.256866217E1,-5.578813836E-1,-2.944657803E-1,1.063096896E0,1.236170192E0
1.257862917E1,-3.604239808E-1,-5.974415982E-1,9.472486433E-1,1.176487102E0
1.258859617E1,-4.077791186E-1,-1.170051826E0,7.028967172E-1,1.424559188E0
1.259856217E1,-2.540894406E-1,-2.255280433E0,-2.350449130E-1,2.281687399E0
1.260852917E1,3.724767002E-1,-3.070267105E0,-1.780025176E0,3.568440642E0
1.261849617E1,8.117093074E-1,-3.565438562E0,-2.891591982E0,4.661815990E0
1.262846317E1,1.476124914E0,-3.696052496E0,-3.242093091E0,5.133314370E0
1.263842917E1,2.815274708E0,-3.920624169E0,-1.675245557E0,5.109159738E0
1.264839617E1,3.157837930E0,-3.549876782E0,-2.320747175E0,5.287668012E0
1.265836317E1,2.508942588E0,-2.272592284E0,-3.855324803E0,5.130594306E0
1.266833017E1,1.511859734E0,-1.098063245E0,-3.228057142E0,3.729854643E0
1.267829617E1,8.466157231E-1,-2.646642762E-1,-1.409093018E0,1.665037085E0
1.268826317E1,6.510551570E-1,4.539292914E-1,-1.401913807E-2,7.938017103E-1
1.269823017E1,3.670170088E-1,1.000306571E0,6.573052458E-1,1.251944450E0
1.270819717E1,3.920808063E-1,1.137058911E0,7.739807332E-1,1.430271478E0
1.271816317E1,5.798749544E-1,1.379432432E0,1.327464134E-1,1.502235137E0
1.272813017E1,6.537363978E-1,1.752387727E0,-7.973729579E-1,2.033233301E0
1.273809717E1,6.316090719E-1,2.157123808E0,-1.635672625E0,2.779844974E0
1.274806417E1,5.746868661E-1,2.201016517E0,-2.401721025E0,3.308020947E0
1.275803017E1,5.007746981E-1,1.957022733E0,-2.580110804E0,3.276840710E0
1.276799717E1,3.414162907E-1,1.756950309E0,-2.481807414E0,3.059870506E0
1.277796417E1,2.681261203E-1,1.562249138E0,-2.454785677E0,2.922068908E0
1.278793117E1,1.583338290E-1,1.551893134E0,-2.201256399E0,2.697956938E0
1.279789717E1,-8.820086271E-2,1.496776695E0,-2.234929783E0,2.691287982E0
1.280786417E1,-3.913852800E-1,1.071218678E0,-2.287558233E0,2.556093614E0
1.281783117E1,-6.911594550E-1,4.308304507E-1,-2.246923592E0,2.389975292E0
1.282779817E1,-8.354744384E-1,-2.423904777E-2,-2.529414859E0,2.663934046E0
1.283776417E1,-8.832068677E-1,-5.040808600E-1,-2.656994088E0,2.844955091E0
1.284773117E1,-7.805503723E-1,-8.541185778E-1,-2.667723144E0,2.907838407E0
1.285769817E1,-7.800038038E-1,-8.293018252E-1,-2.500388696E0,2.747378948E0
1.286766517E1,-7.110434966E-1,-4.940645796E-1,-1.902840679E0,2.090570571E0
1.287763117E1,-8.183016045E-1,1.444899613E-1,-1.219325143E0,1.475550293E0
1.288759817E1,-1.050362830E0,8.812063891E-1,-7.087363315E-1,1.543403370E0
1.289756517E1,-1.355769335E0,1.316816939E0,-9.432541180E-1,2.112308138E0
1.290753217E1,-2.069706911E0,7.198998356E-1,-1.682894154E0,2.762983026E0
1.291749817E1,-2.484676058E0,-1.195931602E0,-1.845660757E0,3.318181903E0
1.292746517E1,-2.616169413E0,-3.577011956E0,-1.022828876E0,4.548135425E0
1.293743217E1,-2.124598233E0,-5.326521683E0,-2.909808215E-1,5.741987525E0
1.294739917E1,-1.254896679E0,-6.007919358E0,8.814326763E-1,6.200547093E0
1.295736517E1,1.765976071E-2,-4.804332581E0,2.040275974E0,5.219640741E0
1.296733217E1,8.986385469E-1,-2.270464482E0,1.335298233E0,2.783088496E0
1.297729917E1,1.914257075E-1,2.420384753E-1,-4.655705130E-1,5.585537822E-1
1.298726617E1,6.621400161E-1,6.865385467E-1,-8.407266998E-1,1.271450338E0
1.299723217E1,1.350224713E0,3.500084817E-1,1.360014852E-1,1.401466773E0
1.300719917E1,1.461163204E0,5.380333024E-1,1.792571547E0,2.374403187E0
1.301716617E1,1.572016473E0,8.131424600E-1,2.640440036E0,3.178735603E0
1.302713317E1,1.640901497E0,1.344581857E0,3.097634997E0,3.754437464E0
1.303709917E1,1.864713324E0,1.814641863E0,3.550918171E0,4.402170003E0
1.304706617E1,2.144214179E0,1.915436166E0,3.851569136E0,4.806364007E0
1.305703317E1,2.311921972E0,1.618747859E0,4.031526554E0,4.921232995E0
1.306700017E1,2.667108017E0,1.324678520E0,3.796866095E0,4.825394336E0
1.307696617E1,3.216136424E0,1.288789480E0,3.329831439E0,4.805443708E0
1.308693317E1,3.682220030E0,1.238194692E0,2.997280405E0,4.906685263E0
1.309690017E1,3.720804052E0,1.193182241E0,2.734589564E0,4.769281574E0
1.310686717E1,3.403053782E0,1.285568249E0,2.686850556E0,4.522458035E0
1.311683317E1,2.808571460E0,1.440446958E0,2.853484508E0,4.255036418E0
1.312680017E1,2.031323302E0,1.403546934E0,2.809298269E0,3.740103624E0
1.313676717E1,1.480135811E0,1.053544300E0,2.529643486E0,3.114458825E0
1.314673417E1,8.203740039E-1,5.456627494E-1,2.074465814E0,2.296556064E0
1.315670017E1,1.931896663E-1,6.051634312E-2,1.437762501E0,1.451945414E0
1.316666717E1,-3.114671445E-1,-2.418665671E-1,9.525932908E-1,1.030992336E0
1.317663417E1,-6.436717317E-1,-3.744112515E-1,8.277891505E-1,1.113432513E0
1.318660117E1,-7.509888965E-1,-2.860943216E-1,8.246515346E-1,1.151470554E0
1.319656717E1,-7.705082180E-1,-2.343716061E-1,6.750587082E-1,1.050864988E0
1.320653417E1,-1.002107367E0,-1.123431391E-1,3.815191269E-2,1.009106399E0
1.321650117E1,-8.975405860E-1,7.372754216E-2,-4.669351801E-1,1.014417723E0
1.322646817E1,-6.930656473E-1,1.892281777E-1,-3.488161614E-1,7.986363435E-1
1.323643417E1,-2.196009547E-1,2.848073494E-1,9.791688859E-2,3.727298253E-1
1.324640117E1,2.299952576E-1,2.627335256E-1,3.795211333E-1,5.157160213E-1
1.325636817E1,7.985152115E-1,2.332559574E-1,3.331024271E-1,8.960982712E-1
1.326633517E1,1.196970506E0,1.893094540E-1,6.479306974E-2,1.213579253E0
1.327630117E1,1.584220489E0,-8.530619860E-2,-2.063785728E-1,1.599882440E0
1.328626817E1,1.878538189E0,-4.016195154E-1,-3.815045089E-1,1.958506996E0
1.329623517E1,1.905576006E0,-6.112246549E-1,-5.476484638E-1,2.074785371E0
1.330620217E1,1.895667168E0,-6.643378383E-1,-8.017807353E-1,2.162810931E0
1.331616817E1,1.692270602E0,-5.250846434E-1,-9.685978509E-1,2.019325499E0
1.332613517E1,1.515722550E0,-1.904993623E-1,-9.860004073E-1,1.818213865E0
1.333610217E1,1.056048662E0,-7.214411616E-2,-8.516855514E-1,1.358606576E0
1.334606917E1,6.815000010E-1,-4.958438873E-3,-8.294075136E-1,1.073491342E0
1.335603517E1,4.110478583E-1,1.612404799E-1,-1.063393350E0,1.151418365E0
1.336600217E1,9.975861534E-2,2.334945238E-1,-1.265271540E0,1.290497402E0
1.337596917E1,-7.225667506E-2,2.554619282E-1,-1.515294388E0,1.538375411E0
1.338593617E1,-1.823680781E-1,3.026150447E-1,-1.881169728E0,1.914062049E0
1.339590217E1,2.010623574E-2,3.030173331E-1,-1.911270171E0,1.935246091E0
1.340586917E1,4.186058231E-1,-9.064879954E-2,-1.649606101E0,1.704302886E0
1.341583617E1,6.332545515E-1,-5.583687490E-1,-1.540133360E0,1.756359233E0
1.342580317E1,7.696141787E-1,-8.310688537E-1,-1.773535936E0,2.104379039E0
1.343576917E1,1.026055077E0,-9.322911733E-1,-2.132227387E0,2.543295005E0
1.344573529E1,1.496791897E0,-1.055751624E0,-2.292960475E0,2.934734267E0
1.345570229E1,2.138662248E0,-1.274004210E0,-2.163318933E0,3.298016335E0
1.346566929E1,2.640137735E0,-1.375415395E0,-1.953964055E0,3.560908633E0
1.347563529E1,2.897399436E0,-1.348645087E0,-1.816711192E0,3.676167382E0
1.348560229E1,3.173746449E0,-1.281035487E0,-1.427971339E0,3.708479552E0
1.349556929E1,3.333396487E0,-1.686414762E0,-6.813191758E-1,3.797330998E0
1.350553629E1,2.890493582E0,-2.484234594E0,-6.267688930E-2,3.811863462E0
1.351550229E1,1.867990835E0,-3.349616663E0,4.062101644E-1,3.856725067E0
1.352546929E1,5.728635581E-1,-3.803600333E0,5.061899507E-1,3.879661895E0
1.353543629E1,-2.648164500E-1,-3.820858975E0,7.292126960E-1,3.898825748E0
1.354540329E1,-6.424905941E-1,-3.446440707E0,1.427709968E0,3.785380227E0
1.355536929E1,-1.044656678E0,-2.621524878E0,2.021154994E0,3.471133500E0
1.356533629E1,-1.262506538E0,-1.241701852E0,2.234424438E0,2.851034692E0
1.357530329E1,-1.039447174E0,1.231610727E-1,2.187939073E0,2.425427069E0
1.358527029E1,-9.801532647E-1,1.476473992E0,1.930809373E0,2.620820617E0
1.359523629E1,-1.196894565E0,2.542047769E0,1.425201951E0,3.150518062E0
1.360520329E1,-1.540944808E0,3.139665368E0,8.646330410E-1,3.602721169E0
1.361517029E1,-1.931390586E0,3.450291098E0,3.985940199E-1,3.974123231E0
1.362513729E1,-2.487678019E0,3.499525239E0,1.992690164E-1,4.298246964E0
1.363510329E1,-3.207517628E0,3.123802457E0,2.658692412E-1,4.485197607E0
1.364507029E1,-3.425015924E0,2.315835367E0,5.226317364E-1,4.167369849E0
1.365503729E1,-3.066994418E0,1.750583276E0,1.057331541E0,3.686318835E0
1.366500429E1,-2.746807905E0,1.481727716E0,1.527247120E0,3.474615728E0
1.367497029E1,-2.283105578E0,1.118155448E0,1.861924787E0,3.151127830E0
1.368493729E1,-1.823443384E0,5.813635093E-1,2.108738099E0,2.847754497E0
1.369490429E1,-1.580493035E0,-1.318494505E-1,2.232768652E0,2.738722032E0
1.370487129E1,-1.304151139E0,-9.261919427E-1,2.166722597E0,2.693200424E0
1.371483729E1,-1.026909794E0,-1.669956604E0,1.687218754E0,2.586504574E0
1.372480429E1,-6.376979238E-1,-2.237494372E0,4.111896533E-1,2.362650342E0
1.373477129E1,1.027453731E-1,-2.225640312E0,-1.150930846E0,2.507722716E0
1.374473829E1,6.993420486E-1,-1.751145778E0,-1.991005581E0,2.742206057E0
1.375470429E1,9.244360238E-1,-1.268325979E0,-1.830850344E0,2.411482062E0
1.376467129E1,9.447550982E-1,-8.749282336E-1,-8.966284204E-1,1.569077479E0
1.377463829E1,9.356042057E-1,-7.305604792E-1,-3.149953544E-1,1.228126995E0
1.378460529E1,5.679418105E-1,-3.376498067E-1,-9.378179616E-1,1.147199992E0
1.379457129E1,4.172492690E-2,2.457935572E-1,-1.397669313E0,1.419730591E0
1.380453829E1,-5.141135857E-1,5.307038176E-1,-1.102414670E0,1.327131277E0
1.381450529E1,-8.746175272E-1,6.694705242E-1,-4.163397712E-1,1.177491149E0
1.382447229E1,-9.768681528E-1,8.456138027E-1,3.315371275E-2,1.292452421E0
1.383443829E1,-7.962260997E-1,8.879961759E-1,2.160608310E-2,1.192887268E0
1.384440529E1,-5.629953584E-1,8.101124328E-1,-2.545468390E-1,1.018842491E0
1.385437229E1,-2.164416309E-1,6.131963360E-1,-7.244296736E-1,9.734757717E-1
1.386433929E1,2.428705341E-1,4.545374018E-1,-1.364848891E0,1.458904672E0
1.387430529E1,6.229693723E-1,3.789586312E-1,-2.061034759E0,2.186221572E0
1.388427229E1,1.021266573E0,5.624436736E-1,-2.538166972E0,2.793137998E0
1.389423929E1,1.228937673E0,1.005880136E0,-2.494842027E0,2.957417690E0
1.390420629E1,1.282793891E0,1.292293716E0,-2.069291613E0,2.756365541E0
1.391417229E1,1.088409785E0,1.381995851E0,-1.328273973E0,2.204282228E0
1.392413929E1,7.507379048E-1,1.185652197E0,-8.104580033E-1,1.620561850E0
1.393410629E1,5.188596245E-1,8.336550772E-1,-7.829491925E-1,1.255868439E0
1.394407229E1,3.664504867E-1,2.201406527E-1,-1.135095416E0,1.212925995E0
1.395403929E1,3.056033374E-1,-3.965067101E-1,-1.652267607E0,1.726441200E0
1.396400629E1,1.101708984E-1,-9.733859897E-1,-2.190192736E0,2.399283671E0
1.397397329E1,-1.670742470E-1,-1.369182848E0,-2.670900521E0,3.006041428E0
1.398393929E1,-5.198324550E-1,-1.501477271E0,-2.856750762E0,3.268896556E0
1.399390629E1,-1.215239401E0,-1.291927096E0,-2.622732328E0,3.166166023E0
1.400387329E1,-1.970075180E0,-8.331112862E-1,-1.996570376E0,2.926015020E0
1.401384029E1,-2.487808704E0,-2.697905302E-1,-1.422180841E0,2.878294186E0
1.402380629E1,-2.921281804E0,1.724273729E-1,-1.374310856E0,3.233009265E0
1.403377329E1,-3.221298931E0,1.448179901E-1,-1.939037282E0,3.762659250E0
1.404374029E1,-3.631644538E0,-1.083378548E0,-2.569950682E0,4.578995265E0
1.405370729E1,-3.438178006E0,-3.014106352E0,-1.874409177E0,4.941590318E0
1.406367329E1,-2.564352265E0,-4.453756920E0,-9.080258131E-2,5.140048477E0
1.407364029E1,-1.915943704E0,-4.435151664E0,1.842229611E0,5.170611231E0
1.408360729E1,-2.035643225E0,-3.167073607E0,2.624576540E0,4.589400896E0
1.409357429E1,-1.772724781E0,-1.064886144E0,1.884956385E0,2.798141566E0
1.410354029E1,-8.880949938E-1,9.724861032E-1,7.749361682E-1,1.528060209E0
1.411350729E1,1.808564267E-1,2.244401103E0,8.633425605E-1,2.411515237E0
1.412347429E1,1.257808300E0,3.112149541E0,2.145787811E0,3.983963079E0
1.413344129E1,2.196208937E0,3.366525056E0,3.446250672E0,5.294664139E0
1.414340729E1,2.674643032E0,3.203126369E0,4.346238903E0,6.025240782E0
1.415337429E1,2.731014576E0,2.682307854E0,4.706106960E0,6.066354651E0
1.416334129E1,2.596601706E0,1.903578597E0,4.607908820E0,5.621278822E0
1.417330829E1,2.413153063E0,9.717031610E-1,4.211204474E0,4.949925036E0
1.418327429E1,2.114824173E0,2.044362009E-1,3.840253605E0,4.388829365E0
1.419324129E1,1.823878417E0,-1.317196423E-1,3.268402930E0,3.745175598E0
1.420320829E1,1.494818608E0,-2.494889975E-2,2.648015689E0,3.040903189E0
1.421317529E1,1.069772223E0,1.672742218E-1,2.350123440E0,2.587561296E0
1.422314129E1,5.878357923E-1,3.235129935E-1,2.496034859E0,2.584647286E0
1.423310829E1,1.160330245E-1,3.612292886E-1,2.842551384E0,2.867760212E0
1.424307529E1,-2.867933562E-1,4.013715935E-1,3.076606071E0,3.115903481E0
1.425304229E1,-6.292796874E-1,5.339268029E-1,3.112483417E0,3.220034748E0
1.426300829E1,-1.019149077E0,7.053876311E-1,2.918420177E0,3.170711730E0
1.427297529E1,-1.112653949E0,6.463243210E-1,2.403558805E0,2.726321490E0
1.428294229E1,-1.096021398E0,2.309463072E-1,1.874047819E0,2.183266894E0
1.429290929E1,-1.113675823E0,-8.700832307E-2,1.456164858E0,1.835282099E0
1.430287529E1,-1.088716033E0,-2.021744978E-1,1.261791716E0,1.678777967E0
1.431284229E1,-8.972890826E-1,-1.969190204E-1,1.215503987E0,1.523599272E0
1.432280929E1,-4.082378326E-1,-2.553309506E-1,1.113468320E0,1.213121478E0
1.433277629E1,1.036581235E-1,-1.643389195E-1,7.661320156E-1,7.903863311E-1
1.434274229E1,4.825872262E-1,-2.043309510E-2,4.113422291E-1,6.344370510E-1
1.435270929E1,9.195252398E-1,-1.830821693E-2,1.565638769E-1,9.329384250E-1
1.436267629E1,1.250373419E0,2.733491457E-1,-5.185362004E-2,1.280953645E0
1.437264329E1,1.685531540E0,5.655193090E-1,-2.259030837E-1,1.792166528E0
1.438260929E1,1.984624368E0,5.563725096E-1,-4.349649438E-1,2.106532401E0
1.439257629E1,2.062265452E0,2.611044914E-1,-5.220545431E-1,2.143281432E0
1.440254329E1,2.017697536E0,-5.644492686E-2,-5.260822514E-1,2.085917523E0
1.441251029E1,1.737194468E0,-2.534300208E-1,-5.832849775E-1,1.849943988E0
1.442247629E1,1.561418395E0,-1.923289561E-1,-7.603029994E-1,1.747306064E0
1.443244329E1,1.185973867E0,-2.360328001E-1,-1.006626899E0,1.573385906E0
1.444241046E1,8.437141885E-1,-2.688163841E-1,-1.559112107E0,1.793027172E0
1.445237746E1,5.392813906E-1,-2.861399299E-1,-1.998299983E0,2.089474407E0
1.446234346E1,4.207467811E-1,-3.502061176E-1,-2.091672269E0,2.162120501E0
1.447231046E1,4.193949048E-1,-4.523745167E-1,-1.890669845E0,1.988760230E0
1.448227746E1,3.432042231E-1,-4.231834620E-1,-1.618529904E0,1.707779972E0
1.449224446E1,2.638865966E-1,-3.115478361E-1,-1.447394035E0,1.503877549E0
1.450221046E1,2.136455655E-1,-2.686292732E-1,-1.252182986E0,1.298371420E0
1.451217746E1,1.571977150E-1,-2.785251009E-1,-1.229568880E0,1.270482972E0
1.452214446E1,2.348424532E-1,-3.655568129E-1,-1.408433452E0,1.473929290E0
1.453211146E1,4.956988764E-1,-6.072660899E-1,-1.537724015E0,1.726002499E0
1.454207746E1,8.118918867E-1,-8.544337428E-1,-1.658920569E0,2.035004401E0
1.455204446E1,1.128882311E0,-1.041569202E0,-1.957670166E0,2.488315525E0
1.456201146E1,1.419239253E0,-1.231168093E0,-2.408927134E0,3.054986885E0
1.457197746E1,1.627904160E0,-1.304406808E0,-2.676840708E0,3.393674299E0
1.458194446E1,1.685655647E0,-1.266579416E0,-2.518868821E0,3.284868113E0
1.459191146E1,1.869308359E0,-1.261603435E0,-2.146418287E0,3.113369305E0
1.460187846E1,1.941396342E0,-1.357859715E0,-1.836461917E0,2.997564867E0
1.461184446E1,1.752120802E0,-1.358335093E0,-1.811265826E0,2.862810756E0
1.462181146E1,1.513740637E0,-1.206606864E0,-2.176615502E0,2.912896476E0
1.463177846E1,1.636594584E0,-9.595222414E-1,-2.652246734E0,3.260910533E0
1.464174546E1,2.092683691E0,-8.911741376E-1,-2.236561303E0,3.189940883E0
1.465171146E1,1.416556989E0,-1.384899579E0,-7.198257221E-1,2.107778360E0
1.466167846E1,8.032132300E-1,-1.764498480E0,7.665373738E-1,2.084750806E0
1.467164546E1,4.022567157E-1,-1.755727656E0,1.579966201E0,2.395972301E0
1.468161246E1,9.723203346E-2,-1.395400009E0,2.064455380E0,2.493706332E0
1.469157846E1,-1.784978791E-1,-7.385740882E-1,3.235104792E0,3.323139508E0
1.470154546E1,-5.248770672E-1,-2.009419048E-1,4.429592716E0,4.465105286E0
1.471151246E1,-1.310072029E0,5.421468186E-1,4.514476746E0,4.731882520E0
1.472147946E1,-2.370332879E0,1.470075969E0,3.744122456E0,4.668838643E0
1.473144546E1,-3.277256784E0,2.118313499E0,2.655706531E0,4.720216234E0
1.474141246E1,-3.900815556E0,2.502537548E0,1.693388298E0,4.934229434E0
1.475137946E1,-4.117332689E0,2.764349552E0,1.030257763E0,5.065124676E0
1.476134646E1,-4.187620314E0,2.630044856E0,6.126378538E-1,4.982833028E0
1.477131246E1,-3.952418696E0,2.070282131E0,4.385288217E-1,4.483301147E0
1.478127946E1,-3.512030971E0,1.546840555E0,5.569490451E-1,3.877791831E0
1.479124646E1,-2.866433167E0,1.573942400E0,7.787836361E-1,3.361582623E0
1.480121346E1,-2.367561007E0,1.503182319E0,1.081851255E0,3.005878298E0
1.481117946E1,-2.094769247E0,1.060589610E0,1.519014241E0,2.796482215E0
1.482114646E1,-1.771061687E0,3.118074524E-1,2.108430535E0,2.771166308E0
1.483111346E1,-1.477364231E0,-5.802724189E-1,2.630109760E0,3.071937256E0
1.484108046E1,-1.365552312E0,-1.609996331E0,1.944285159E0,2.870028934E0
1.485104646E1,-9.423524042E-1,-2.622246425E0,-2.856359364E-1,2.801034140E0
1.486101346E1,-1.499427091E-1,-3.350096135E0,-2.320870990E0,4.078243381E0
1.487098046E1,1.122798429E0,-3.369943923E0,-3.396454030E0,4.914580179E0
1.488094746E1,2.251737605E0,-2.704153637E0,-3.720111449E0,5.120741970E0
1.489091346E1,2.531370461E0,-1.586154894E0,-2.884667709E0,4.152713757E0
1.490088046E1,2.546370031E0,-5.693457270E-1,-1.837572303E0,3.191367553E0
1.491084746E1,1.871267176E0,2.055541885E-1,-9.606817442E-1,2.113481200E0
1.492081446E1,1.456790218E0,8.771536839E-1,1.544746667E-1,1.707483162E0
1.493078046E1,1.208585708E0,1.022879747E0,1.152617183E0,1.958440389E0
1.494074746E1,8.913810559E-1,1.045691489E0,1.676104367E0,2.167338627E0
1.495071446E1,6.432312170E-1,1.154046827E0,1.481235380E0,1.984849800E0
1.496068146E1,5.361882866E-1,1.229140279E0,4.292136955E-1,1.408015660E0
1.497064746E1,2.858993901E-1,1.203197352E0,-5.189006281E-1,1.341148833E0
1.498061446E1,1.829764078E-1,1.180463378E0,-1.039312177E0,1.583396335E0
1.499058146E1,4.662338065E-1,1.352328833E0,-1.374265248E0,1.983626025E0
1.500054846E1,4.893053115E-1,1.419302257E0,-1.620629493E0,2.209135247E0
1.501051446E1,2.891166743E-1,1.424583462E0,-1.644134130E0,2.194585047E0
1.502048146E1,2.158929428E-1,1.652695039E0,-1.512415073E0,2.250646575E0
1.503044846E1,1.419255918E-1,1.717469909E0,-1.342790855E0,2.184704338E0
1.504041546E1,-3.241485127E-1,1.397356487E0,-1.072543146E0,1.791096371E0
1.505038146E1,-4.681677731E-1,1.202579302E0,-9.838514093E-1,1.622757417E0
1.506034846E1,-7.501640736E-1,9.600028825E-1,-9.618762573E-1,1.552274978E0
1.507031546E1,-1.007300498E0,6.497981519E-1,-1.100884454E0,1.627525273E0
1.508028246E1,-1.025023847E0,3.252905470E-1,-1.213245719E0,1.621250444E0
1.509024846E1,-9.368919819E-1,-1.094803423E-1,-1.279697059E0,1.589772655E0
1.510021546E1,-8.726802716E-1,-4.151084572E-1,-1.655168996E0,1.916629931E0
1.511018246E1,-7.107411955E-1,-7.502258348E-1,-1.965045552E0,2.220224284E0
1.512014846E1,-5.630759038E-1,-1.096533029E0,-2.061879097E0,2.402245734E0
1.513011546E1,-3.666832790E-1,-1.236709499E0,-1.958937696E0,2.345494385E0
1.514008246E1,-2.347486784E-1,-1.126839148E0,-2.147485843E0,2.436507511E0
1.515004946E1,-2.773805085E-1,-7.710378295E-1,-2.602571129E0,2.728518968E0
1.516001546E1,-3.361239027E-1,-3.939199018E-1,-3.103172311E0,3.146081778E0
1.516998246E1,-1.538441907E-1,1.218793631E-2,-3.585284597E0,3.588604495E0
1.517994946E1,-8.084149130E-1,1.412430024E-1,-3.953765602E0,4.038037480E0
1.518991646E1,-1.652362917E0,-8.859736240E-1,-4.025584613E0,4.440786411E0
1.519988246E1,-1.333514832E0,-3.296377764E0,-1.656944211E0,3.922987674E0
1.520984946E1,-1.236491398E0,-5.325406035E0,8.434151765E-1,5.531745617E0
1.521981646E1,-1.920934741E0,-5.101779272E0,2.639221476E0,6.056701414E0
1.522978346E1,-3.261968070E0,-3.058060457E0,3.035591362E0,5.404348653E0
1.523974946E1,-3.427574081E0,-1.391625631E0,2.319807966E0,4.366508327E0
1.524971646E1,-2.525094352E0,-9.623534632E-1,1.571948061E0,3.126219183E0
1.525968346E1,-1.039903038E0,-9.645917773E-2,1.091042494E0,1.510323285E0
1.526965046E1,1.021642330E-1,1.297909967E0,1.412173916E0,1.920740217E0
1.527961646E1,1.180947966E0,2.320637686E0,2.614164988E0,3.689695916E0
1.528958346E1,1.883185117E0,2.893805737E0,3.650641265E0,5.024706905E0
1.529955046E1,2.284947889E0,2.711384888E0,4.124251699E0,5.438938035E0
1.530951746E1,2.461746787E0,2.113894758E0,4.483744365E0,5.534682631E0
1.531948346E1,2.236983472E0,1.409413446E0,4.898276871E0,5.566296581E0
1.532945046E1,2.003566131E0,8.322494066E-1,4.905780019E0,5.364102339E0
1.533941746E1,1.675746225E0,4.272233033E-1,4.388156422E0,4.716626119E0
1.534938446E1,9.195052861E-1,2.770387387E-1,3.307518464E0,3.444113649E0
1.535935046E1,4.802683666E-2,2.704886878E-1,2.374887422E0,2.390723943E0
1.536931746E1,-2.530695400E-1,3.966236544E-1,2.271944997E0,2.320148397E0
1.537928446E1,-3.843535647E-1,6.505401635E-1,2.539215378E0,2.649253650E0
1.538925146E1,-6.877161759E-1,7.957756448E-1,2.688063269E0,2.886502477E0
1.539921746E1,-9.049092472E-1,8.740605068E-1,2.537271763E0,2.832064709E0
1.540918446E1,-9.697766496E-1,8.744663036E-1,2.134348172E0,2.502119139E0
1.541915146E1,-1.020890085E0,7.540545917E-1,1.557897055E0,2.009442243E0
1.542911846E1,-1.017031654E0,5.872873235E-1,7.780539767E-1,1.408768177E0
1.543908479E1,-8.567292134E-1,1.031641799E-1,1.458857647E-1,8.751630988E-1
1.544905179E1,-5.106940609E-1,-2.840928197E-1,-2.978447400E-2,5.851532013E-1
1.545901879E1,-1.269222942E-1,-6.715071094E-1,-8.866363328E-2,6.891243042E-1
1.546898579E1,1.483426917E-1,-5.915131062E-1,-1.753298577E-1,6.345343710E-1
1.547895179E1,4.432804884E-1,-2.815317392E-1,1.220547795E-1,5.391243649E-1
1.548891879E1,5.295646338E-1,7.746625185E-2,6.004306583E-1,8.043361840E-1
1.549888579E1,6.826185733E-1,3.628086215E-1,5.283181171E-1,9.363323370E-1
1.550885179E1,8.384413887E-1,4.844014710E-1,5.409750366E-1,1.109181111E0
1.551881879E1,8.504199947E-1,5.179492861E-1,5.650047541E-1,1.144865059E0
1.552878579E1,9.290874108E-1,5.889648896E-1,3.207747424E-1,1.145853173E0
1.553875279E1,8.994403464E-1,6.076730561E-1,1.527175784E-1,1.096167021E0
1.554871979E1,8.430638319E-1,5.221312147E-1,-1.606464028E-1,1.004581951E0
1.555868579E1,6.489842194E-1,3.226861972E-1,-6.871870029E-1,9.987656762E-1
1.556865279E1,4.639568277E-1,9.123995304E-3,-9.639883447E-1,1.069865746E0
1.557861979E1,3.555732038E-1,-3.160121852E-1,-9.141028243E-1,1.030475608E0
1.558858579E1,2.343798653E-1,-4.795459431E-1,-7.757869381E-1,9.416706463E-1
1.559855279E1,1.868732116E-1,-4.319414216E-1,-7.370134664E-1,8.744620281E-1
1.560851979E1,1.738541666E-1,-2.706021237E-1,-6.608979213E-1,7.350080564E-1
1.561848679E1,2.374622250E-1,-1.434590971E-1,-5.496915175E-1,6.157349960E-1
1.562845279E1,3.019095781E-1,-1.440876728E-1,-4.725701418E-1,5.789932553E-1
1.563841979E1,4.151227098E-1,-2.509051931E-1,-8.223839843E-1,9.547752080E-1
1.564838679E1,5.267478839E-1,-4.108838439E-1,-1.443182870E0,1.590303639E0
1.565835379E1,7.467126815E-1,-5.888105232E-1,-1.727922977E0,1.972307145E0
1.566831979E1,1.102216230E0,-7.994792712E-1,-1.710191295E0,2.186047115E0
1.567828679E1,1.517963496E0,-1.000612380E0,-1.639320118E0,2.448021397E0
1.568825379E1,1.969115945E0,-1.097529395E0,-1.505229430E0,2.710664865E0
1.569822079E1,2.425828511E0,-1.127380600E0,-1.605177641E0,3.119651621E0
1.570818679E1,2.869369639E0,-1.020131555E0,-1.795339619E0,3.535137177E0
1.571815379E1,3.158359501E0,-9.137619317E-1,-1.869915592E0,3.782430426E0
1.572812079E1,3.242083443E0,-1.015957813E0,-1.627844957E0,3.767380328E0
1.573808779E1,2.924505374E0,-1.004718879E0,-1.388738276E0,3.389806146E0
1.574805379E1,2.534874405E0,-7.574278504E-1,-1.320458584E0,2.956838864E0
1.575802079E1,2.125191871E0,-4.154920346E-1,-1.551031255E0,2.663601335E0
1.576798779E1,2.045339955E0,-1.123834848E-1,-1.457737175E0,2.514168501E0
1.577795479E1,1.749211812E0,-2.636129469E-1,-8.524434236E-1,1.963642925E0
1.578792079E1,8.870407408E-1,-1.048817410E0,-2.007822758E-1,1.388226480E0
1.579788779E1,4.782154092E-1,-1.749622579E0,7.378904756E-1,1.958150020E0
1.580785479E1,5.260710686E-1,-1.858556791E0,1.750898295E0,2.607034513E0
1.581782179E1,2.409575444E-1,-1.660777645E0,2.933337593E0,3.379454447E0
1.582778779E1,-6.423750385E-1,-1.249537706E0,3.740235811E0,3.995416636E0
1.583775479E1,-1.744692499E0,-5.069348860E-1,3.893007184E0,4.296095882E0
1.584772179E1,-2.739114724E0,5.028792572E-1,3.490562627E0,4.465385142E0
1.585768879E1,-3.499750941E0,1.280288798E0,2.879910999E0,4.709700990E0
1.586765479E1,-4.208403073E0,1.749555336E0,2.175826128E0,5.050328666E0
1.587762179E1,-4.707104495E0,1.827904517E0,1.311408849E0,5.217073971E0
1.588758879E1,-5.284452721E0,1.586545488E0,5.134164514E-1,5.541314248E0
1.589755579E1,-5.761739300E0,1.100906746E0,-1.194691408E-1,5.867189131E0
1.590752179E1,-5.702612840E0,6.898749679E-1,-4.143570169E-1,5.759115593E0
1.591748879E1,-5.169744968E0,6.166228044E-1,-4.462782097E-1,5.225480931E0
1.592745579E1,-4.368491359E0,7.061202872E-1,-2.475354793E-1,4.432109704E0
1.593742279E1,-3.522257752E0,6.546764839E-1,2.852447212E-1,3.593920633E0
1.594738879E1,-2.693088073E0,4.725877565E-1,9.547070593E-1,2.896122948E0
1.595735579E1,-2.043172977E0,3.777242839E-2,1.541086895E0,2.559478734E0
1.596732279E1,-1.334536048E0,-4.925869882E-1,1.463224787E0,2.040748682E0
1.597728879E1,-7.182760638E-1,-1.048712161E0,9.030357993E-1,1.559227807E0
1.598725579E1,-1.745604737E-1,-1.658971440E0,2.428524260E-1,1.685714952E0
1.599722279E1,5.584849259E-1,-2.100798749E0,-2.504467714E-1,2.188146335E0
1.600718979E1,1.335990982E0,-2.005620112E0,-9.657840246E-1,2.596174632E0
1.601715579E1,1.808314883E0,-1.540517961E0,-1.739185299E0,2.944140589E0
1.602712279E1,1.869350897E0,-7.097438067E-1,-1.855044369E0,2.727526106E0
1.603708979E1,1.802067718E0,3.154543608E-1,-9.993055272E-1,2.084603331E0
1.604705679E1,1.440409536E0,1.144255664E0,1.121495962E-3,1.839592866E0
1.605702279E1,1.039381978E0,1.519613580E0,7.192437780E-1,1.976575812E0
1.606698979E1,7.319948012E-1,1.714749784E0,9.112277484E-1,2.075215464E0
1.607695679E1,1.921439648E-1,1.812963712E0,8.574894977E-1,2.014707165E0
1.608692379E1,-4.732667279E-1,1.627574231E0,4.905240905E-1,1.764537661E0
1.609688979E1,-9.002669965E-1,1.412779103E0,-1.351747620E-1,1.680683693E0
1.610685679E1,-1.032165125E0,1.140881236E0,-6.961449373E-1,1.688665927E0
1.611682379E1,-9.899515902E-1,8.657638925E-1,-9.868953967E-1,1.644236538E0
1.612679079E1,-9.541751819E-1,6.689021748E-1,-8.682822883E-1,1.453201476E0
1.613675679E1,-8.357751314E-1,6.204006904E-1,-6.352496215E-1,1.219409352E0
1.614672379E1,-6.585493872E-1,8.550658268E-1,-4.787395390E-1,1.180684721E0
1.615669079E1,-4.393658872E-1,1.172944443E0,-4.660429315E-1,1.336426977E0
1.616665779E1,-3.512322309E-1,1.597326584E0,-7.502913237E-1,1.799375827E0
1.617662379E1,-4.503463369E-1,1.756845644E0,-1.207913132E0,2.179076083E0
1.618659079E1,-3.305112335E-1,1.795489892E0,-1.504665173E0,2.365806187E0
1.619655779E1,-5.347829814E-1,1.365021969E0,-1.632606930E0,2.194238638E0
1.620652479E1,-4.897226200E-1,7.518361580E-1,-1.614432614E0,1.847018819E0
1.621649079E1,-2.779121300E-1,3.336017793E-1,-1.691959677E0,1.746783572E0
1.622645779E1,-1.082481147E-1,8.428878307E-2,-1.739322124E0,1.744724535E0
1.623642479E1,2.334563707E-1,-5.589704275E-2,-1.723500727E0,1.740138246E0
1.624639179E1,3.867154013E-1,-4.727415383E-2,-1.610533690E0,1.656985943E0
1.625635779E1,6.316535839E-1,-1.531385779E-3,-1.518977988E0,1.645078333E0
1.626632479E1,2.940501894E-1,-2.755623168E-1,-1.583038913E0,1.633527565E0
1.627629179E1,-1.546454420E-1,-5.062794131E-1,-1.606246512E0,1.691230887E0
1.628625779E1,-6.155647507E-1,-6.606049758E-1,-1.648972117E0,1.880007430E0
1.629622479E1,-1.189071356E0,-8.814958262E-1,-2.035898602E0,2.517103236E0
1.630619179E1,-1.443832788E0,-1.007171786E0,-2.678462141E0,3.205184482E0
1.631615879E1,-1.385795518E0,-1.141438476E0,-3.231397072E0,3.696652276E0
1.632612579E1,-1.050177107E0,-1.000791889E0,-3.641593283E0,3.919905357E0
1.633609179E1,-7.473091706E-1,-7.234058261E-1,-3.812519091E0,3.951846253E0
1.634605879E1,-9.211259151E-1,-6.230640972E-1,-3.528718632E0,3.699802293E0
1.635602579E1,-1.185141297E0,-1.282271588E0,-2.816511394E0,3.313837164E0
1.636599179E1,-1.447240984E0,-3.399251922E0,-1.313623774E0,3.921100294E0
