"Time (s)","Acceleration x (m/s^2)","Acceleration y (m/s^2)","Acceleration z (m/s^2)"
2.949714000E-2,-2.836530447E0,5.471948147E0,7.746439457E0
3.149927600E-2,-2.774281263E0,5.457582951E0,7.751227856E0
3.350172400E-2,-2.745550871E0,5.481524944E0,7.765593052E0
3.550443200E-2,-2.731185675E0,5.486313343E0,7.722497463E0
3.750734900E-2,-2.692878246E0,5.486313343E0,7.722497463E0
3.951042100E-2,-2.664147854E0,5.467159748E0,7.712920666E0
4.151359900E-2,-2.616263866E0,5.467159748E0,7.703343868E0
4.351682800E-2,-2.601898670E0,5.457582951E0,7.727285862E0
4.552005700E-2,-2.568379879E0,5.481524944E0,7.708132267E0
4.752250500E-2,-2.544437885E0,5.486313343E0,7.712920666E0
4.952438000E-2,-2.520495892E0,5.495890141E0,7.708132267E0
5.152625500E-2,-2.525284290E0,5.510255337E0,7.717709064E0
5.352813000E-2,-2.506130695E0,5.495890141E0,7.708132267E0
5.553000500E-2,-2.510919094E0,5.505466938E0,7.712920666E0
5.753188000E-2,-2.506130695E0,5.519832134E0,7.727285862E0
5.953375500E-2,-2.515707493E0,5.543774128E0,7.717709064E0
6.153563000E-2,-2.501342297E0,5.553350925E0,7.736862659E0
6.353750500E-2,-2.496553898E0,5.586869717E0,7.736862659E0
6.553938000E-2,-2.496553898E0,5.577292919E0,7.775169849E0
6.754125500E-2,-2.482188702E0,5.577292919E0,7.784746647E0
6.954313000E-2,-2.496553898E0,5.577292919E0,7.799111843E0
7.154500500E-2,-2.477400303E0,5.586869717E0,7.813477039E0
7.354688000E-2,-2.463035107E0,5.591658115E0,7.851784706E0
7.554875500E-2,-2.467823505E0,5.577292919E0,7.837419033E0
7.755063000E-2,-2.443881273E0,5.586869717E0,7.856573105E0
7.955250500E-2,-2.424727678E0,5.582081318E0,7.856573105E0
8.155438000E-2,-2.419939280E0,5.548562527E0,7.851784706E0
8.355625500E-2,-2.410362482E0,5.567716122E0,7.832630634E0
8.555813000E-2,-2.415150881E0,5.558139324E0,7.827842236E0
8.756000500E-2,-2.410362482E0,5.558139324E0,7.846996307E0
8.956188000E-2,-2.434304476E0,5.548562527E0,7.837419033E0
9.156375500E-2,-2.424727678E0,5.558139324E0,7.803900242E0
9.356563000E-2,-2.439092875E0,5.524620533E0,7.813477039E0
9.556750500E-2,-2.472611904E0,5.505466938E0,7.770381451E0
9.756938000E-2,-2.463035107E0,5.515043736E0,7.756016254E0
9.957125500E-2,-2.486977100E0,5.515043736E0,7.741651058E0
1.015731300E-1,-2.486977100E0,5.524620533E0,7.722497463E0
1.035750050E-1,-2.477400303E0,5.510255337E0,7.741651058E0
1.055768800E-1,-2.443881273E0,5.515043736E0,7.746439457E0
1.075787550E-1,-2.424727678E0,5.515043736E0,7.727285862E0
1.095806300E-1,-2.424727678E0,5.486313343E0,7.741651058E0
1.115825050E-1,-2.410362482E0,5.495890141E0,7.722497463E0
1.135843800E-1,-2.400785685E0,5.486313343E0,7.717709064E0
1.155862550E-1,-2.395997286E0,5.476736546E0,7.732074261E0
1.175881300E-1,-2.386420488E0,5.471948147E0,7.679401875E0
1.195900050E-1,-2.405574083E0,5.467159748E0,7.688978672E0
1.215918800E-1,-2.400785685E0,5.467159748E0,7.669825077E0
1.235937550E-1,-2.372055292E0,5.457582951E0,7.665036678E0
1.255956300E-1,-2.367266893E0,5.452794552E0,7.636306286E0
1.275975050E-1,-2.343324900E0,5.457582951E0,7.607575893E0
1.295993800E-1,-2.348113298E0,5.471948147E0,7.602787495E0
1.316012550E-1,-2.309806108E0,5.462371349E0,7.612364292E0
1.336031300E-1,-2.295440912E0,5.462371349E0,7.597999096E0
1.356050050E-1,-2.300229311E0,5.462371349E0,7.607575893E0
1.376068800E-1,-2.281075716E0,5.452794552E0,7.578845501E0
1.396087550E-1,-2.300229311E0,5.452794552E0,7.612364292E0
1.416106300E-1,-2.295440912E0,5.452794552E0,7.617152691E0
1.436125050E-1,-2.309806108E0,5.452794552E0,7.621941090E0
1.456143800E-1,-2.305017710E0,5.438429356E0,7.631517887E0
1.476162550E-1,-2.328959703E0,5.457582951E0,7.645883083E0
1.496181300E-1,-2.348113298E0,5.467159748E0,7.665036678E0
1.516200050E-1,-2.357690096E0,5.448006153E0,7.703343868E0
1.536218800E-1,-2.381632090E0,5.452794552E0,7.727285862E0
1.556237550E-1,-2.429516077E0,5.462371349E0,7.741651058E0
1.576256300E-1,-2.486977100E0,5.443217754E0,7.775169849E0
1.596275050E-1,-2.539649487E0,5.467159748E0,7.813477039E0
1.616293800E-1,-2.601898670E0,5.481524944E0,7.866149902E0
1.636312550E-1,-2.664147854E0,5.495890141E0,7.890091896E0
1.656331300E-1,-2.726397276E0,5.515043736E0,7.914033890E0
1.676350050E-1,-2.755127668E0,5.553350925E0,7.937975883E0
1.696368800E-1,-2.817376852E0,5.558139324E0,7.971494675E0
1.716387550E-1,-2.846107244E0,5.586869717E0,8.033743858E0
1.736406300E-1,-2.893991232E0,5.601234913E0,8.081627846E0
1.756425050E-1,-2.951452255E0,5.601234913E0,8.105569839E0
1.776443800E-1,-2.989759445E0,5.625176907E0,8.153453827E0
1.796462550E-1,-2.975394249E0,5.639542103E0,8.163030624E0
1.816481300E-1,-2.965817451E0,5.658695698E0,8.163030624E0
1.836500050E-1,-2.951452255E0,5.649118900E0,8.158242226E0
1.856518800E-1,-2.932298422E0,5.634753704E0,8.196549416E0
1.876537550E-1,-2.917933226E0,5.610811710E0,8.177395821E0
1.896556300E-1,-2.937086821E0,5.615600109E0,8.167819023E0
1.916575050E-1,-2.908356428E0,5.620388508E0,8.191761017E0
1.936593800E-1,-2.917933226E0,5.629965305E0,8.158242226E0
1.956612550E-1,-2.879626036E0,5.649118900E0,8.163030624E0
1.976631300E-1,-2.850895643E0,5.677849293E0,8.139088631E0
1.996650050E-1,-2.817376852E0,5.697002888E0,8.124723434E0
2.016668800E-1,-2.759916067E0,5.692214489E0,8.072051048E0
2.036687550E-1,-2.716820478E0,5.720944881E0,8.024167061E0
2.056706300E-1,-2.678513050E0,5.730521679E0,8.005013466E0
2.076725050E-1,-2.635417461E0,5.759252071E0,7.985859871E0
2.096743800E-1,-2.606687069E0,5.754463673E0,7.957129478E0
2.116762550E-1,-2.568379879E0,5.778405666E0,7.942764282E0
2.136781300E-1,-2.549226284E0,5.740098476E0,7.918822289E0
2.156800050E-1,-2.544437885E0,5.749675274E0,7.894880295E0
2.176818800E-1,-2.506130695E0,5.744886875E0,7.890091896E0
2.196837550E-1,-2.506130695E0,5.735310078E0,7.880515099E0
2.216856300E-1,-2.482188702E0,5.725733280E0,7.856573105E0
2.236875050E-1,-2.486977100E0,5.720944881E0,7.851784706E0
2.256893800E-1,-2.496553898E0,5.730521679E0,7.827842236E0
2.276912550E-1,-2.486977100E0,5.735310078E0,7.842207432E0
2.296931300E-1,-2.467823505E0,5.725733280E0,7.856573105E0
2.316950050E-1,-2.453458309E0,5.720944881E0,7.866149902E0
2.336968800E-1,-2.443881273E0,5.711368084E0,7.880515099E0
2.356987550E-1,-2.439092875E0,5.697002888E0,7.894880295E0
2.377006300E-1,-2.443881273E0,5.668272495E0,7.937975883E0
2.397025050E-1,-2.467823505E0,5.649118900E0,7.971494675E0
2.417043800E-1,-2.525284290E0,5.634753704E0,8.014590263E0
2.437062550E-1,-2.577956676E0,5.596446514E0,8.052897453E0
2.457081300E-1,-2.616263866E0,5.596446514E0,8.095993042E0
2.477100050E-1,-2.678513050E0,5.553350925E0,8.153453827E0
2.497118800E-1,-2.731185675E0,5.548562527E0,8.210914612E0
2.517137550E-1,-2.817376852E0,5.538985729E0,8.292317390E0
2.537156300E-1,-2.860472441E0,5.538985729E0,8.316259384E0
2.557175050E-1,-2.903568029E0,5.553350925E0,8.388085365E0
2.577193800E-1,-2.956240654E0,5.548562527E0,8.459911346E0
2.597212550E-1,-2.989759445E0,5.538985729E0,8.483853340E0
2.617231300E-1,-3.023278236E0,5.577292919E0,8.536525726E0
2.637250050E-1,-3.052008629E0,5.577292919E0,8.589199066E0
2.657268800E-1,-3.042431831E0,5.606023312E0,8.646659851E0
2.677287550E-1,-3.080739021E0,5.606023312E0,8.680178642E0
2.697306300E-1,-3.085527420E0,5.620388508E0,8.689755440E0
2.717325050E-1,-3.080739021E0,5.620388508E0,8.680178642E0
2.737343800E-1,-3.071162224E0,5.601234913E0,8.699332237E0
2.757362550E-1,-3.056797028E0,5.591658115E0,8.689755440E0
2.777381300E-1,-3.052008629E0,5.610811710E0,8.665813446E0
2.797400050E-1,-3.047220230E0,5.615600109E0,8.665813446E0
2.817418800E-1,-3.018489838E0,5.620388508E0,8.661025047E0
2.837437550E-1,-2.984971046E0,5.649118900E0,8.646659851E0
2.857456300E-1,-2.946663857E0,5.673060894E0,8.622717857E0
2.877475050E-1,-2.879626036E0,5.716156483E0,8.579621315E0
2.897493800E-1,-2.812588453E0,5.716156483E0,8.531737328E0
2.917512550E-1,-2.769492865E0,5.740098476E0,8.498218536E0
2.937531300E-1,-2.731185675E0,5.749675274E0,8.435969353E0
2.957550050E-1,-2.649782658E0,5.730521679E0,8.378508568E0
2.977568800E-1,-2.592321873E0,5.673060894E0,8.321047783E0
2.997587550E-1,-2.506130695E0,5.567716122E0,8.234856606E0
3.017606300E-1,-2.415150881E0,5.438429356E0,8.167819023E0
3.037625050E-1,-2.386420488E0,5.352237701E0,8.201337814E0
3.057643800E-1,-2.376843691E0,5.318718910E0,8.254010201E0
3.077662550E-1,-2.386420488E0,5.313930511E0,8.292317390E0
3.097681300E-1,-2.395997286E0,5.323507309E0,8.330624580E0
3.117700050E-1,-2.362478495E0,5.366602898E0,8.311470985E0
3.137718800E-1,-2.285864115E0,5.419275761E0,8.258798599E0
3.157737550E-1,-2.233191729E0,5.452794552E0,8.234856606E0
3.177756300E-1,-2.214038134E0,5.505466938E0,8.210914612E0
3.197775050E-1,-2.214038134E0,5.548562527E0,8.220491409E0
3.217793800E-1,-2.190095901E0,5.601234913E0,8.230068207E0
3.237812550E-1,-2.185307503E0,5.620388508E0,8.287528992E0
3.257831300E-1,-2.209249735E0,5.620388508E0,8.330624580E0
3.277850050E-1,-2.242768526E0,5.625176907E0,8.412027359E0
3.297868800E-1,-2.276287317E0,5.586869717E0,8.455122948E0
3.317887550E-1,-2.319382906E0,5.572504520E0,8.512583733E0
3.337906300E-1,-2.362478495E0,5.515043736E0,8.550890923E0
3.357925050E-1,-2.405574083E0,5.476736546E0,8.598775864E0
3.377943800E-1,-2.395997286E0,5.390544891E0,8.603564262E0
3.397962550E-1,-2.391208887E0,5.309142113E0,8.641871452E0
3.417981300E-1,-2.429516077E0,5.285200119E0,8.699332237E0
3.438000050E-1,-2.453458309E0,5.232527733E0,8.761581421E0
3.458018800E-1,-2.510919094E0,5.194220543E0,8.799888611E0
3.478037550E-1,-2.563591480E0,5.194220543E0,8.828619003E0
3.498056300E-1,-2.601898670E0,5.194220543E0,8.847772598E0
3.518075050E-1,-2.640205860E0,5.242104530E0,8.871714592E0
3.538093800E-1,-2.664147854E0,5.304353714E0,8.910021782E0
3.558112550E-1,-2.640205860E0,5.390544891E0,8.967482567E0
3.578131300E-1,-2.640205860E0,5.486313343E0,9.005789757E0
3.598150050E-1,-2.649782658E0,5.625176907E0,9.077615738E0
3.618168800E-1,-2.644994259E0,5.735310078E0,9.106346130E0
3.638187550E-1,-2.616263866E0,5.859808445E0,9.120711327E0
3.658206300E-1,-2.582745075E0,5.950788498E0,9.139864922E0
3.678225050E-1,-2.563591480E0,6.036979675E0,9.135076523E0
3.698243800E-1,-2.510919094E0,6.104017258E0,9.135076523E0
3.718262550E-1,-2.429516077E0,6.142324448E0,9.139864922E0
3.738281300E-1,-2.343324900E0,6.151901245E0,9.106346130E0
3.758300050E-1,-2.242768526E0,6.142324448E0,9.082404137E0
3.778318800E-1,-2.166153908E0,6.123170853E0,9.024943352E0
3.798337550E-1,-2.056020737E0,6.070498466E0,8.967482567E0
3.818356300E-1,-1.974617839E0,6.032191277E0,8.910021782E0
3.838375050E-1,-1.850119352E0,5.993884087E0,8.876502991E0
3.858393800E-1,-1.768716455E0,5.926846504E0,8.780735016E0
3.878412550E-1,-1.653794765E0,5.888539314E0,8.708909035E0
3.898431300E-1,-1.553238392E0,5.845443249E0,8.656236649E0
3.918450050E-1,-1.438316703E0,5.802347660E0,8.584410667E0
3.938468800E-1,-1.323395014E0,5.759252071E0,8.503006935E0
3.958487550E-1,-1.246780515E0,5.735310078E0,8.431180954E0
3.978506300E-1,-1.122282028E0,5.706579685E0,8.388085365E0
3.998525050E-1,-1.045667648E0,5.653907299E0,8.316259384E0
4.018543800E-1,-9.498994946E-1,5.615600109E0,8.196549416E0
4.038562550E-1,-8.445546627E-1,5.586869717E0,8.124723434E0
4.058581300E-1,-7.775170207E-1,5.524620533E0,8.009801865E0
4.078600050E-1,-6.817489266E-1,5.491101742E0,7.909245491E0
4.098618800E-1,-6.051344872E-1,5.457582951E0,7.827842236E0
4.118637550E-1,-5.716156363E-1,5.424064159E0,7.756016254E0
4.138656300E-1,-5.285200477E-1,5.366602898E0,7.698555470E0
4.158675050E-1,-5.428852439E-1,5.328295708E0,7.645883083E0
4.178693800E-1,-5.572504401E-1,5.251681328E0,7.621941090E0
4.198712550E-1,-6.338648796E-1,5.184643745E0,7.597999096E0
4.218731300E-1,-7.248445749E-1,5.098452568E0,7.578845501E0
4.238750050E-1,-8.397662640E-1,5.069722176E0,7.540538311E0
4.258768800E-1,-9.786299467E-1,5.026626587E0,7.492654324E0
4.278787550E-1,-1.093551636E0,5.007472992E0,7.492654324E0
4.298806300E-1,-1.241992116E0,4.969165802E0,7.449558735E0
4.318825050E-1,-1.423951507E0,4.902127743E0,7.444770336E0
4.338843800E-1,-1.682525277E0,4.777629375E0,7.454347134E0
4.358862550E-1,-1.941099048E0,4.633977413E0,7.492654324E0
4.378881300E-1,-2.123058319E0,4.533421040E0,7.507019520E0
4.398900050E-1,-2.190095901E0,4.475960255E0,7.545326710E0
4.418918800E-1,-2.118269920E0,4.423287868E0,7.574057102E0
4.438937550E-1,-1.974617839E0,4.384980202E0,7.597999096E0
4.458956300E-1,-1.768716455E0,4.375403404E0,7.621941090E0
4.478975050E-1,-1.423951507E0,4.380191803E0,7.636306286E0
4.498993800E-1,-1.136647224E0,4.428076267E0,7.612364292E0
4.519012550E-1,-9.307458997E-1,4.490325451E0,7.621941090E0
4.539031300E-1,-6.386532784E-1,4.514267445E0,7.545326710E0
4.559050050E-1,-3.082534671E-1,4.633977413E0,7.507019520E0
4.579068800E-1,-2.220622003E-1,4.705803394E0,7.502231121E0
4.599087550E-1,-2.094926499E-2,4.820724964E0,7.425616741E0
4.619106300E-1,3.651157767E-2,4.950012207E0,7.406463146E0
4.639125050E-1,1.083376259E-1,5.074510574E0,7.406463146E0
4.659143800E-1,1.035492271E-1,5.285200119E0,7.435193539E0
4.679162550E-1,2.807201445E-1,5.419275761E0,7.435193539E0
4.699181300E-1,5.105634928E-1,5.610811710E0,7.530961514E0
4.719200050E-1,8.505401611E-1,5.764040470E0,7.578845501E0
4.739218800E-1,1.109113932E0,5.898116112E0,7.631517887E0
4.759237550E-1,1.118690729E0,6.017826080E0,7.717709064E0
4.779256300E-1,1.046864748E0,6.104017258E0,7.770381451E0
4.799275050E-1,1.037287831E0,6.123170853E0,7.732074261E0
4.819293800E-1,8.792705536E-1,6.089652061E0,7.674613476E0
4.839312550E-1,1.042076349E0,5.965153694E0,7.550115108E0
4.859331300E-1,1.578377485E0,5.687426090E0,7.459135532E0
4.879350050E-1,2.124255419E0,5.328295708E0,7.358579159E0
4.899368800E-1,1.405994892E0,4.926070213E0,7.483077526E0
4.919387550E-1,3.477577865E-1,4.231751442E0,7.626729488E0
4.939406300E-1,-5.189431906E-1,3.465606928E0,7.736862659E0
4.959425050E-1,-1.222838521E0,2.689885616E0,7.870938301E0
4.979443800E-1,-1.519719481E0,2.067393064E0,7.952341080E0
4.999462550E-1,-1.313818216E0,1.669955730E0,8.057685852E0
5.019481300E-1,-7.344213724E-1,1.574187636E0,8.268375397E0
5.039500050E-1,8.918401599E-2,1.875856996E0,8.507795334E0
5.059518800E-1,1.027711034E0,2.450465441E0,8.637083054E0
5.079537550E-1,1.947084546E0,3.130418777E0,8.684967041E0
5.099556300E-1,2.660556555E0,3.987542868E0,8.684967041E0
5.119575050E-1,2.899976730E0,4.945223808E0,8.570044518E0
5.139593800E-1,2.689286947E0,5.902904510E0,8.459911346E0
5.159612550E-1,2.344521999E0,6.817489147E0,8.412027359E0
5.179631300E-1,1.789067268E0,7.574057102E0,8.407238960E0
5.199650050E-1,1.257554412E0,8.163030624E0,8.373720169E0
5.219668800E-1,7.930793166E-1,8.541314125E0,8.493430138E0
5.239687550E-1,3.812766075E-1,8.737639427E0,8.804677010E0
5.259706300E-1,1.418564469E-1,8.771158218E0,9.115922928E0
5.279725050E-1,2.693476900E-2,8.814253807E0,9.154230118E0
5.299743800E-1,-4.566939771E-1,8.517372131E0,9.178172112E0
5.319762550E-1,-7.918822169E-1,8.239645004E0,9.144653320E0
5.339781300E-1,-1.012148738E0,8.057685852E0,9.182960510E0
5.359800050E-1,-1.127070427E0,7.851784706E0,9.173383713E0
5.379818800E-1,-1.160589218E0,7.674613476E0,9.111134529E0
5.399837550E-1,-1.064821243E0,7.588422298E0,9.139864922E0
5.419856300E-1,-9.211691022E-1,7.516596317E0,9.063250542E0
5.439875050E-1,-5.907692909E-1,7.526173115E0,8.866926193E0
5.459893800E-1,-2.124854028E-1,7.588422298E0,8.450334549E0
5.479912550E-1,-1.616086066E-2,7.583633900E0,8.028955460E0
5.499931300E-1,3.669114113E-1,7.631517887E0,7.459135532E0
5.519950050E-1,4.674678743E-1,7.550115108E0,7.095216751E0
5.539968800E-1,3.860650361E-1,7.310694695E0,6.798335552E0
5.559987550E-1,3.956418335E-1,7.181407928E0,6.525396824E0
5.580006300E-1,2.424129248E-1,6.980295181E0,6.357802391E0
5.600025050E-1,1.370680481E-1,6.788758755E0,6.271611214E0
5.620043800E-1,8.918401599E-2,6.712144375E0,6.113594055E0
5.640062550E-1,6.524199992E-2,6.740874767E0,5.835866451E0
5.660081300E-1,-8.798690885E-2,6.798335552E0,5.653907299E0
5.680100050E-1,-1.837549806E-1,6.874950409E0,5.424064159E0
5.700118800E-1,-2.029085904E-1,6.970718384E0,5.222950935E0
5.720137550E-1,-2.220622003E-1,7.013813972E0,4.983530998E0
5.740156300E-1,-2.986766696E-1,6.989871979E0,4.954800606E0
5.760175050E-1,-4.902127981E-1,6.879738808E0,5.112817764E0
5.780193800E-1,-5.476736426E-1,6.783970356E0,5.175066948E0
5.800212550E-1,-6.482301354E-1,6.664260387E0,5.242104530E0
5.820231300E-1,-7.679402232E-1,6.534973621E0,5.318718910E0
5.840250050E-1,-8.637082577E-1,6.434417248E0,5.433640957E0
5.860268800E-1,-9.738415480E-1,6.257246017E0,5.529408932E0
5.880287550E-1,-1.016937137E0,6.127959251E0,5.567716122E0
5.900306300E-1,-1.074398041E0,6.065710068E0,5.711368084E0
5.920325050E-1,-1.093551636E0,5.989095688E0,5.759252071E0
5.940343800E-1,-1.141435623E0,5.936423302E0,5.969942093E0
5.960362550E-1,-1.203684926E0,5.835866451E0,6.113594055E0
5.980381300E-1,-1.251568913E0,5.855020046E0,6.281188011E0
6.000400050E-1,-1.361702204E0,5.888539314E0,6.410475254E0
6.020418800E-1,-1.467047095E0,5.979518890E0,6.568492413E0
6.040437550E-1,-1.490989089E0,6.070498466E0,6.597222805E0
6.060456300E-1,-1.543661594E0,6.151901245E0,6.712144375E0
6.080475050E-1,-1.581968784E0,6.199785233E0,6.716932774E0
6.100493800E-1,-1.615487576E0,6.305130005E0,6.740874767E0
6.120512550E-1,-1.644217968E0,6.324283600E0,6.731297970E0
6.140531300E-1,-1.620275974E0,6.357802391E0,6.697779179E0
6.160550050E-1,-1.663371682E0,6.343437195E0,6.793547153E0
6.180568800E-1,-1.538873196E0,6.386533260E0,6.822277546E0
6.200587550E-1,-1.414374709E0,6.424840450E0,6.736086369E0
6.220606300E-1,-1.232415318E0,6.415263653E0,6.769605160E0
6.240625050E-1,-1.026513934E0,6.376956463E0,6.841431141E0
6.260643800E-1,-7.679402232E-1,6.381744862E0,6.946776390E0
6.280662550E-1,-4.806360006E-1,6.357802391E0,6.970718384E0
6.300681300E-1,-2.029085904E-1,6.324283600E0,6.913257599E0
6.320700050E-1,3.651157767E-2,6.357802391E0,6.788758755E0
6.340718800E-1,2.424129248E-1,6.376956463E0,6.587646008E0
6.360737550E-1,4.387374520E-1,6.458359241E0,6.372167587E0
6.380756300E-1,5.823895931E-1,6.568492413E0,6.242880821E0
6.400775050E-1,7.020996213E-1,6.688202381E0,6.171054840E0
6.420793800E-1,7.404068708E-1,6.764816761E0,6.094440460E0
6.440812550E-1,7.164648771E-1,6.894104004E0,6.070498466E0
6.460831300E-1,6.494272351E-1,6.999448776E0,6.104017258E0
6.480850050E-1,5.488707423E-1,7.095216751E0,6.147112846E0
6.500868800E-1,4.147954583E-1,7.190984726E0,6.204573631E0
6.520887550E-1,3.238157928E-1,7.286752701E0,6.247669220E0
6.540906300E-1,1.657984704E-1,7.329848289E0,6.281188011E0
6.560925050E-1,-1.795651275E-3,7.372944355E0,6.927622795E0
6.580943800E-1,-4.902127981E-1,7.459135532E0,8.469488144E0
6.600962550E-1,-1.036090732E0,7.674613476E0,9.269151688E0
6.620981300E-1,-4.662707746E-1,7.645883083E0,7.827842236E0
6.641000050E-1,6.398503780E-1,7.411251545E0,6.084863663E0
6.661018800E-1,1.214458823E0,7.387309551E0,5.400122166E0
6.681037550E-1,1.180940032E0,7.492654324E0,5.524620533E0
6.701056300E-1,8.553285599E-1,7.684190273E0,5.993884087E0
6.721075050E-1,6.398503780E-1,7.732074261E0,6.223727226E0
6.741093800E-1,5.967547894E-1,7.722497463E0,6.013037682E0
6.761112550E-1,5.776011348E-1,7.732074261E0,5.677849293E0
6.781131300E-1,5.392939448E-1,7.751227856E0,5.519832134E0
6.801150050E-1,5.440823436E-1,7.732074261E0,5.562927723E0
6.821168800E-1,4.483142793E-1,7.717709064E0,5.577292919E0
6.841187550E-1,3.908534348E-1,7.693767071E0,5.548562527E0
6.861206300E-1,5.009866953E-1,7.650671482E0,5.586869717E0
6.881225050E-1,5.680243373E-1,7.612364292E0,5.673060894E0
6.901244320E-1,6.302735806E-1,7.602787495E0,5.802347660E0
6.921263590E-1,7.739257216E-1,7.593210697E0,5.989095688E0
6.941282860E-1,9.223662019E-1,7.535749912E0,6.161478043E0
6.961302130E-1,1.051653147E0,7.459135532E0,6.357802391E0
6.981321400E-1,1.118690729E0,7.358579159E0,6.578069210E0
7.001340670E-1,1.171363235E0,7.301117897E0,6.769605160E0
7.021359940E-1,1.171363235E0,7.238868713E0,6.970718384E0
7.041379210E-1,1.171363235E0,7.162254333E0,7.152677536E0
7.061398490E-1,1.180940032E0,7.071274757E0,7.281964302E0
7.081417760E-1,1.166574836E0,6.932411194E0,7.372944355E0
7.101437030E-1,1.161786318E0,6.822277546E0,7.449558735E0
7.121456300E-1,1.133055925E0,6.712144375E0,7.516596317E0
7.141475570E-1,1.171363235E0,6.587646008E0,7.521384716E0
7.161494840E-1,1.243189216E0,6.496666431E0,7.502231121E0
7.181514110E-1,1.315015316E0,6.506243229E0,7.583633900E0
7.201533380E-1,1.425148606E0,6.539762020E0,7.612364292E0
7.221552650E-1,1.496974587E0,6.573280811E0,7.688978672E0
7.241571920E-1,1.564012289E0,6.625953197E0,7.842207432E0
7.261591190E-1,1.664568782E0,6.712144375E0,7.937975883E0
7.281610460E-1,1.726817966E0,6.745663166E0,7.904457092E0
7.301629740E-1,1.793855667E0,6.779181957E0,7.684190273E0
7.321649010E-1,1.798644066E0,6.817489147E0,7.387309551E0
7.341668280E-1,1.798644066E0,6.831854343E0,7.090428352E0
7.361687550E-1,1.789067268E0,6.851007938E0,6.894104004E0
7.381706820E-1,1.765125155E0,6.889315605E0,6.721721172E0
7.401726090E-1,1.741183162E0,6.908469200E0,6.721721172E0
7.421745360E-1,1.717241168E0,6.946776390E0,6.788758755E0
7.441764110E-1,1.707664371E0,7.032967567E0,6.932411194E0
7.461782860E-1,1.654991984E0,7.071274757E0,7.009025574E0
7.481801610E-1,1.616684675E0,7.128735542E0,7.090428352E0
7.501820360E-1,1.592742682E0,7.171831131E0,7.095216751E0
7.521839110E-1,1.583165884E0,7.214926720E0,7.133523941E0
7.541857860E-1,1.540070295E0,7.277175903E0,7.286752701E0
7.561876610E-1,1.496974587E0,7.406463146E0,7.521384716E0
7.581895360E-1,1.530493379E0,7.578845501E0,7.784746647E0
7.601914110E-1,1.540070295E0,7.736862659E0,7.880515099E0
7.621932860E-1,1.535281897E0,7.880515099E0,8.009801865E0
7.641951610E-1,1.554435492E0,8.115146637E0,8.244433403E0
7.661970360E-1,1.554435492E0,8.392873764E0,8.445546150E0
7.681989110E-1,1.587954283E0,8.479064941E0,8.488641739E0
7.702007860E-1,1.597531080E0,8.622717857E0,8.723274231E0
7.722026610E-1,1.631049871E0,8.680178642E0,8.943540573E0
7.742045360E-1,1.674145579E0,8.656236649E0,9.135076523E0
7.762064110E-1,1.798644066E0,8.780735016E0,9.408015251E0
7.782082860E-1,1.923142552E0,8.799888611E0,9.522936821E0
7.802101610E-1,2.109890223E0,8.728062630E0,9.633070946E0
7.822120360E-1,2.291849613E0,8.847772598E0,9.829395294E0
7.842139110E-1,2.459443808E0,8.814253807E0,9.920374870E0
7.862157860E-1,2.641402960E0,8.775946617E0,9.953893661E0
7.882176610E-1,2.813785553E0,8.665813446E0,9.968258858E0
7.902195360E-1,2.967014551E0,8.574832916E0,9.973047256E0
7.922214110E-1,3.129820108E0,8.440757751E0,1.000177765E1
7.942232860E-1,3.297414303E0,8.330624580E0,9.977835655E0
7.962251610E-1,3.445854902E0,8.076839447E0,9.882067680E0
7.982270360E-1,3.546411276E0,7.937975883E0,9.815030098E0
8.002289110E-1,3.670909643E0,7.645883083E0,9.704896927E0
8.022307860E-1,3.781043053E0,7.463923931E0,9.757569313E0
8.042326610E-1,3.848080635E0,7.420828342E0,9.896432877E0
8.062345360E-1,3.872022629E0,7.243657112E0,1.006402683E1
8.082364110E-1,3.876811028E0,7.267599106E0,1.037527275E1
8.102382860E-1,3.833715439E0,7.344213486E0,1.061469364E1
8.122401610E-1,3.761889458E0,7.478289127E0,1.088763237E1
8.142420360E-1,3.656544447E0,7.679401875E0,1.121803188E1
8.162439110E-1,3.579930067E0,7.827842236E0,1.148618221E1
8.182457860E-1,3.488950491E0,7.866149902E0,1.169208431E1
8.202476610E-1,3.465008497E0,7.818265438E0,1.183573627E1
8.222495360E-1,3.541622877E0,7.684190273E0,1.196502304E1
8.242514110E-1,3.527257681E0,7.789535046E0,1.208473301E1
8.262532860E-1,3.699640274E0,8.550890923E0,1.221401978E1
8.282551610E-1,3.843292236E0,9.800664902E0,1.243907452E1
8.302570360E-1,3.972579241E0,1.007360363E1,1.258272743E1
8.322589110E-1,4.039616585E0,9.642647743E0,1.268807220E1
8.342607860E-1,4.053982258E0,8.775946617E0,1.283172417E1
8.362626610E-1,4.125808239E0,8.344989777E0,1.308550930E1
8.382645360E-1,3.986944437E0,8.637083054E0,1.320043087E1
8.402664110E-1,4.097077847E0,9.609128952E0,1.334408283E1
8.422682860E-1,4.269460201E0,1.049498272E1,1.344942760E1
8.442701610E-1,4.437054157E0,1.034175396E1,1.344942760E1
8.462720360E-1,4.384381771E0,9.441534042E0,1.349731255E1
8.482739110E-1,4.384381771E0,9.005789757E0,1.366011810E1
8.502757860E-1,4.470572948E0,9.273940086E0,1.386123085E1
8.522776610E-1,4.676474571E0,1.013106441E1,1.398094082E1
8.542795360E-1,4.944624901E0,1.080622959E1,1.397136402E1
8.562814110E-1,5.131372929E0,1.082059479E1,1.399051762E1
8.582832860E-1,5.294178486E0,1.050455952E1,1.410065079E1
8.602851610E-1,5.389946461E0,1.036090755E1,1.428260994E1
8.622870360E-1,5.615001678E0,1.063863564E1,1.444062710E1
8.642889110E-1,5.801749229E0,1.094030476E1,1.446935844E1
8.662907860E-1,6.041169643E0,1.108874512E1,1.439274311E1
8.682926610E-1,6.208763599E0,1.092115116E1,1.428260994E1
8.702945360E-1,6.275801182E0,1.061948204E1,1.414374638E1
8.722964110E-1,6.414664745E0,1.050934792E1,1.397615242E1
8.742982860E-1,6.462548733E0,1.040400314E1,1.376067448E1
8.763001610E-1,6.443395138E0,1.017416000E1,1.353561974E1
8.783020360E-1,6.438606739E0,9.795876503E0,1.327225685E1
8.803039110E-1,6.381145954E0,9.398438454E0,1.294664574E1
8.823057860E-1,6.251859188E0,9.072827339E0,1.263061142E1
8.843076610E-1,6.065111637E0,8.852560997E0,1.236246014E1
8.863095360E-1,5.820902824E0,8.675390244E0,1.209430981E1
8.883114110E-1,5.562329292E0,8.402450562E0,1.187883186E1
8.903132860E-1,5.361216068E0,8.119935036E0,1.162983513E1
8.923151610E-1,5.049970150E0,7.885303497E0,1.144308662E1
8.943170360E-1,4.762665749E0,7.679401875E0,1.128506947E1
8.963189110E-1,4.508880138E0,7.478289127E0,1.118451309E1
8.983207860E-1,4.326920986E0,7.272387505E0,1.102170753E1
9.003226610E-1,4.154538631E0,7.037755966E0,1.090678596E1
9.023245360E-1,3.934272051E0,6.793547153E0,1.081101799E1
9.043264110E-1,3.670909643E0,6.496666431E0,1.072003841E1
9.063282860E-1,3.474585295E0,6.223727226E0,1.066257763E1
9.083301610E-1,3.283049107E0,5.989095688E0,1.058596325E1
9.103320360E-1,3.105878115E0,5.787982464E0,1.053328991E1
9.123339110E-1,2.938283920E0,5.610811710E0,1.044709873E1
9.143357860E-1,2.732382774E0,5.519832134E0,1.040400314E1
9.163376610E-1,2.536058187E0,5.342660904E0,1.037048435E1
9.183395360E-1,2.368463993E0,5.122394562E0,1.040400314E1
9.203414110E-1,2.282272816E0,4.950012207E0,1.048540592E1
9.223432860E-1,2.167351007E0,4.753687382E0,1.062427044E1
9.243451610E-1,2.152985811E0,4.600458622E0,1.075355721E1
9.263470360E-1,2.196081400E0,4.485537052E0,1.081101799E1
9.283489110E-1,2.334945202E0,4.452018261E0,1.058117485E1
9.303507860E-1,2.133832216E0,4.131195068E0,1.024598598E1
9.323526610E-1,1.913565755E0,3.920505285E0,9.767146111E0
9.343545360E-1,1.635838270E0,3.637989521E0,9.240421295E0
9.363564110E-1,1.444302201E0,3.475183725E0,8.708909035E0
9.383582860E-1,1.602319479E0,3.547009706E0,8.148665428E0
9.403601610E-1,1.343745708E0,3.283647537E0,7.832630634E0
9.423620360E-1,1.276708007E0,3.116053581E0,7.650671482E0
9.443639110E-1,1.224035621E0,3.034650564E0,7.559691906E0
9.463657860E-1,1.066018343E0,2.953247786E0,7.564480305E0
9.483676610E-1,9.750386477E-1,2.843114614E0,7.612364292E0
9.503695360E-1,8.696937561E-1,2.776076794E0,7.554903507E0
9.523714110E-1,9.750386477E-1,2.694674015E0,7.454347134E0
9.543732860E-1,7.212532759E-1,2.479195833E0,7.372944355E0
9.563751610E-1,7.356184721E-1,2.302024841E0,7.238868713E0
9.583770360E-1,6.302735806E-1,2.057816267E0,7.152677536E0
9.603789110E-1,8.457517624E-1,1.952471495E0,6.999448776E0
9.623807860E-1,9.606734514E-1,1.933317900E0,6.817489147E0
9.643826610E-1,1.099537134E0,1.899798989E0,6.721721172E0
9.663845360E-1,1.118690729E0,1.899798989E0,6.630741596E0
9.683864110E-1,9.702502489E-1,1.775300503E0,6.563704014E0
9.703882860E-1,1.200093627E0,1.823184609E0,6.400898457E0
9.723901610E-1,1.501762986E0,1.985990286E0,6.127959251E0
9.743920360E-1,1.477820992E0,2.053027868E0,5.917269707E0
9.763939110E-1,1.267131209E0,1.971625090E0,5.807136059E0
9.783957860E-1,1.133055925E0,2.134430885E0,5.644330502E0
9.803976610E-1,8.553285599E-1,2.215833664E0,5.376179695E0
9.823995360E-1,5.249287486E-1,2.258929253E0,5.026626587E0
9.844014110E-1,2.184709013E-1,2.349909067E0,4.638765812E0
9.864032860E-1,-3.531447425E-2,2.483984232E0,4.298789024E0
9.884051610E-1,-3.417722881E-1,2.507926226E0,3.987542868E0
9.904070360E-1,-6.482301354E-1,2.450465441E0,3.623624325E0
9.924089110E-1,-9.690531492E-1,2.321178436E0,3.264493942E0
9.944107860E-1,-1.313818216E0,2.144007683E0,2.943670988E0
9.964126610E-1,-1.653794765E0,1.914164305E0,2.594117641E0
9.984145360E-1,-2.022501945E0,1.631648421E0,2.302024841E0
1.000416411E0,-2.405574083E0,1.325190663E0,2.048239470E0
1.002418286E0,-2.870049238E0,9.900023937E-1,1.871068597E0
1.004420161E0,-3.248333216E0,7.074866295E-1,1.713051319E0
1.006422036E0,-3.669712543E0,4.106055796E-1,1.631648421E0
1.008423911E0,-4.062361717E0,1.233013868E-1,1.598129630E0
1.010425786E0,-4.459799290E0,-1.400607973E-1,1.598129630E0
1.012427661E0,-4.862025261E0,-3.651157618E-1,1.660378933E0
1.014429536E0,-5.202001572E0,-5.087678432E-1,1.760935307E0
1.016431411E0,-5.561131954E0,-6.619967818E-1,1.784877419E0
1.018433286E0,-5.858013153E0,-7.433996201E-1,1.880645394E0
1.020435161E0,-6.078279495E0,-7.673416734E-1,1.971625090E0
1.022437036E0,-6.083067894E0,-7.050924301E-1,1.971625090E0
1.024438911E0,-5.470152378E0,-4.560954273E-1,1.799242616E0
1.026440786E0,-5.661688328E0,-4.800374508E-1,1.909375906E0
1.028442661E0,-6.073491096E0,-5.087678432E-1,2.335543871E0
1.030444536E0,-6.442198277E0,-4.896142483E-1,2.551021814E0
1.032446411E0,-6.638522625E0,-4.129997790E-1,2.426523447E0
1.034448286E0,-6.849212646E0,-3.603273630E-1,2.268506050E0
1.036450161E0,-7.256227016E0,-3.938461840E-1,2.402581453E0
1.038452036E0,-7.691971302E0,-4.369418025E-1,2.574964046E0
1.040453911E0,-7.960122108E0,-4.656722248E-1,2.618059635E0
1.042455786E0,-8.127716064E0,-5.231330991E-1,2.603694439E0
1.044457661E0,-8.271368027E0,-5.853823423E-1,2.579752445E0
1.046459536E0,-8.395866394E0,-6.189011335E-1,2.589329243E0
1.048461411E0,-8.506000519E0,-6.763619781E-1,2.579752445E0
1.050463286E0,-8.573038101E0,-7.098808289E-1,2.570175409E0
1.052465161E0,-8.582614899E0,-7.098808289E-1,2.507926226E0
1.054467036E0,-8.563461304E0,-7.003039718E-1,2.460042238E0
1.056468911E0,-8.539519310E0,-6.763619781E-1,2.373851061E0
1.058470786E0,-8.501212120E0,-6.236895323E-1,2.306813240E0
1.060472661E0,-8.472481728E0,-4.991910458E-1,2.234987259E0
1.062474536E0,-8.458115578E0,-3.842693865E-1,2.167949677E0
1.064476411E0,-8.381501198E0,-2.597708702E-1,2.091335297E0
1.066478286E0,-8.252214432E0,-1.161187813E-1,2.038662672E0
1.068480161E0,-8.122927666E0,7.541735470E-2,1.985990286E0
1.070482036E0,-7.998429298E0,2.238578647E-1,1.966836691E0
1.072483911E0,-7.902661324E0,4.153940082E-1,1.976413488E0
1.074485786E0,-7.806893349E0,5.925649405E-1,1.947683096E0
1.076487661E0,-7.720701694E0,7.984662652E-1,1.938106298E0
1.078489536E0,-7.644087315E0,9.469067454E-1,1.957259893E0
1.080491411E0,-7.557896137E0,1.124077678E0,1.942894697E0
1.082493286E0,-7.495646954E0,1.272518158E0,1.909375906E0
1.084495161E0,-7.414244175E0,1.440112352E0,1.808819413E0
1.086497036E0,-7.323264599E0,1.598129630E0,1.756146908E0
1.088498911E0,-7.203554153E0,1.727416515E0,1.669955730E0
1.090500786E0,-7.059902191E0,1.847126603E0,1.583764434E0
1.092502661E0,-6.916250229E0,1.952471495E0,1.521515131E0
1.094504536E0,-6.729502201E0,2.072181463E0,1.459265947E0
1.096506411E0,-6.547543049E0,2.211045265E0,1.444900751E0
1.098508286E0,-6.384737492E0,2.354697466E0,1.454477549E0
1.100510161E0,-6.231508255E0,2.493561029E0,1.483207941E0
1.102512036E0,-6.111798286E0,2.680308819E0,1.531091928E0
1.104513911E0,-5.977723122E0,2.833537817E0,1.569399238E0
1.106515786E0,-5.853224754E0,3.034650564E0,1.631648421E0
1.108517661E0,-5.709572315E0,3.216609955E0,1.665167332E0
1.110519536E0,-5.551555157E0,3.336320162E0,1.732204914E0
1.112521411E0,-5.393537998E0,3.561375141E0,1.770512104E0
1.114523286E0,-5.245097160E0,3.738545895E0,1.827973008E0
1.116525161E0,-5.130175591E0,3.891774893E0,1.866280198E0
1.118527036E0,-4.986523628E0,4.083311081E0,1.895010591E0
1.120528911E0,-4.885967255E0,4.274847031E0,1.890222192E0
1.122530786E0,-4.718372822E0,4.485537052E0,1.890222192E0
1.124532661E0,-4.560355663E0,4.657919407E0,1.899798989E0
1.126534536E0,-4.397550106E0,4.806359768E0,1.871068597E0
1.128536411E0,-4.234744072E0,5.002684593E0,1.842338204E0
1.130538286E0,-4.052784920E0,5.112817764E0,1.851915002E0
1.132540161E0,-3.918709517E0,5.251681328E0,1.818396211E0
1.134542036E0,-3.784634352E0,5.390544891E0,1.799242616E0
1.136543911E0,-3.636193752E0,5.577292919E0,1.799242616E0
1.138545786E0,-3.526060581E0,5.653907299E0,1.851915002E0
1.140547661E0,-3.459022999E0,5.778405666E0,1.885433793E0
1.142549536E0,-3.344101191E0,5.907692909E0,1.895010591E0
1.144551411E0,-3.248333216E0,6.041768074E0,1.918952703E0
1.146553286E0,-3.109469414E0,6.190208435E0,1.923741102E0
1.148555161E0,-2.946663857E0,6.285976410E0,1.952471495E0
1.150557036E0,-2.764704466E0,6.309918404E0,1.971625090E0
1.152558911E0,-2.530072689E0,6.420052052E0,1.933317900E0
1.154560786E0,-2.233191729E0,6.520608425E0,1.880645394E0
1.156562661E0,-1.898003340E0,6.664260387E0,1.861491799E0
1.158564536E0,-1.519719481E0,6.783970356E0,1.842338204E0
1.160566411E0,-1.112705231E0,6.913257599E0,1.871068597E0
1.162568286E0,-6.817489266E-1,7.018602371E0,1.918952703E0
1.164570161E0,-2.507926226E-1,7.066486359E0,2.024297476E0
1.166572036E0,2.041056901E-1,7.181407928E0,2.043451071E0
1.168573911E0,6.206967831E-1,7.310694695E0,2.100912094E0
1.170575786E0,1.066018343E0,7.478289127E0,2.220622063E0
1.172577661E0,1.453878999E0,7.578845501E0,2.359485865E0
1.174579536E0,1.851316452E0,7.655459881E0,2.460042238E0
1.176581411E0,2.258330822E0,7.803900242E0,2.555810213E0
1.178583286E0,2.694075346E0,7.890091896E0,2.661155224E0
1.180585161E0,3.144185305E0,7.995436668E0,2.723404408E0
1.182587036E0,3.579930067E0,8.091204643E0,2.828749418E0
1.184588911E0,4.039616585E0,8.321047783E0,2.867056608E0
1.186590786E0,4.508880138E0,8.402450562E0,2.895787001E0
1.188592661E0,4.997297287E0,8.546102524E0,2.867056608E0
1.190594536E0,5.490502834E0,8.665813446E0,2.886210203E0
1.192596411E0,5.935824394E0,8.790311813E0,2.938882589E0
1.194598286E0,6.347627163E0,8.962694168E0,2.943670988E0
1.196600161E0,6.644508362E0,9.068038940E0,3.010708570E0
1.198602036E0,6.802525520E0,9.182960510E0,3.058592558E0
1.200603911E0,6.864774704E0,9.374496460E0,3.072957993E0
1.202605786E0,6.769006729E0,9.599552155E0,3.120841980E0
1.204607661E0,6.625354767E0,9.853337288E0,3.139995575E0
1.206609536E0,6.352415562E0,1.016458321E1,3.154360771E0
1.208611411E0,6.084265232E0,1.044709873E1,3.144783974E0
1.210613286E0,5.859210014E0,1.072482681E1,3.096899986E0
1.212615161E0,5.658097267E0,1.099776554E1,3.072957993E0
1.214617036E0,5.519233704E0,1.122760868E1,3.044227362E0
1.216618911E0,5.461772442E0,1.139520264E1,3.020285368E0
1.218620786E0,5.399523258E0,1.148618221E1,2.948459387E0
1.220622661E0,5.399523258E0,1.151491261E1,2.862268209E0
1.222624536E0,5.456984043E0,1.149097061E1,2.776076794E0
1.224626411E0,5.547964096E0,1.146702862E1,2.718616009E0
1.226628286E0,5.653308868E0,1.139041424E1,2.694674015E0
1.228630161E0,5.715558052E0,1.128028107E1,2.646790028E0
1.230632036E0,5.806537628E0,1.120366669E1,2.646790028E0
1.232633911E0,5.878363609E0,1.114620590E1,2.642001629E0
1.234635786E0,5.931035995E0,1.107916832E1,2.627636433E0
1.236637661E0,6.017227650E0,1.105043793E1,2.661155224E0
1.238639536E0,6.108207226E0,1.107437992E1,2.737769604E0
1.240641411E0,6.237493992E0,1.111747551E1,2.852691412E0
1.242643286E0,6.400299549E0,1.115578270E1,3.025073767E0
1.244645161E0,6.582259178E0,1.121803188E1,3.192667961E0
1.246647036E0,6.792948723E0,1.129943466E1,3.350685358E0
1.248648911E0,6.994061947E0,1.137126064E1,3.580528736E0
1.250650786E0,7.214328289E0,1.143350983E1,3.757699490E0
1.252652661E0,7.448959827E0,1.154843235E1,3.949235678E0
1.254654536E0,7.674015045E0,1.160110474E1,4.102464676E0
1.256656411E0,7.913434982E0,1.166335392E1,4.260481834E0
1.258658286E0,8.176796913E0,1.174954510E1,4.380191803E0
1.260660161E0,8.444948196E0,1.181179428E1,4.480748653E0
1.262662036E0,8.713098526E0,1.187883186E1,4.552574635E0
1.264663911E0,8.952518463E0,1.191713905E1,4.571728230E0
1.266665786E0,9.158419609E0,1.203684902E1,4.581305027E0
1.268667661E0,9.330802917E0,1.219007778E1,4.586093426E0
1.270669536E0,9.484031677E0,1.238640213E1,4.610035419E0
1.272671411E0,9.603741646E0,1.255878544E1,4.629189014E0
1.274673286E0,9.665990829E0,1.273595619E1,4.648342609E0
1.276675161E0,9.675567627E0,1.289876175E1,4.619612217E0
1.278677036E0,9.709086418E0,1.308550930E1,4.581305027E0
1.280678911E0,9.709086418E0,1.330577564E1,4.624400616E0
1.282680786E0,9.675567627E0,1.351646614E1,4.701014996E0
1.284682661E0,9.661202431E0,1.368406010E1,4.744110584E0
1.286684536E0,9.656414032E0,1.386123085E1,4.753687382E0
1.288686411E0,9.651625633E0,1.405755520E1,4.835090160E0
1.290688286E0,9.646837234E0,1.415811157E1,4.911705017E0
1.292690161E0,9.642048836E0,1.425387955E1,5.045780182E0
1.294692036E0,9.665990829E0,1.428739834E1,5.136759758E0
1.296693911E0,9.680356026E0,1.430655193E1,5.299565315E0
1.298695786E0,9.665990829E0,1.430655193E1,5.414487362E0
1.300697661E0,9.627683640E0,1.428739834E1,5.558139324E0
1.302699536E0,9.646837234E0,1.421078396E1,5.673060894E0
1.304701411E0,9.646837234E0,1.411022758E1,5.792770863E0
1.306703286E0,9.685144424E0,1.407670879E1,5.912481308E0
1.308705161E0,9.828796387E0,1.411980438E1,5.993884087E0
1.310707036E0,1.001554394E1,1.414374638E1,6.056133270E0
1.312708911E0,1.017356110E1,1.403840160E1,6.108805656E0
1.314710786E0,1.028848362E1,1.373673248E1,6.127959251E0
1.316712661E0,1.034115601E1,1.333450603E1,6.132747650E0
1.318714536E0,1.034594440E1,1.285566616E1,6.166266441E0
1.320716411E0,1.030284882E1,1.234809494E1,6.175843239E0
1.322718286E0,1.026454163E1,1.189319706E1,6.214150429E0
1.324720161E0,1.016877270E1,1.146224022E1,6.223727226E0
1.326722036E0,1.004906273E1,1.112226391E1,6.266822815E0
1.328723911E0,9.938929558E0,1.087326717E1,6.300341606E0
1.330725786E0,9.814431190E0,1.066736603E1,6.324283600E0
1.332727713E0,9.632472038E0,1.048061752E1,6.353013992E0
1.334729640E0,9.397840500E0,1.031302357E1,6.391321659E0
1.336731567E0,9.124900818E0,1.017894840E1,6.391321659E0
1.338733494E0,8.837596893E0,1.004487324E1,6.391321659E0
1.340735421E0,8.564658165E0,9.896432877E0,6.391321659E0
1.342737349E0,8.262989044E0,9.738415718E0,6.381744862E0
1.344739276E0,7.956530571E0,9.546878815E0,6.319495201E0
1.346741203E0,7.664438248E0,9.355342865E0,6.290764809E0
1.348743130E0,7.362768650E0,9.168595314E0,6.209362030E0
1.350745057E0,7.013215542E0,8.962694168E0,6.123170853E0
1.352746984E0,6.682815552E0,8.785523415E0,5.998672485E0
1.354748911E0,6.323685169E0,8.598775864E0,5.883750439E0
1.356750838E0,5.974131584E0,8.412027359E0,5.773617268E0
1.358752765E0,5.653308868E0,8.210914612E0,5.634753704E0
1.360754692E0,5.351639271E0,8.038532257E0,5.505466938E0
1.362756619E0,5.121796131E0,7.880515099E0,5.380968094E0
1.364758546E0,4.930259705E0,7.741651058E0,5.270834923E0
1.366760474E0,4.805761337E0,7.631517887E0,5.203797340E0
1.368762401E0,4.733935356E0,7.540538311E0,5.194220543E0
1.370764328E0,4.686051369E0,7.463923931E0,5.127182961E0
1.372766255E0,4.695628166E0,7.444770336E0,5.131971359E0
1.374768182E0,4.709993362E0,7.444770336E0,5.131971359E0
1.376770109E0,4.753088951E0,7.463923931E0,5.203797340E0
1.378772036E0,4.777030945E0,7.540538311E0,5.299565315E0
1.380773963E0,4.820126534E0,7.655459881E0,5.390544891E0
1.382775890E0,4.887164116E0,7.823053837E0,5.548562527E0
1.384777817E0,4.944624901E0,8.062474251E0,5.677849293E0
1.386779692E0,5.045181751E0,8.330624580E0,5.807136059E0
1.388781567E0,5.155314922E0,8.613141060E0,5.893327713E0
1.390783442E0,5.303755283E0,8.905233383E0,5.984307289E0
1.392785317E0,5.485714436E0,9.221267700E0,5.965153694E0
1.394787192E0,5.682039261E0,9.522936821E0,5.974730492E0
1.396789067E0,5.878363609E0,9.786299706E0,5.950788498E0
1.398790942E0,6.074688435E0,1.007360363E1,5.912481308E0
1.400792817E0,6.232705593E0,1.033217716E1,5.874173641E0
1.402794692E0,6.371569157E0,1.054286766E1,5.773617268E0
1.404796567E0,6.491279125E0,1.079665279E1,5.706579685E0
1.406798442E0,6.591835976E0,1.100734234E1,5.639542103E0
1.408800317E0,6.682815552E0,1.122760868E1,5.495890141E0
1.410802192E0,6.754641533E0,1.141914463E1,5.414487362E0
1.412804067E0,6.797737122E0,1.164420033E1,5.246892929E0
1.414805942E0,6.802525520E0,1.183573627E1,5.060145378E0
1.416807817E0,6.816890717E0,1.204163742E1,4.878185749E0
1.418809692E0,6.816890717E0,1.224275017E1,4.643554211E0
1.420811567E0,6.773795128E0,1.244865131E1,4.399345398E0
1.422813442E0,6.697180748E0,1.264018822E1,4.159925461E0
1.424815317E0,6.591835976E0,1.284608936E1,3.949235678E0
1.426817192E0,6.467337132E0,1.306156731E1,3.781641483E0
1.428819067E0,6.361992359E0,1.329619884E1,3.590105534E0
1.430820942E0,6.203975201E0,1.355956173E1,3.427299738E0
1.432822817E0,6.136937618E0,1.384207726E1,3.254917145E0
1.434824692E0,6.074688435E0,1.411980438E1,3.120841980E0
1.436826567E0,6.012439251E0,1.441189671E1,3.034650564E0
1.438828442E0,5.978919983E0,1.475187397E1,2.991554976E0
1.440830317E0,5.945401192E0,1.505354309E1,2.962824583E0
1.442832192E0,5.907094002E0,1.538394260E1,3.005920172E0
1.444834067E0,5.935824394E0,1.564730549E1,3.039438963E0
1.446835942E0,5.983708382E0,1.589630222E1,3.125630379E0
1.448837817E0,6.045958042E0,1.596333981E1,3.096899986E0
1.450839692E0,6.247070789E0,1.599207020E1,3.082534790E0
1.452841567E0,6.395511150E0,1.623149109E1,3.245340347E0
1.454843442E0,6.462548733E0,1.658104324E1,3.566163540E0
1.456845317E0,6.553528786E0,1.688271332E1,3.882198095E0
1.458847192E0,6.692392349E0,1.711255646E1,4.188655853E0
1.460849067E0,6.864774704E0,1.734718895E1,4.581305027E0
1.462850942E0,7.046734333E0,1.757224274E1,4.988319397E0
1.464852817E0,7.271789074E0,1.776856804E1,5.428852558E0
1.466854692E0,7.501632690E0,1.789306641E1,5.850231647E0
1.468856567E0,7.803301811E0,1.799841118E1,6.285976410E0
1.470858442E0,8.081028938E0,1.807502556E1,6.721721172E0
1.472860317E0,8.387487411E0,1.811333275E1,7.138312340E0
1.474862192E0,8.698733330E0,1.815642929E1,7.569268703E0
1.476864067E0,9.005190849E0,1.817558289E1,7.985859871E0
1.478865942E0,9.273342133E0,1.820910072E1,8.421604156E0
1.480867817E0,9.584588051E0,1.823304367E1,8.795100212E0
1.482869692E0,9.852738380E0,1.825698471E1,9.206902504E0
1.484871567E0,1.009215832E1,1.823304367E1,9.575610161E0
1.486873442E0,1.028848362E1,1.827135086E1,9.915586472E0
1.488875317E0,1.047044277E1,1.828092766E1,1.025556278E1
1.490877192E0,1.058057594E1,1.828571510E1,1.054286766E1
1.492879067E0,1.064761353E1,1.830965805E1,1.086369038E1
1.494880942E0,1.070507431E1,1.832402229E1,1.112226391E1
1.496882817E0,1.067634392E1,1.836232948E1,1.138562584E1
1.498884692E0,1.066197872E1,1.836232948E1,1.161068153E1
1.500886567E0,1.062845993E1,1.835275269E1,1.180700588E1
1.502888442E0,1.058536434E1,1.834796524E1,1.197938824E1
1.504890317E0,1.054705715E1,1.828571510E1,1.205600262E1
1.506892192E0,1.050874996E1,1.823304367E1,1.215177059E1
1.508894067E0,1.047044277E1,1.816121674E1,1.219965458E1
1.510895942E0,1.046086597E1,1.811333275E1,1.220923138E1
1.512897817E0,1.043692398E1,1.804150772E1,1.221401978E1
1.514899692E0,1.041298199E1,1.798404694E1,1.219007778E1
1.516901567E0,1.038903999E1,1.786912346E1,1.210388660E1
1.518903442E0,1.041298199E1,1.774941444E1,1.204163742E1
1.520905317E0,1.046086597E1,1.758660889E1,1.194108105E1
1.522907192E0,1.053269196E1,1.741901398E1,1.182615948E1
1.524909067E0,1.059972954E1,1.722747803E1,1.173039150E1
1.526910942E0,1.066676712E1,1.701678848E1,1.158195114E1
1.528912817E0,1.072422791E1,1.679652214E1,1.144308662E1
1.530914692E0,1.074816990E1,1.659062004E1,1.127070427E1
1.532916567E0,1.076732349E1,1.635598946E1,1.109832191E1
1.534918442E0,1.078168869E1,1.613572311E1,1.092115116E1
1.536920317E0,1.074816990E1,1.589151382E1,1.070088482E1
1.538922192E0,1.071943951E1,1.560899830E1,1.049498272E1
1.540924067E0,1.069070911E1,1.533605862E1,1.029865837E1
1.542925942E0,1.062367153E1,1.502481270E1,1.007360363E1
1.544927817E0,1.054705715E1,1.470877838E1,9.853337288E0
1.546929692E0,1.041777039E1,1.438795471E1,9.671378136E0
1.548931567E0,1.029806042E1,1.404797840E1,9.431957245E0
1.550933442E0,1.016398430E1,1.369842529E1,9.273940086E0
1.552935317E0,9.953294754E0,1.335365963E1,9.111134529E0
1.554937192E0,9.776124001E0,1.302326012E1,8.905233383E0
1.556939067E0,9.536704063E0,1.268807220E1,8.775946617E0
1.558940942E0,9.263765335E0,1.235288334E1,8.651448250E0
1.560942817E0,8.952518463E0,1.200333023E1,8.526948929E0
1.562944692E0,8.641272545E0,1.169208431E1,8.383296967E0
1.564946567E0,8.301296234E0,1.133295345E1,8.254010201E0
1.566948442E0,7.975684643E0,1.098818874E1,8.119935036E0
1.568950317E0,7.611765862E0,1.063384724E1,8.000225067E0
1.570952192E0,7.276577473E0,1.027950478E1,7.851784706E0
1.572954067E0,6.888716698E0,9.958682060E0,7.722497463E0
1.574955942E0,6.539163589E0,9.589975357E0,7.578845501E0
1.576957817E0,6.189610004E0,9.216479301E0,7.473500729E0
1.578959692E0,5.844844818E0,8.847772598E0,7.349001884E0
1.580961567E0,5.514444828E0,8.517372131E0,7.186196327E0
1.582963442E0,5.207987309E0,8.115146637E0,7.047332764E0
1.584965317E0,4.982932091E0,7.641094685E0,6.898892403E0
1.586967192E0,4.690839767E0,7.253233910E0,6.702567577E0
1.588969067E0,4.360439777E0,6.975506783E0,6.525396824E0
1.590970942E0,3.996521235E0,6.740874767E0,6.319495201E0
1.592972817E0,3.642179251E0,6.443994045E0,6.104017258E0
1.594974692E0,3.297414303E0,6.185420036E0,5.888539314E0
1.596976567E0,2.904765129E0,5.917269707E0,5.644330502E0
1.598978442E0,2.516904593E0,5.706579685E0,5.390544891E0
1.600980317E0,2.057217836E0,5.275623322E0,5.146336555E0
1.602982192E0,1.587954283E0,4.892550945E0,4.916493416E0
1.604984067E0,1.219247222E0,4.557363033E0,4.648342609E0
1.606985942E0,9.127894044E-1,4.475960255E0,4.480748653E0
1.608987817E0,5.345055461E-1,4.092887878E0,4.303577423E0
1.610989692E0,1.849520802E-1,3.690661907E0,4.150348663E0
1.612991567E0,-1.693897694E-1,3.398569345E0,3.997119665E0
1.614993442E0,-4.758476019E-1,3.135207176E0,3.934870481E0
1.616995317E0,-7.870938182E-1,2.747346401E0,3.853467703E0
1.618997192E0,-1.031302333E0,2.416946650E0,3.834314108E0
1.620999067E0,-1.251568913E0,2.053027868E0,3.796006680E0
1.623000942E0,-1.447893500E0,1.736993313E0,3.752911091E0
1.625002817E0,-1.615487576E0,1.516726732E0,3.738545895E0
1.627004692E0,-1.763928056E0,1.368286252E0,3.719392300E0
1.629006567E0,-1.878849745E0,1.234210968E0,3.700238705E0
1.631008442E0,-1.984194636E0,1.128866076E0,3.647566319E0
1.633010317E0,-2.065597534E0,1.028309584E0,3.637989521E0
1.635012192E0,-2.118269920E0,9.564836025E-1,3.566163540E0
1.637014067E0,-2.151788712E0,9.421183467E-1,3.503914118E0
1.639015942E0,-2.147000313E0,9.469067454E-1,3.460818529E0
1.641017817E0,-2.108693123E0,9.660604000E-1,3.388992548E0
1.643019692E0,-2.079962730E0,9.900023937E-1,3.341108561E0
1.645021567E0,-2.036867142E0,9.900023937E-1,3.259705544E0
1.647023442E0,-1.974617839E0,9.900023937E-1,3.173514366E0
1.649025317E0,-1.912368655E0,9.995791912E-1,3.087323189E0
1.651027192E0,-1.816600561E0,9.756371975E-1,2.962824583E0
1.653029067E0,-1.749562860E0,9.516952038E-1,2.843114614E0
1.655030942E0,-1.658583283E0,9.469067454E-1,2.699462414E0
1.657032817E0,-1.596333981E0,9.181763530E-1,2.555810213E0
1.659034692E0,-1.524507880E0,9.181763530E-1,2.402581453E0
1.661036567E0,-1.447893500E0,8.846575022E-1,2.249352455E0
1.663038442E0,-1.380855799E0,8.463503122E-1,2.144007683E0
1.665040317E0,-1.313818216E0,8.463503122E-1,2.029085875E0
1.667042192E0,-1.237203717E0,8.271966577E-1,1.890222192E0
1.669044067E0,-1.170166135E0,8.511387110E-1,1.765723705E0
1.671045942E0,-1.131858826E0,8.798691034E-1,1.650802016E0
1.673047817E0,-1.093551636E0,9.277531505E-1,1.507149935E0
1.675049692E0,-1.069609642E0,9.516952038E-1,1.377863050E0
1.677051567E0,-1.069609642E0,9.995791912E-1,1.258152962E0
1.679053442E0,-1.069609642E0,1.018732786E0,1.128866076E0
1.681055317E0,-1.083974838E0,1.013944387E0,9.852139950E-1
1.683057192E0,-1.088763237E0,9.947907925E-1,8.176198602E-1
1.685059067E0,-1.098340034E0,9.852139950E-1,6.452373862E-1
1.687060942E0,-1.103128433E0,9.516952038E-1,5.207388401E-1
1.689062817E0,-1.103128433E0,8.990227580E-1,4.201824069E-1
1.691064692E0,-1.083974838E0,8.750807047E-1,3.196259141E-1
1.693066567E0,-1.055244446E0,8.319851160E-1,2.813186944E-1
1.695068442E0,-1.040879130E0,7.793126702E-1,2.813186944E-1
1.697070317E0,-1.083974838E0,6.356605291E-1,3.100491166E-1
1.699072192E0,-1.122282028E0,4.872200489E-1,2.861070931E-1
1.701074067E0,-1.117493629E0,3.483563364E-1,2.142810524E-1
1.703075942E0,-1.122282028E0,2.525882721E-1,1.951274425E-1
1.705077817E0,-1.127070427E0,1.759738177E-1,1.520318091E-1
1.707079692E0,-1.141435623E0,9.935937077E-2,1.759738177E-1
1.709081567E0,-1.179742932E0,1.795651205E-2,1.424549967E-1
1.711083442E0,-1.189319730E0,-4.429273307E-2,1.233013868E-1
1.713085317E0,-1.227626920E0,-1.161187813E-1,1.041477770E-1
1.715087192E0,-1.232415318E0,-1.640028208E-1,6.584054977E-2
1.717089067E0,-1.222838521E0,-1.831564307E-1,4.189852998E-2
1.719090942E0,-1.232415318E0,-2.262520641E-1,3.591302549E-3
1.721092817E0,-1.241992116E0,-2.406172752E-1,-5.985504016E-3
1.723094692E0,-1.275510907E0,-2.454056740E-1,3.591302549E-3
1.725096567E0,-1.285087705E0,-2.741360962E-1,1.316810958E-2
1.727098442E0,-1.304241419E0,-2.741360962E-1,1.316810958E-2
1.729100317E0,-1.328183413E0,-3.028665185E-1,3.711012751E-2
1.731102192E0,-1.337760210E0,-3.651157618E-1,5.626374111E-2
1.733104067E0,-1.337760210E0,-4.129997790E-1,4.668693244E-2
1.735105942E0,-1.328183413E0,-4.465186298E-1,3.232172132E-2
1.737107817E0,-1.289876223E0,-4.800374508E-1,1.316810958E-2
1.739109692E0,-1.265934110E0,-5.183446407E-1,1.316810958E-2
1.741111567E0,-1.251568913E0,-5.470750928E-1,-1.077390742E-2
1.743113442E0,-1.251568913E0,-5.614402890E-1,-2.035071515E-2
1.745115317E0,-1.270722508E0,-5.710170865E-1,-7.781155407E-2
1.747117192E0,-1.280299306E0,-5.566518903E-1,-1.304839998E-1
1.749119067E0,-1.347337008E0,-5.327098966E-1,-1.879448295E-1
1.751120942E0,-1.395220995E0,-4.944026470E-1,-2.454056740E-1
1.753122817E0,-1.462258697E0,-4.656722248E-1,-3.315969408E-1
1.755124692E0,-1.534084797E0,-3.842693865E-1,-3.890577853E-1
1.757126567E0,-1.615487576E0,-3.220201433E-1,-4.608838260E-1
1.759128442E0,-1.672948480E0,-2.358288616E-1,-5.231330991E-1
1.761130317E0,-1.749562860E0,-1.687912196E-1,-5.662286878E-1
1.763132192E0,-1.778293371E0,-8.738835901E-2,-5.901707411E-1
1.765134067E0,-1.854907751E0,-5.985504016E-3,-6.141127348E-1
1.767135942E0,-1.912368655E0,7.541735470E-2,-6.428431273E-1
1.769137817E0,-1.965041041E0,1.568202078E-1,-6.763619781E-1
1.771139692E0,-2.032078743E0,2.094926536E-1,-7.050924301E-1
1.773141567E0,-2.075174332E0,2.717418969E-1,-6.907271743E-1
1.775143442E0,-2.123058319E0,3.196259141E-1,-7.769184709E-1
1.777145317E0,-2.170942307E0,3.531447649E-1,-7.864952683E-1
1.779147192E0,-2.218826532E0,4.058171809E-1,-8.248024583E-1
1.781149067E0,-2.252345324E0,4.584896266E-1,-8.343793154E-1
1.783150942E0,-2.309806108E0,4.776432514E-1,-8.248024583E-1
1.785152817E0,-2.338536501E0,4.872200489E-1,-8.343793154E-1
1.787154692E0,-2.367266893E0,4.872200489E-1,-8.056488633E-1
1.789156567E0,-2.419939280E0,4.441244006E-1,-7.769184709E-1
1.791158442E0,-2.477400303E0,3.818751574E-1,-7.481880188E-1
1.793160317E0,-2.530072689E0,2.956839204E-1,-7.194576263E-1
1.795162192E0,-2.563591480E0,2.190694511E-1,-6.955155730E-1
1.797164067E0,-2.621052265E0,2.094926536E-1,-6.859387755E-1
1.799165942E0,-2.668936253E0,2.430114746E-1,-7.146692276E-1
1.801167817E0,-2.688089848E0,3.148375154E-1,-7.290344238E-1
1.803169692E0,-2.716820478E0,4.441244006E-1,-7.003039718E-1
1.805171567E0,-2.726397276E0,5.590460896E-1,-6.667851806E-1
1.807173442E0,-2.759916067E0,7.218518257E-1,-6.428431273E-1
1.809175317E0,-2.740762472E0,8.655039072E-1,-6.284779310E-1
1.811177192E0,-2.764704466E0,9.564836025E-1,-6.428431273E-1
1.813179067E0,-2.788646460E0,1.047463298E0,-6.428431273E-1
1.815180942E0,-2.831742048E0,1.124077678E0,-6.572083831E-1
1.817182817E0,-2.874837637E0,1.167173386E0,-6.907271743E-1
1.819184692E0,-2.870049238E0,1.181538582E0,-7.433996201E-1
1.821186567E0,-2.870049238E0,1.205480576E0,-7.817068696E-1
1.823188442E0,-2.874837637E0,1.186326981E0,-8.104372621E-1
1.825190317E0,-2.889202833E0,1.162384868E0,-8.535329103E-1
1.827192192E0,-2.836530447E0,1.124077678E0,-9.109937549E-1
1.829194067E0,-2.831742048E0,1.109712481E0,-9.588778019E-1
1.831195942E0,-2.807800055E0,1.090558887E0,-1.021126986E0
1.833197817E0,-2.831742048E0,1.071405292E0,-1.021126986E0
1.835199692E0,-2.826953650E0,1.095347285E0,-1.045069098E0
1.837201567E0,-2.817376852E0,1.090558887E0,-1.069011092E0
1.839203442E0,-2.841318846E0,1.100135684E0,-1.069011092E0
1.841205317E0,-2.874837637E0,1.119289279E0,-1.102529883E0
1.843207192E0,-2.903568029E0,1.143231273E0,-1.078587890E0
1.845209067E0,-2.941875219E0,1.167173386E0,-1.073799491E0
1.847210942E0,-2.980182648E0,1.215057373E0,-1.097741485E0
1.849212817E0,-3.004124641E0,1.272518158E0,-1.131260276E0
1.851214692E0,-3.042431831E0,1.310825467E0,-1.126471877E0
1.853216567E0,-3.104681015E0,1.363497853E0,-1.155202270E0
1.855218442E0,-3.119046211E0,1.406593442E0,-1.183932781E0
1.857220317E0,-3.142988205E0,1.440112352E0,-1.212663174E0
1.859222192E0,-3.181295395E0,1.497573137E0,-1.227028370E0
1.861224067E0,-3.200449228E0,1.521515131E0,-1.265335560E0
1.863225942E0,-3.233968019E0,1.545457244E0,-1.289277673E0
1.865227817E0,-3.233968019E0,1.569399238E0,-1.303642869E0
1.867229692E0,-3.277063608E0,1.588552833E0,-1.322796464E0
1.869231567E0,-3.267486811E0,1.602918029E0,-1.356315255E0
1.871233442E0,-3.296217203E0,1.607706428E0,-1.370680451E0
1.873235317E0,-3.324947596E0,1.607706428E0,-1.399410844E0
1.875237192E0,-3.339312792E0,1.607706428E0,-1.399410844E0
1.877239067E0,-3.348889589E0,1.626860023E0,-1.437718153E0
1.879240942E0,-3.391985178E0,1.660378933E0,-1.485602140E0
1.881242817E0,-3.396773577E0,1.717839718E0,-1.471236944E0
1.883244692E0,-3.420715570E0,1.736993313E0,-1.538274646E0
1.885246567E0,-3.430292368E0,1.780089021E0,-1.571793437E0
1.887248442E0,-3.473388195E0,1.851915002E0,-1.586158633E0
1.889250317E0,-3.492541790E0,1.899798989E0,-1.614889026E0
1.891252192E0,-3.492541790E0,1.962048292E0,-1.653196216E0
1.893254067E0,-3.502118587E0,2.000355482E0,-1.677138329E0
1.895255942E0,-3.502118587E0,2.038662672E0,-1.662773132E0
1.897257817E0,-3.511695385E0,2.067393064E0,-1.672349930E0
1.899259692E0,-3.468599796E0,2.076969862E0,-1.710657120E0
1.901261567E0,-3.473388195E0,2.081758261E0,-1.705868721E0
1.903263442E0,-3.463811398E0,2.086546898E0,-1.744175911E0
1.905265317E0,-3.449446201E0,2.110488892E0,-1.734599113E0
1.907267192E0,-3.415927172E0,2.105700493E0,-1.725022316E0
1.909269067E0,-3.377619982E0,2.115277290E0,-1.739387512E0
1.911270942E0,-3.339312792E0,2.105700493E0,-1.744175911E0
1.913272817E0,-3.301005602E0,2.110488892E0,-1.744175911E0
1.915274692E0,-3.238756418E0,2.105700493E0,-1.720233917E0
1.917276567E0,-3.195660830E0,2.091335297E0,-1.705868721E0
1.919278442E0,-3.114257812E0,2.076969862E0,-1.691503525E0
1.921280317E0,-3.018489838E0,2.081758261E0,-1.686715126E0
1.923282192E0,-2.941875219E0,2.081758261E0,-1.710657120E0
1.925284067E0,-2.836530447E0,2.105700493E0,-1.715445518E0
1.927285942E0,-2.678513050E0,2.096123695E0,-1.768117905E0
1.929287817E0,-2.539649487E0,2.100912094E0,-1.835155606E0
1.931289692E0,-2.386420488E0,2.100912094E0,-1.902193308E0
1.933291567E0,-2.209249735E0,2.086546898E0,-1.935712099E0
1.935293442E0,-2.003348351E0,2.105700493E0,-2.007538080E0
1.937295317E0,-1.821388960E0,2.086546898E0,-2.069787264E0
1.939297192E0,-1.682525277E0,2.072181463E0,-2.108094692E0
1.941299067E0,-1.524507880E0,2.067393064E0,-2.165555477E0
1.943300942E0,-1.390432596E0,2.091335297E0,-2.227804661E0
1.945302817E0,-1.285087705E0,2.105700493E0,-2.266111851E0
1.947304692E0,-1.189319730E0,2.129642487E0,-2.328361034E0
1.949306567E0,-1.122282028E0,2.182314873E0,-2.385822058E0
1.951308442E0,-1.064821243E0,2.225410461E0,-2.424129248E0
1.953310317E0,-1.016937137E0,2.287659645E0,-2.481590033E0
1.955312192E0,-9.882067442E-1,2.335543871E0,-2.491166830E0
1.957314067E0,-9.498994946E-1,2.402581453E0,-2.524685621E0
1.959315942E0,-9.163807034E-1,2.445677042E0,-2.548627615E0
1.961317817E0,-9.115923047E-1,2.498349428E0,-2.586935043E0
1.963319692E0,-8.828618526E-1,2.546233416E0,-2.615665436E0
1.965321567E0,-8.684966564E-1,2.579752445E0,-2.596511841E0
1.967323442E0,-8.397662640E-1,2.637213230E0,-2.630030632E0
1.969325317E0,-8.445546627E-1,2.656366825E0,-2.644395828E0
1.971327244E0,-8.062474132E-1,2.670732021E0,-2.653972626E0
1.973329171E0,-8.014590144E-1,2.699462414E0,-2.649184227E0
1.975331099E0,-8.206126094E-1,2.718616009E0,-2.639607430E0
1.977333026E0,-8.301894665E-1,2.742558002E0,-2.625242233E0
1.979334953E0,-8.684966564E-1,2.785653591E0,-2.596511841E0
1.981336880E0,-9.020155072E-1,2.814383984E0,-2.610877037E0
1.983338807E0,-9.546879530E-1,2.876633406E0,-2.582146645E0
1.985340734E0,-1.007360339E0,2.929305792E0,-2.548627615E0
1.987342661E0,-1.060032845E0,2.991554976E0,-2.534262419E0
1.989344588E0,-1.098340034E0,3.058592558E0,-2.524685621E0
1.991346515E0,-1.131858826E0,3.135207176E0,-2.481590033E0
1.993348442E0,-1.165377736E0,3.226186752E0,-2.395398855E0
1.995350369E0,-1.189319730E0,3.331531763E0,-2.285265446E0
1.997352296E0,-1.203684926E0,3.422511339E0,-2.127248287E0
1.999354224E0,-1.261145711E0,3.523067713E0,-1.974019289E0
2.001356151E0,-1.318606615E0,3.633201122E0,-1.816002011E0
2.003358078E0,-1.371279001E0,3.743334293E0,-1.586158633E0
2.005360005E0,-1.423951507E0,3.886986494E0,-1.385045648E0
2.007361932E0,-1.443105102E0,4.021061897E0,-1.193509579E0
2.009363859E0,-1.443105102E0,4.188655853E0,-9.780313969E-1
2.011365786E0,-1.400009394E0,4.356249809E0,-7.625532150E-1
2.013367713E0,-1.347337008E0,4.552574635E0,-5.183446407E-1
2.015369640E0,-1.251568913E0,4.763264179E0,-3.076549172E-1
2.017371567E0,-1.160589218E0,5.017049789E0,-5.386953801E-2
2.019373494E0,-1.060032845E0,5.275623322E0,1.711854190E-1
2.021375421E0,-9.115923047E-1,5.582081318E0,4.058171809E-1
2.023377349E0,-7.775170207E-1,5.917269707E0,6.308721304E-1
2.025379224E0,-5.955576897E-1,6.266822815E0,8.271966577E-1
2.027381099E0,-4.327519536E-1,6.582857609E0,9.900023937E-1
2.029382974E0,-2.603694201E-1,6.913257599E0,1.181538582E0
2.031384849E0,-1.119289324E-1,7.224503517E0,1.310825467E0
2.033386724E0,2.992752008E-3,7.511807919E0,1.454477549E0
2.035388599E0,1.131260321E-1,7.794323444E0,1.593341231E0
2.037390474E0,1.849520802E-1,8.038532257E0,1.713051319E0
2.039392349E0,2.567781210E-1,8.306682587E0,1.775300503E0
2.041394224E0,3.142389655E-1,8.574832916E0,1.880645394E0
2.043396099E0,4.004302323E-1,8.847772598E0,1.966836691E0
2.045397974E0,5.392939448E-1,9.082404137E0,2.005143881E0
2.047399849E0,6.733692288E-1,9.278728485E0,1.995567083E0
2.049401724E0,8.792705536E-1,9.455899239E0,1.942894697E0
2.051403599E0,1.022922635E0,9.489418030E0,1.751358509E0
2.053405474E0,1.180940032E0,9.321824074E0,1.344344258E0
2.055407349E0,1.401206493E0,9.470264435E0,1.186326981E0
2.057409224E0,1.587954283E0,9.652224541E0,1.109712481E0
2.059411099E0,1.769913554E0,9.848548889E0,1.052251697E0
2.061412974E0,1.980603337E0,1.008318043E1,9.708487988E-1
2.063414849E0,2.239177227E0,1.027471638E1,8.655039072E-1
2.065416724E0,2.521692991E0,1.046625233E1,7.745242715E-1
2.067418599E0,2.842515945E0,1.071046162E1,7.122750282E-1
2.069420474E0,3.148973703E0,1.092115116E1,6.643909812E-1
2.071422349E0,3.474585295E0,1.116535950E1,6.212953329E-1
2.073424224E0,3.800196648E0,1.141914463E1,6.212953329E-1
2.075426099E0,4.106654644E0,1.166814232E1,6.787561774E-1
2.077427974E0,4.393958569E0,1.191713905E1,6.979097724E-1
2.079429849E0,4.652532578E0,1.217571259E1,7.601590157E-1
2.081431724E0,4.858433723E0,1.244386292E1,8.319851160E-1
2.083433599E0,5.054758549E0,1.267849541E1,8.750807047E-1
2.085435474E0,5.217564106E0,1.291791534E1,9.708487988E-1
2.087437349E0,5.385158062E0,1.312381649E1,1.071405292E0
2.089439224E0,5.552752495E0,1.330098724E1,1.148019671E0
2.091441099E0,5.720346451E0,1.346379280E1,1.296460271E0
2.093442974E0,5.902305603E0,1.358829212E1,1.444900751E0
2.095444849E0,6.079476833E0,1.369363689E1,1.578976035E0
2.097446724E0,6.256647587E0,1.382292366E1,1.784877419E0
2.099448599E0,6.371569157E0,1.395221043E1,1.909375906E0
2.101450474E0,6.438606739E0,1.404797840E1,2.086546898E0
2.103452349E0,6.500856400E0,1.418684196E1,2.177526474E0
2.105454224E0,6.539163589E0,1.432570553E1,2.249352455E0
2.107456099E0,6.596624374E0,1.445499229E1,2.278082848E0
2.109457974E0,6.697180748E0,1.459385681E1,2.292448044E0
2.111459849E0,6.816890717E0,1.473750877E1,2.325966835E0
2.113461724E0,6.965331078E0,1.485721874E1,2.369062662E0
2.115463599E0,7.137713909E0,1.499608231E1,2.512714624E0
2.117465474E0,7.314884663E0,1.512058067E1,2.608482838E0
2.119467349E0,7.554305077E0,1.525465584E1,2.723404408E0
2.121469224E0,7.769783020E0,1.541746140E1,2.881421804E0
2.123471099E0,8.023568153E0,1.557069111E1,3.025073767E0
2.125472974E0,8.243835449E0,1.572870827E1,3.135207176E0
2.127474849E0,8.464101791E0,1.590109062E1,3.264493942E0
2.129476724E0,8.689156532E0,1.606389618E1,3.408146143E0
2.131478599E0,8.938153267E0,1.624106789E1,3.551798105E0
2.133480474E0,9.230246544E0,1.637993050E1,3.633201122E0
2.135482349E0,9.517550468E0,1.650921822E1,3.791218281E0
2.137484224E0,9.780912399E0,1.657625580E1,3.901351690E0
2.139486099E0,1.002990913E1,1.662413979E1,3.973177671E0
2.141487974E0,1.022144604E1,1.667202377E1,4.078522682E0
2.143489849E0,1.036509800E1,1.670554161E1,4.169502258E0
2.145491724E0,1.044650078E1,1.674863815E1,4.246116638E0
2.147493599E0,1.045128918E1,1.680609894E1,4.265270233E0
2.149495474E0,1.041298199E1,1.687792397E1,4.298789024E0
2.151497349E0,1.035073280E1,1.700242424E1,4.289212227E0
2.153499224E0,1.028848362E1,1.711255646E1,4.231751442E0
2.155501099E0,1.023102283E1,1.716522980E1,4.126406670E0
2.157502974E0,1.024059963E1,1.717959404E1,3.939658880E0
2.159504849E0,1.024538803E1,1.716522980E1,3.757699490E0
2.161506724E0,1.025496483E1,1.708861542E1,3.575740337E0
2.163508599E0,1.025496483E1,1.699284744E1,3.374627352E0
2.165510474E0,1.018313885E1,1.690186691E1,3.230975151E0
2.167512349E0,1.007300472E1,1.683482933E1,3.187879562E0
2.169514224E0,9.948506355E0,1.676779175E1,3.187879562E0
2.171516099E0,9.780912399E0,1.676779175E1,3.254917145E0
2.173517974E0,9.598953247E0,1.682046318E1,3.422511339E0
2.175519849E0,9.412205696E0,1.688750076E1,3.681085110E0
2.177521724E0,9.249400139E0,1.696890450E1,3.977966070E0
2.179523599E0,9.048286438E0,1.705030823E1,4.284423828E0
2.181525474E0,8.842385292E0,1.704073143E1,4.466383457E0
2.183527349E0,8.670002937E0,1.666723442E1,4.145560265E0
2.185529224E0,8.401852608E0,1.686834717E1,4.231751442E0
2.187531099E0,7.822455406E0,1.731366920E1,4.744110584E0
2.189532974E0,7.137713909E0,1.789306641E1,5.179855347E0
2.191534849E0,6.323685169E0,1.864484596E1,5.606023312E0
2.193536724E0,5.514444828E0,1.985152245E1,6.051344872E0
2.195538599E0,7.199963093E0,2.544437790E1,6.779181957E0
2.197540474E0,1.170585060E1,3.657262802E1,8.344989777E0
2.199542349E0,1.604893303E1,4.538328934E1,9.853337288E0
2.201544224E0,1.386542034E1,4.077205658E1,8.038532257E0
2.203546099E0,1.161965942E1,3.279936600E1,7.238868713E0
2.205547974E0,1.336742687E1,2.962465477E1,9.159018517E0
2.207549849E0,1.595316410E1,2.847064972E1,1.116057110E1
2.209551724E0,1.828990555E1,2.767577362E1,1.216134739E1
2.211553599E0,2.013344002E1,2.729749107E1,1.211825180E1
2.213555474E0,2.086127853E1,2.623446465E1,1.163941193E1
2.215557349E0,2.087085533E1,2.471175194E1,1.078228760E1
2.217559224E0,2.059791565E1,2.334705734E1,1.037527275E1
2.219561099E0,1.993232727E1,2.198236275E1,1.044709873E1
2.221562974E0,1.923322105E1,2.078526115E1,1.032260036E1
2.223564849E0,1.856284523E1,1.986588860E1,1.015500641E1
2.225566724E0,1.789246750E1,1.906143761E1,9.953893661E0
2.227568599E0,1.737532043E1,1.832402229E1,9.513360023E0
2.229570474E0,1.661396408E1,1.719396019E1,9.063250542E0
2.231572349E0,1.582866573E1,1.603516579E1,8.684967041E0
2.233574224E0,1.507688618E1,1.536957741E1,8.158242226E0
2.235576099E0,1.423412800E1,1.505354309E1,7.569268703E0
2.237577974E0,1.318546772E1,1.478539276E1,7.009025574E0
2.239579849E0,1.204582691E1,1.459864521E1,6.640318394E0
2.241581724E0,1.097801304E1,1.456033802E1,6.242880821E0
2.243583599E0,9.991601944E0,1.458428001E1,5.859808445E0
2.245585474E0,9.048286438E0,1.468004799E1,5.491101742E0
2.247587349E0,8.239047050E0,1.476145077E1,5.208585739E0
2.249589224E0,7.583035469E0,1.480454636E1,4.930858612E0
2.251591099E0,6.989273548E0,1.481412315E1,4.681861401E0
2.253592974E0,6.524798393E0,1.475187397E1,4.499902248E0
2.255594849E0,6.103418827E0,1.467525959E1,4.337096214E0
2.257596724E0,5.720346451E0,1.464174080E1,4.212597847E0
2.259598599E0,5.375581264E0,1.461779881E1,4.121618271E0
2.261600474E0,5.035604954E0,1.465610600E1,4.097676277E0
2.263602349E0,4.733935356E0,1.473750877E1,4.107253075E0
2.265604224E0,4.480149746E0,1.490510273E1,4.193444252E0
2.267606099E0,4.245518208E0,1.511100388E1,4.274847031E0
2.269607974E0,4.121019840E0,1.537436581E1,4.327519417E0
2.271609849E0,4.039616585E0,1.564251709E1,4.394556999E0
2.273611724E0,4.068347454E0,1.592982101E1,4.475960255E0
2.275613599E0,4.178480625E0,1.620276070E1,4.533421040E0
2.277615474E0,4.398746967E0,1.644218063E1,4.576516628E0
2.279617349E0,4.657320976E0,1.665765762E1,4.595670223E0
2.281619224E0,4.935048103E0,1.684440613E1,4.610035419E0
2.283621099E0,5.308543682E0,1.696411705E1,4.590881824E0
2.285622974E0,5.634155273E0,1.706946182E1,4.605247021E0
2.287624849E0,6.002861977E0,1.717480659E1,4.566939831E0
2.289626724E0,6.347627163E0,1.728015137E1,4.547786236E0
2.291628599E0,6.678027153E0,1.740943718E1,4.480748653E0
2.293630474E0,7.032369137E0,1.753872490E1,4.447229862E0
2.295632349E0,7.338826656E0,1.768237686E1,4.418499470E0
2.297634224E0,7.630919456E0,1.783560562E1,4.361038208E0
2.299636099E0,7.903858185E0,1.796489334E1,4.327519417E0
2.301637974E0,8.143278122E0,1.807502556E1,4.303577423E0
2.303639849E0,8.387487411E0,1.815642929E1,4.294000626E0
2.305641724E0,8.626907349E0,1.819473648E1,4.279635429E0
2.307643599E0,8.890269279E0,1.821389008E1,4.265270233E0
2.309645474E0,9.167996407E0,1.818515968E1,4.284423828E0
2.311647349E0,9.474454880E0,1.815163994E1,4.289212227E0
2.313649224E0,9.756970406E0,1.807023811E1,4.370615005E0
2.315651099E0,1.003469753E1,1.800320053E1,4.442441463E0
2.317652974E0,1.030284882E1,1.789785576E1,4.533421040E0
2.319654849E0,1.056142235E1,1.779729843E1,4.648342609E0
2.321656724E0,1.080084229E1,1.768716431E1,4.758475780E0
2.323658599E0,1.104505062E1,1.756745529E1,4.906916618E0
2.325660474E0,1.126052952E1,1.742859077E1,5.045780182E0
2.327662349E0,1.146643066E1,1.728015137E1,5.189432144E0
2.329664224E0,1.167712021E1,1.712692261E1,5.328295708E0
2.331666099E0,1.190217495E1,1.699284744E1,5.457582951E0
2.333667974E0,1.209849930E1,1.682046318E1,5.606023312E0
2.335669849E0,1.232355499E1,1.667202377E1,5.735310078E0
2.337671724E0,1.249593735E1,1.652837181E1,5.902904510E0
2.339673599E0,1.269226170E1,1.637993050E1,6.027402878E0
2.341675474E0,1.285027885E1,1.626022148E1,6.175843239E0
2.343677349E0,1.295083523E1,1.611178017E1,6.285976410E0
2.345679224E0,1.303702641E1,1.595855141E1,6.424840450E0
2.347681099E0,1.310885239E1,1.581968784E1,6.487089634E0
2.349682974E0,1.314237213E1,1.562336349E1,6.597222805E0
2.351684849E0,1.313758373E1,1.545098114E1,6.669048786E0
2.353686724E0,1.310406399E1,1.524986744E1,6.702567577E0
2.355688599E0,1.303702641E1,1.502002430E1,6.755239964E0
2.357690474E0,1.296520042E1,1.481891155E1,6.807912350E0
2.359692349E0,1.282154846E1,1.462737560E1,6.812700748E0
2.361694224E0,1.270662689E1,1.440710831E1,6.831854343E0
2.363696099E0,1.251987934E1,1.419163036E1,6.783970356E0
2.365697974E0,1.234749699E1,1.396657562E1,6.731297970E0
2.367699849E0,1.217032623E1,1.372715569E1,6.640318394E0
2.369701724E0,1.196921253E1,1.348294640E1,6.597222805E0
2.371703599E0,1.173936939E1,1.325310326E1,6.487089634E0
2.373705474E0,1.151431465E1,1.299452972E1,6.391321659E0
2.375707349E0,1.127489471E1,1.274074459E1,6.276399612E0
2.377709224E0,1.103068542E1,1.248695850E1,6.175843239E0
2.379711099E0,1.077690029E1,1.222359657E1,6.065710068E0
2.381712974E0,1.051832676E1,1.197938824E1,5.936423302E0
2.383714849E0,1.026454163E1,1.171123791E1,5.835866451E0
2.385716724E0,1.001075554E1,1.149097061E1,5.706579685E0
2.387718599E0,9.771335602E0,1.125633907E1,5.601234913E0
2.389720474E0,9.488820076E0,1.101213074E1,5.457582951E0
2.391722349E0,9.249400139E0,1.077749920E1,5.304353714E0
2.393724224E0,8.957306862E0,1.054286766E1,5.155913353E0
2.395726099E0,8.665214539E0,1.031302357E1,4.993107796E0
2.397727974E0,8.387487411E0,1.007360363E1,4.844666958E0
2.399729849E0,8.128912926E0,9.824606895E0,4.657919407E0
2.401731724E0,7.832032204E0,9.551667213E0,4.471171856E0
2.403733599E0,7.520786285E0,9.307458878E0,4.303577423E0
2.405735474E0,7.243058681E0,9.058462143E0,4.131195068E0
2.407737349E0,6.936600685E0,8.828619003E0,3.977966070E0
2.409739224E0,6.644508362E0,8.584410667E0,3.824737310E0
2.411741099E0,6.314108372E0,8.349778175E0,3.652354717E0
2.413742974E0,5.993285179E0,8.105569839E0,3.523067713E0
2.415744849E0,5.691616058E0,7.909245491E0,3.408146143E0
2.417746724E0,5.351639271E0,7.684190273E0,3.264493942E0
2.419748599E0,4.978143692E0,7.492654324E0,3.183091164E0
2.421750474E0,4.633378983E0,7.301117897E0,3.058592558E0
2.423752349E0,4.293402195E0,7.085639954E0,2.972401381E0
2.425754224E0,3.943848848E0,6.894104004E0,2.876633406E0
2.427756099E0,3.599083662E0,6.726509571E0,2.800018787E0
2.429757974E0,3.287837505E0,6.554127216E0,2.728192806E0
2.431759849E0,2.981379747E0,6.367379189E0,2.594117641E0
2.433761724E0,2.732382774E0,6.214150429E0,2.507926226E0
2.435763599E0,2.469020605E0,6.046556473E0,2.397793055E0
2.437765474E0,2.243965626E0,5.898116112E0,2.316390038E0
2.439767349E0,2.066794634E0,5.744886875E0,2.187103271E0
2.441769224E0,1.889623642E0,5.582081318E0,2.086546898E0
2.443771099E0,1.760336757E0,5.428852558E0,2.005143881E0
2.445772974E0,1.650203466E0,5.285200119E0,1.899798989E0
2.447774849E0,1.549647093E0,5.127182961E0,1.823184609E0
2.449776724E0,1.453878999E0,4.964377403E0,1.741781712E0
2.451778599E0,1.377264500E0,4.811148167E0,1.684320927E0
2.453780474E0,1.305438519E0,4.657919407E0,1.622071624E0
2.455782349E0,1.271919608E0,4.519055843E0,1.550245643E0
2.457784224E0,1.247977614E0,4.356249809E0,1.535880446E0
2.459786099E0,1.243189216E0,4.270058632E0,1.478419542E0
2.461787974E0,1.233612418E0,4.145560265E0,1.440112352E0
2.463789849E0,1.243189216E0,4.068945885E0,1.397016644E0
2.465791724E0,1.267131209E0,3.982754469E0,1.334767461E0
2.467793599E0,1.310226917E0,3.939658880E0,1.277306557E0
2.469795474E0,1.362899303E0,3.877409697E0,1.253364563E0
2.471797349E0,1.391629696E0,3.877409697E0,1.224634171E0
2.473799224E0,1.444302201E0,3.858256102E0,1.162384868E0
2.475801099E0,1.511339784E0,3.858256102E0,1.095347285E0
2.477802974E0,1.611896276E0,3.867832899E0,1.052251697E0
2.479804849E0,1.669357181E0,3.867832899E0,9.708487988E-1
2.481806724E0,1.769913554E0,3.858256102E0,9.133879542E-1
2.483808599E0,1.865681648E0,3.848679304E0,8.319851160E-1
2.485810474E0,1.985391736E0,3.853467703E0,7.649474144E-1
2.487812349E0,2.085948229E0,3.853467703E0,7.266402245E-1
2.489814224E0,2.210446835E0,3.815160513E0,6.452373862E-1
2.491816099E0,2.306214809E0,3.810372114E0,6.117185354E-1
2.493817974E0,2.368463993E0,3.781641483E0,5.303156972E-1
2.495819849E0,2.425924778E0,3.743334293E0,5.015852451E-1
2.497821724E0,2.473809004E0,3.690661907E0,4.584896266E-1
2.499823599E0,2.512116194E0,3.647566319E0,4.106055796E-1
2.501825474E0,2.526481390E0,3.609259129E0,3.579331636E-1
2.503827349E0,2.536058187E0,3.527856112E0,3.148375154E-1
2.505829224E0,2.507327795E0,3.499125719E0,2.669534981E-1
2.507831099E0,2.440289974E0,3.475183725E0,2.382230759E-1
2.509832974E0,2.339733601E0,3.446453333E0,2.813186944E-1
2.511834849E0,2.330156803E0,3.312378168E0,2.908954918E-1
2.513836724E0,2.296638012E0,3.187879562E0,2.573766708E-1
2.515838599E0,2.234388828E0,3.092111588E0,1.759738177E-1
2.517840474E0,2.148197412E0,3.005920172E0,1.568202078E-1
2.519842349E0,2.085948229E0,2.914940596E0,1.424549967E-1
2.521844224E0,1.990180135E0,2.823961020E0,1.616086215E-1
2.523846099E0,1.870470047E0,2.761711597E0,1.999158412E-1
2.525847974E0,1.750759959E0,2.670732021E0,2.238578647E-1
2.527849849E0,1.616684675E0,2.594117641E0,2.382230759E-1
2.529851724E0,1.463455796E0,2.541445017E0,3.196259141E-1
2.531853599E0,1.300650120E0,2.488772631E0,3.531447649E-1
2.533855474E0,1.137844324E0,2.421735048E0,3.962403834E-1
2.535857349E0,9.606734514E-1,2.349909067E0,4.249708056E-1
2.537859224E0,7.930793166E-1,2.316390038E0,4.728548229E-1
2.539861099E0,6.446388364E-1,2.278082848E0,5.015852451E-1
2.541862974E0,4.674678743E-1,2.239775658E0,5.494692922E-1
2.543864849E0,3.286041915E-1,2.215833664E0,5.877765417E-1
2.545866724E0,1.753752679E-1,2.187103271E0,6.404489279E-1
2.547868599E0,-2.094926499E-2,2.153584480E0,6.691793799E-1
2.549870474E0,-1.646013707E-1,2.124854088E0,7.362170219E-1
2.551872349E0,-3.513490856E-1,2.110488892E0,7.505822182E-1
2.553874224E0,-5.141547918E-1,2.120065689E0,8.080430627E-1
2.555876099E0,-6.625953317E-1,2.134430885E0,8.415619135E-1
2.557877974E0,-8.062474132E-1,2.139219284E0,8.607155085E-1
2.559879849E0,-9.451110959E-1,2.172738075E0,8.750807047E-1
2.561881724E0,-1.060032845E0,2.206256866E0,8.702923059E-1
2.563883599E0,-1.165377736E0,2.244564056E0,8.367735147E-1
2.565885474E0,-1.265934110E0,2.282871246E0,8.367735147E-1
2.567887349E0,-1.356913805E0,2.349909067E0,8.224082589E-1
2.569889224E0,-1.443105102E0,2.402581453E0,8.271966577E-1
2.571891099E0,-1.510142684E0,2.460042238E0,8.176198602E-1
2.573892974E0,-1.577180386E0,2.546233416E0,8.224082589E-1
2.575894849E0,-1.639429569E0,2.603694439E0,8.176198602E-1
2.577896724E0,-1.687313676E0,2.680308819E0,8.415619135E-1
2.579898599E0,-1.744774461E0,2.747346401E0,8.607155085E-1
2.581900474E0,-1.797446966E0,2.795230389E0,8.176198602E-1
2.583902349E0,-1.816600561E0,2.819172382E0,8.032546639E-1
2.585904224E0,-1.845330954E0,2.823961020E0,7.601590157E-1
2.587906099E0,-1.864484549E0,2.814383984E0,6.739677787E-1
2.589907974E0,-1.859696150E0,2.800018787E0,6.260837317E-1
2.591909849E0,-1.845330954E0,2.766499996E0,5.542576909E-1
2.593911724E0,-1.845330954E0,2.747346401E0,4.728548229E-1
2.595913599E0,-1.816600561E0,2.713827610E0,4.106055796E-1
2.597915474E0,-1.802235365E0,2.665943623E0,3.579331636E-1
2.599917349E0,-1.787870169E0,2.632424831E0,2.573766708E-1
2.601919224E0,-1.773504853E0,2.618059635E0,1.951274425E-1
2.603921099E0,-1.725620866E0,2.584540844E0,1.041477770E-1
2.605922974E0,-1.701678872E0,2.546233416E0,2.753331885E-2
2.607924849E0,-1.668160081E0,2.555810213E0,-4.908113554E-2
2.609926724E0,-1.596333981E0,2.527079821E0,-1.161187813E-1
2.611928599E0,-1.562815189E0,2.541445017E0,-1.496376097E-1
2.613930474E0,-1.495777488E0,2.541445017E0,-1.879448295E-1
2.615932349E0,-1.457470298E0,2.546233416E0,-2.406172752E-1
2.617934224E0,-1.428739905E0,2.555810213E0,-2.597708702E-1
2.619936099E0,-1.380855799E0,2.565387011E0,-2.310404629E-1
2.621937974E0,-1.323395014E0,2.517503023E0,-2.214636505E-1
2.623939849E0,-1.294664621E0,2.503137827E0,-2.837128937E-1
2.625941724E0,-1.275510907E0,2.450465441E0,-3.172317147E-1
2.627943599E0,-1.256357312E0,2.431311846E0,-3.459621370E-1
2.629945474E0,-1.241992116E0,2.431311846E0,-3.746925592E-1
2.631947349E0,-1.246780515E0,2.436100245E0,-3.794809580E-1
2.633949224E0,-1.246780515E0,2.421735048E0,-3.651157618E-1
2.635951099E0,-1.270722508E0,2.455253839E0,-3.794809580E-1
2.637952974E0,-1.265934110E0,2.464830637E0,-3.746925592E-1
2.639954849E0,-1.265934110E0,2.493561029E0,-3.890577853E-1
2.641956724E0,-1.299453020E0,2.512714624E0,-3.507505357E-1
2.643958599E0,-1.285087705E0,2.503137827E0,-3.076549172E-1
2.645960474E0,-1.309029818E0,2.536656618E0,-2.741360962E-1
2.647962349E0,-1.347337008E0,2.536656618E0,-2.358288616E-1
2.649964224E0,-1.361702204E0,2.536656618E0,-1.975216419E-1
2.651966099E0,-1.404797792E0,2.546233416E0,-1.735796183E-1
2.653967974E0,-1.467047095E0,2.560598612E0,-1.352723986E-1
2.655969849E0,-1.519719481E0,2.574964046E0,-9.696517140E-2
2.657971724E0,-1.567603588E0,2.574964046E0,-4.429273307E-2
2.659973599E0,-1.629852772E0,2.565387011E0,-5.985504016E-3
2.661975474E0,-1.711255670E0,2.570175409E0,3.711012751E-2
2.663977349E0,-1.797446966E0,2.584540844E0,7.541735470E-2
2.665979276E0,-1.859696150E0,2.579752445E0,9.457096457E-2
2.667981203E0,-1.907580256E0,2.589329243E0,1.663970202E-1
2.669983130E0,-1.950675845E0,2.598906040E0,1.520318091E-1
2.671985057E0,-2.008136749E0,2.622848034E0,1.424549967E-1
2.673986984E0,-2.046443939E0,2.651578426E0,7.541735470E-2
2.675988911E0,-2.060809135E0,2.699462414E0,8.379706182E-3
2.677990838E0,-2.075174332E0,2.747346401E0,-4.429273307E-2
2.679992765E0,-2.079962730E0,2.819172382E0,-1.304839998E-1
2.681994692E0,-2.051232338E0,2.890998602E0,-2.358288616E-1
2.683996619E0,-2.027290344E0,2.967612982E0,-2.980781198E-1
2.685998546E0,-1.998559833E0,3.029862165E0,-3.411737382E-1
2.688000474E0,-1.979406238E0,3.111265182E0,-3.459621370E-1
2.690002401E0,-1.931522250E0,3.144783974E0,-4.082113802E-1
2.692004328E0,-1.893214941E0,3.202244759E0,-4.321534038E-1
2.694006255E0,-1.859696150E0,3.245340347E0,-4.369418025E-1
2.696008182E0,-1.811812162E0,3.264493942E0,-4.513070285E-1
2.698010109E0,-1.778293371E0,3.317166567E0,-4.800374508E-1
2.700012036E0,-1.759139657E0,3.341108561E0,-5.183446407E-1
2.702013963E0,-1.739986062E0,3.393780947E0,-5.710170865E-1
2.704015890E0,-1.711255670E0,3.451241732E0,-6.141127348E-1
2.706017817E0,-1.687313676E0,3.479972124E0,-6.045359373E-1
2.708019744E0,-1.644217968E0,3.551798105E0,-6.332663298E-1
2.710021671E0,-1.591545582E0,3.609259129E0,-5.901707411E-1
2.712023599E0,-1.567603588E0,3.705027103E0,-5.997475386E-1
2.714025526E0,-1.534084797E0,3.762487888E0,-5.901707411E-1
2.716027453E0,-1.510142684E0,3.819948912E0,-6.332663298E-1
2.718029328E0,-1.481412292E0,3.886986494E0,-6.763619781E-1
2.720031203E0,-1.443105102E0,3.910928488E0,-6.859387755E-1
2.722033078E0,-1.404797792E0,3.958812475E0,-7.290344238E-1
2.724034953E0,-1.390432596E0,3.987542868E0,-7.529764175E-1
2.726036828E0,-1.371279001E0,3.982754469E0,-7.529764175E-1
2.728038703E0,-1.352125406E0,3.997119665E0,-7.817068696E-1
2.730040578E0,-1.318606615E0,3.987542868E0,-8.248024583E-1
2.732042453E0,-1.309029818E0,3.992331266E0,-8.870517015E-1
2.734044328E0,-1.285087705E0,4.006696701E0,-9.109937549E-1
2.736046203E0,-1.265934110E0,4.001908302E0,-9.109937549E-1
2.738048078E0,-1.256357312E0,3.958812475E0,-9.301473498E-1
2.740049953E0,-1.227626920E0,3.930082083E0,-9.397241473E-1
2.742051828E0,-1.232415318E0,3.954024076E0,-9.780313969E-1
2.744053703E0,-1.194108129E0,3.934870481E0,-9.876081944E-1
2.746055578E0,-1.189319730E0,3.944447279E0,-1.001973391E0
2.748057453E0,-1.203684926E0,3.920505285E0,-9.971849918E-1
2.750059328E0,-1.184531331E0,3.930082083E0,-1.011550188E0
2.752061203E0,-1.194108129E0,3.944447279E0,-1.040280581E0
2.754063078E0,-1.218050122E0,3.896563292E0,-1.030703783E0
2.756064953E0,-1.241992116E0,3.891774893E0,-1.025915384E0
2.758066828E0,-1.265934110E0,3.891774893E0,-1.045069098E0
2.760068703E0,-1.318606615E0,3.867832899E0,-1.054645896E0
2.762070578E0,-1.337760210E0,3.872621298E0,-1.045069098E0
2.764072453E0,-1.342548609E0,3.867832899E0,-1.054645896E0
2.766074328E0,-1.337760210E0,3.848679304E0,-1.049857497E0
2.768076203E0,-1.313818216E0,3.815160513E0,-1.069011092E0
2.770078078E0,-1.342548609E0,3.776853085E0,-1.049857497E0
2.772079953E0,-1.332971811E0,3.772064686E0,-1.040280581E0
2.774081828E0,-1.380855799E0,3.762487888E0,-1.021126986E0
2.776083703E0,-1.414374709E0,3.743334293E0,-1.016338587E0
2.778085578E0,-1.471835494E0,3.743334293E0,-9.780313969E-1
2.780087453E0,-1.543661594E0,3.738545895E0,-1.001973391E0
2.782089328E0,-1.615487576E0,3.743334293E0,-9.876081944E-1
2.784091203E0,-1.687313676E0,3.728969097E0,-9.684545994E-1
2.786093078E0,-1.787870169E0,3.767276287E0,-9.493009448E-1
2.788094953E0,-1.869272947E0,3.796006680E0,-9.636662006E-1
2.790096828E0,-1.907580256E0,3.815160513E0,-9.397241473E-1
2.792098703E0,-1.965041041E0,3.815160513E0,-9.876081944E-1
2.794100578E0,-1.969829440E0,3.848679304E0,-1.011550188E0
2.796102453E0,-1.998559833E0,3.858256102E0,-1.035492182E0
2.798104328E0,-1.988983035E0,3.824737310E0,-1.078587890E0
2.800106203E0,-1.979406238E0,3.829525709E0,-1.092953086E0
2.802108078E0,-1.969829440E0,3.824737310E0,-1.116895080E0
2.804109953E0,-1.969829440E0,3.819948912E0,-1.155202270E0
2.806111828E0,-1.974617839E0,3.834314108E0,-1.169567585E0
2.808113703E0,-1.984194636E0,3.829525709E0,-1.179144382E0
2.810115578E0,-1.998559833E0,3.819948912E0,-1.193509579E0
2.812117453E0,-1.998559833E0,3.819948912E0,-1.227028370E0
2.814119328E0,-1.974617839E0,3.800795317E0,-1.217451572E0
2.816121203E0,-1.974617839E0,3.796006680E0,-1.231816769E0
2.818123078E0,-1.974617839E0,3.772064686E0,-1.241393566E0
2.820124953E0,-1.960252643E0,3.762487888E0,-1.231816769E0
2.822126828E0,-1.969829440E0,3.757699490E0,-1.270123959E0
2.824128703E0,-1.960252643E0,3.743334293E0,-1.274912357E0
2.826130578E0,-1.945887446E0,3.733757496E0,-1.284489155E0
2.828132453E0,-1.950675845E0,3.738545895E0,-1.303642869E0
2.830134328E0,-1.931522250E0,3.752911091E0,-1.294066072E0
2.832136203E0,-1.907580256E0,3.781641483E0,-1.313219666E0
2.834138078E0,-1.898003340E0,3.796006680E0,-1.313219666E0
2.836139953E0,-1.893214941E0,3.810372114E0,-1.327584863E0
2.838141828E0,-1.883638144E0,3.877409697E0,-1.308431268E0
2.840143703E0,-1.854907751E0,3.906140089E0,-1.318008065E0
2.842145578E0,-1.830965757E0,3.949235678E0,-1.279700756E0
2.844147453E0,-1.816600561E0,4.021061897E0,-1.207874775E0
2.846149328E0,-1.811812162E0,4.107253075E0,-1.164779186E0
2.848151203E0,-1.811812162E0,4.193444252E0,-1.126471877E0
2.850153078E0,-1.787870169E0,4.255693436E0,-1.073799491E0
2.852154953E0,-1.773504853E0,4.313154221E0,-1.011550188E0
2.854156828E0,-1.706467271E0,4.375403404E0,-9.205705523E-1
2.856158703E0,-1.653794765E0,4.452018261E0,-8.391677141E-1
2.858160578E0,-1.577180386E0,4.523844242E0,-7.194576263E-1
2.860162453E0,-1.514931083E0,4.571728230E0,-6.524199843E-1
2.862164328E0,-1.495777488E0,4.590881824E0,-5.566518903E-1
2.864166203E0,-1.447893500E0,4.566939831E0,-5.135562420E-1
2.866168078E0,-1.438316703E0,4.509479046E0,-4.273650050E-1
2.868169953E0,-1.457470298E0,4.499902248E0,-3.651157618E-1
2.870171828E0,-1.423951507E0,4.519055843E0,-2.885012925E-1
2.872173703E0,-1.428739905E0,4.523844242E0,-2.310404629E-1
2.874175578E0,-1.438316703E0,4.519055843E0,-1.783680320E-1
2.876177453E0,-1.438316703E0,4.523844242E0,-1.400607973E-1
2.878179328E0,-1.423951507E0,4.523844242E0,-8.259996027E-2
2.880181203E0,-1.385644197E0,4.499902248E0,-4.429273307E-2
2.882183078E0,-1.342548609E0,4.490325451E0,1.795651205E-2
2.884184953E0,-1.304241419E0,4.485537052E0,6.584054977E-2
2.886186828E0,-1.270722508E0,4.461595058E0,1.233013868E-1
2.888188703E0,-1.213261724E0,4.442441463E0,1.328781992E-1
2.890190578E0,-1.170166135E0,4.428076267E0,1.616086215E-1
2.892192453E0,-1.184531331E0,4.404133797E0,1.807622313E-1
2.894194328E0,-1.170166135E0,4.413711071E0,1.424549967E-1
2.896196203E0,-1.170166135E0,4.432864666E0,1.568202078E-1
2.898198078E0,-1.198896527E0,4.452018261E0,1.759738177E-1
2.900199953E0,-1.232415318E0,4.447229862E0,1.807622313E-1
2.902201828E0,-1.232415318E0,4.461595058E0,1.855506301E-1
2.904203703E0,-1.261145711E0,4.485537052E0,1.999158412E-1
2.906205578E0,-1.265934110E0,4.495113850E0,2.382230759E-1
2.908207453E0,-1.270722508E0,4.523844242E0,2.430114746E-1
2.910209328E0,-1.294664621E0,4.533421040E0,2.525882721E-1
2.912211203E0,-1.304241419E0,4.542997837E0,2.908954918E-1
2.914213078E0,-1.318606615E0,4.495113850E0,3.292027414E-1
2.916214953E0,-1.270722508E0,4.399345398E0,3.579331636E-1
2.918216828E0,-1.170166135E0,4.322731018E0,3.818751574E-1
2.920218703E0,-1.093551636E0,4.270058632E0,4.010287821E-1
2.922220578E0,-1.083974838E0,4.265270233E0,4.537012279E-1
2.924222453E0,-1.016937137E0,4.212597847E0,5.111620426E-1
2.926224328E0,-9.115923047E-1,4.207809448E0,5.398924947E-1
2.928226203E0,-8.445546627E-1,4.217386246E0,5.829881430E-1
2.930228078E0,-7.727286220E-1,4.250905037E0,6.500257850E-1
2.932229953E0,-6.865373254E-1,4.313154221E0,7.170634270E-1
2.934231828E0,-5.716156363E-1,4.332307816E0,7.649474144E-1
2.936233703E0,-4.423287511E-1,4.351461411E0,7.936778665E-1
2.938235578E0,-2.268506140E-1,4.351461411E0,8.559271097E-1
2.940237453E0,-3.531447425E-2,4.380191803E0,9.421183467E-1
2.942239328E0,1.801636815E-1,4.408922195E0,9.660604000E-1
2.944241203E0,4.100070298E-1,4.442441463E0,1.009155989E0
2.946243078E0,6.877344251E-1,4.289212227E0,9.612720013E-1
2.948244953E0,9.558850527E-1,4.241328239E0,8.655039072E-1
2.950246828E0,1.200093627E0,4.337096214E0,9.421183467E-1
2.952248703E0,1.434725404E0,4.452018261E0,1.157596469E0
2.954250578E0,1.616684675E0,4.600458622E0,1.310825467E0
2.956252453E0,1.808220863E0,4.701014996E0,1.397016644E0
2.958254328E0,1.951872945E0,4.806359768E0,1.444900751E0
2.960256203E0,2.124255419E0,4.849455357E0,1.440112352E0
2.962258078E0,2.176927805E0,4.950012207E0,1.449689150E0
2.964259953E0,2.181716204E0,5.021838188E0,1.363497853E0
2.966261828E0,2.191293001E0,5.098452568E0,1.291671872E0
2.968263703E0,2.109890223E0,5.218162537E0,1.253364563E0
2.970265578E0,2.023699045E0,5.390544891E0,1.243787766E0
2.972267453E0,1.836951256E0,5.510255337E0,1.210268974E0
2.974269328E0,1.650203466E0,5.606023312E0,1.171961784E0
2.976271203E0,1.372476101E0,5.792770863E0,1.095347285E0
2.978273078E0,1.147421122E0,5.912481308E0,1.052251697E0
2.980274953E0,8.457517624E-1,6.075286865E0,9.804255962E-1
2.982276828E0,5.728127360E-1,6.262034416E0,9.133879542E-1
2.984278703E0,3.190273643E-1,6.429628849E0,9.277531505E-1
2.986280578E0,1.035492271E-1,6.611588001E0,9.229647517E-1
2.988282453E0,-7.362170517E-2,6.807912350E0,9.995791912E-1
2.990284328E0,-2.076970041E-1,7.032967567E0,1.061828494E0
2.992286203E0,-3.657143116E-1,7.267599106E0,1.119289279E0
2.994288078E0,-5.620388389E-1,7.502231121E0,1.210268974E0
2.996289953E0,-6.434416771E-1,7.684190273E0,1.291671872E0
2.998291828E0,-7.152677774E-1,7.861361504E0,1.397016644E0
3.000293703E0,-6.913257241E-1,7.952341080E0,1.540668845E0
3.002295578E0,-6.051344872E-1,7.952341080E0,1.646013618E0
3.004297453E0,-4.997895956E-1,7.861361504E0,1.540668845E0
3.006299328E0,-3.944447339E-1,7.995436668E0,1.775300503E0
3.008301203E0,-3.082534671E-1,8.148665428E0,2.144007683E0
3.010303078E0,-1.646013707E-1,8.244433403E0,2.407369852E0
3.012304953E0,1.256955881E-2,8.301894188E0,2.555810213E0
3.014306828E0,2.567781210E-1,8.397662163E0,2.651578426E0
3.016308703E0,4.531026781E-1,8.560467720E0,2.790441990E0
3.018310578E0,6.637924314E-1,8.766369820E0,2.876633406E0
3.020312453E0,8.936358094E-1,8.977059364E0,2.958036184E0
3.022314328E0,1.166574836E0,9.206902504E0,3.087323189E0
3.024316203E0,1.473032594E0,9.431957245E0,3.163937569E0
3.026318078E0,1.779490471E0,9.690531731E0,3.240551949E0
3.028319953E0,2.085948229E0,9.906009674E0,3.374627352E0
3.030321828E0,2.425924778E0,1.019331360E1,3.527856112E0
3.032323703E0,2.794631958E0,1.047104073E1,3.637989521E0
3.034325578E0,3.120243311E0,1.075355721E1,3.714603901E0
3.036327453E0,3.493738890E0,1.107916832E1,3.810372114E0
3.038329328E0,3.790619850E0,1.141435623E1,3.906140089E0
3.040331203E0,4.087501049E0,1.176869869E1,3.973177671E0
3.042333078E0,4.408323765E0,1.214219379E1,4.025850296E0
3.044334953E0,4.753088951E0,1.248695850E1,4.045003891E0
3.046336828E0,5.097854137E0,1.275989819E1,4.092887878E0
3.048338703E0,5.442618847E0,1.300410652E1,4.064157486E0
3.050340578E0,5.825691223E0,1.320043087E1,4.001908302E0
3.052342453E0,6.208763599E0,1.337281322E1,3.977966070E0
3.054344328E0,6.610989571E0,1.353561974E1,3.925293684E0
3.056346203E0,7.061099529E0,1.370800209E1,3.915716887E0
3.058348078E0,7.501632690E0,1.387080765E1,3.934870481E0
3.060349953E0,7.961318970E0,1.404319000E1,3.982754469E0
3.062351828E0,8.421006203E0,1.421078396E1,4.025850296E0
3.064353703E0,8.813654900E0,1.435922432E1,4.092887878E0
3.066355578E0,9.263765335E0,1.447893524E1,4.083311081E0
3.068357453E0,9.723451614E0,1.462737560E1,4.126406670E0
3.070359328E0,1.013046551E1,1.479496956E1,4.241328239E0
3.072361203E0,1.048001957E1,1.495298672E1,4.399345398E0
3.074363078E0,1.081520748E1,1.514452267E1,4.614823818E0
3.076364953E0,1.107378101E1,1.529296303E1,4.830301762E0
3.078366828E0,1.132277870E1,1.548449993E1,5.112817764E0
3.080368703E0,1.152867985E1,1.572391987E1,5.424064159E0
3.082370578E0,1.169148540E1,1.594897461E1,5.735310078E0
3.084372453E0,1.184471416E1,1.624585533E1,6.065710068E0
3.086374328E0,1.193569374E1,1.656667900E1,6.429628849E0
3.088376203E0,1.203625011E1,1.691144371E1,6.798335552E0
3.090378078E0,1.209371090E1,1.724663162E1,7.143100739E0
3.092379953E0,1.217511463E1,1.762491608E1,7.530961514E0
3.094381828E0,1.221342182E1,1.797447014E1,7.928399086E0
3.096383703E0,1.224694061E1,1.832881165E1,8.301894188E0
3.098385578E0,1.224694061E1,1.861611557E1,8.637083054E0
3.100387453E0,1.228524780E1,1.890820885E1,8.991424561E0
3.102389328E0,1.230918980E1,1.918114662E1,9.302670479E0
3.104391203E0,1.231876659E1,1.943493271E1,9.628282547E0
3.106393078E0,1.229961300E1,1.964562225E1,9.910798073E0
3.108394953E0,1.231876659E1,1.988504219E1,1.021246719E1
3.110396828E0,1.237143898E1,2.015319252E1,1.051892471E1
3.112398703E0,1.240974617E1,2.037824821E1,1.073440361E1
3.114400578E0,1.251987934E1,2.065597534E1,1.097861195E1
3.116402453E0,1.264916611E1,2.090497208E1,1.120366669E1
3.118404328E0,1.280718327E1,2.113002777E1,1.137126064E1
3.120406203E0,1.293168163E1,2.133592796E1,1.146224022E1
3.122408078E0,1.303702641E1,2.152746391E1,1.154843235E1
3.124409953E0,1.312800694E1,2.167111588E1,1.158195114E1
3.126411828E0,1.322856331E1,2.180998039E1,1.156279755E1
3.128413703E0,1.330996609E1,2.197278595E1,1.148618221E1
3.130415578E0,1.335785007E1,2.209728432E1,1.134253025E1
3.132417453E0,1.341531086E1,2.224093628E1,1.116535950E1
3.134419328E0,1.345361805E1,2.243247223E1,1.093072796E1
3.136421203E0,1.349192524E1,2.259527779E1,1.068173122E1
3.138423078E0,1.353980923E1,2.275808334E1,1.047104073E1
3.140424953E0,1.359727001E1,2.287300682E1,1.021725559E1
3.142426828E0,1.368346119E1,2.296877480E1,9.925163269E0
3.144428703E0,1.381274796E1,2.308848381E1,9.609128952E0
3.146430578E0,1.394682312E1,2.321298218E1,9.321824074E0
3.148432453E0,1.409047508E1,2.337100029E1,9.024943352E0
3.150434328E0,1.422933960E1,2.353859329E1,8.718485832E0
3.152436203E0,1.433468437E1,2.370618820E1,8.469488144E0
3.154438078E0,1.443045235E1,2.393603134E1,8.206126213E0
3.156439953E0,1.449270153E1,2.412277985E1,7.985859871E0
3.158441828E0,1.457410431E1,2.425685501E1,7.746439457E0
3.160443703E0,1.464114189E1,2.434304619E1,7.511807919E0
3.162445578E0,1.470339108E1,2.441008377E1,7.353790283E0
3.164447453E0,1.477042866E1,2.441008377E1,7.219715118E0
3.166449328E0,1.488056183E1,2.437656403E1,7.143100739E0
3.168451203E0,1.502421379E1,2.433346939E1,7.071274757E0
3.170453078E0,1.511998272E1,2.418502808E1,7.104793549E0
3.172454953E0,1.523969269E1,2.405095291E1,7.167042732E0
3.174456828E0,1.530194187E1,2.391209030E1,7.320271492E0
3.176458703E0,1.529715347E1,2.377322578E1,7.502231121E0
3.178460578E0,1.528278828E1,2.368224525E1,7.732074261E0
3.180462453E0,1.516786671E1,2.355774689E1,7.961917877E0
3.182464328E0,1.502900219E1,2.340451813E1,8.158242226E0
3.184466203E0,1.485661983E1,2.322734833E1,8.364143372E0
3.186468078E0,1.467944908E1,2.304538918E1,8.546102524E0
3.188469953E0,1.443045235E1,2.285385323E1,8.728062630E0
3.190471828E0,1.419582081E1,2.261922073E1,8.881291389E0
3.192473703E0,1.396597672E1,2.243726158E1,9.010578156E0
3.194475578E0,1.376007557E1,2.222657204E1,9.130288124E0
3.196477453E0,1.359248161E1,2.203503609E1,9.254786491E0
3.198479328E0,1.345840645E1,2.185786438E1,9.364919662E0
3.200481203E0,1.338658047E1,2.169026947E1,9.484629631E0
3.202483078E0,1.333869648E1,2.156098366E1,9.599552155E0
3.204484953E0,1.337700367E1,2.143169594E1,9.728838921E0
3.206486828E0,1.351586723E1,2.124015999E1,9.810241699E0
3.208488703E0,1.380317116E1,2.082835770E1,9.910798073E0
3.210490578E0,1.397555351E1,2.064639854E1,9.958682060E0
3.212492453E0,1.411920643E1,2.057936096E1,9.944316864E0
3.214494328E0,1.425806999E1,2.043570900E1,9.939528465E0
3.216496203E0,1.434904957E1,2.035909462E1,9.915586472E0
3.218498078E0,1.449270153E1,2.037345886E1,9.906009674E0
3.220499953E0,1.464593029E1,2.031121063E1,9.934740067E0
3.222501828E0,1.489971542E1,2.015319252E1,9.934740067E0
3.224503703E0,1.514392471E1,1.991377258E1,9.848548889E0
3.226505578E0,1.534024906E1,1.971744728E1,9.747992516E0
3.228507453E0,1.549347782E1,1.954506493E1,9.676166534E0
3.230509328E0,1.554136181E1,1.935352898E1,9.532513618E0
3.232511203E0,1.559882259E1,1.908059120E1,9.422380447E0
3.234513078E0,1.556051540E1,1.882201576E1,9.221267700E0
3.236514953E0,1.544080544E1,1.855865479E1,9.020154953E0
3.238516828E0,1.536897945E1,1.835275269E1,8.752004623E0
3.240518703E0,1.525405788E1,1.818037033E1,8.493430138E0
3.242520578E0,1.511998272E1,1.790743256E1,8.321047783E0
3.244522453E0,1.498590660E1,1.768237686E1,8.086416245E0
3.246524328E0,1.481352425E1,1.740464973E1,7.861361504E0
3.248526203E0,1.465071869E1,1.717480659E1,7.526173115E0
3.250528078E0,1.435862637E1,1.689707756E1,7.229291916E0
3.252529953E0,1.415751362E1,1.664808083E1,7.009025574E0
3.254531828E0,1.393245792E1,1.634162331E1,6.779181957E0
3.256533703E0,1.362600040E1,1.607826233E1,6.563704014E0
3.258535578E0,1.335785007E1,1.579574585E1,6.305130005E0
3.260537453E0,1.303702641E1,1.568082428E1,6.123170853E0
3.262539328E0,1.272578049E1,1.542703819E1,5.960365295E0
3.264541203E0,1.237143898E1,1.509185028E1,5.864596844E0
3.266543078E0,1.196442413E1,1.490031433E1,5.663484097E0
3.268544953E0,1.161487103E1,1.471356678E1,5.515043736E0
3.270546828E0,1.129883671E1,1.456991482E1,5.376179695E0
3.272548703E0,1.088703346E1,1.430655193E1,5.266046524E0
3.274550578E0,1.044171238E1,1.411022758E1,5.122394562E0
3.276552453E0,1.007300472E1,1.386123085E1,5.084087372E0
3.278554328E0,9.694721222E0,1.362181091E1,5.002684593E0
3.280556203E0,9.302072525E0,1.340154362E1,4.926070213E0
3.282558078E0,8.875904083E0,1.316212368E1,4.916493416E0
3.284559953E0,8.540716171E0,1.290355015E1,4.882974148E0
3.286561828E0,8.143278122E0,1.268807220E1,4.882974148E0
3.288563703E0,7.736264229E0,1.241513252E1,4.868608952E0
3.290565578E0,7.353191853E0,1.215177059E1,4.844666958E0
3.292567453E0,7.089829922E0,1.180221748E1,4.863820553E0
3.294569328E0,6.697180748E0,1.157716274E1,4.820724964E0
3.296571203E0,6.294954777E0,1.129464626E1,4.849455357E0
3.298573078E0,5.945401192E0,1.098818874E1,4.787206173E0
3.300574953E0,5.677250862E0,1.061469364E1,4.739322186E0
3.302576828E0,5.337274075E0,1.038006115E1,4.696226597E0
3.304578703E0,4.939836502E0,1.015979481E1,4.571728230E0
3.306580578E0,4.662109375E0,9.867702484E0,4.428076267E0
3.308582453E0,4.341286182E0,9.666589737E0,4.289212227E0
3.310584328E0,4.111443043E0,9.403226852E0,4.116829872E0
3.312586203E0,3.929483652E0,9.149441719E0,3.968389273E0
3.314588078E0,3.613448858E0,9.034520149E0,3.800795317E0
3.316589953E0,3.412335873E0,8.771158218E0,3.652354717E0
3.318591828E0,3.216011524E0,8.541314125E0,3.527856112E0
3.320593703E0,3.000533342E0,8.311470985E0,3.412934542E0
3.322595578E0,2.861669540E0,8.019378662E0,3.298012733E0
3.324597453E0,2.756324768E0,7.679401875E0,3.187879562E0
3.326599328E0,2.569576979E0,7.420828342E0,3.096899986E0
3.328601203E0,2.406771183E0,7.152677536E0,2.977189779E0
3.330603078E0,2.282272816E0,6.898892403E0,2.924517393E0
3.332604953E0,2.186504602E0,6.592434406E0,2.814383984E0
3.334606828E0,2.152985811E0,6.309918404E0,2.742558002E0
3.336608703E0,2.133832216E0,6.003460884E0,2.680308819E0
3.338610578E0,2.138620615E0,5.711368084E0,2.622848034E0
3.340612453E0,2.176927805E0,5.390544891E0,2.589329243E0
3.342614328E0,2.205658197E0,5.108029366E0,2.546233416E0
3.344616203E0,2.229600430E0,4.849455357E0,2.522291422E0
3.346618078E0,2.229600430E0,4.586093426E0,2.493561029E0
3.348619953E0,2.224812031E0,4.394556999E0,2.426523447E0
3.350621828E0,2.224812031E0,4.203021049E0,2.373851061E0
3.352623703E0,2.205658197E0,4.006696701E0,2.325966835E0
3.354625578E0,2.186504602E0,3.867832899E0,2.292448044E0
3.356627453E0,2.119467020E0,3.728969097E0,2.234987259E0
3.358629328E0,2.090736628E0,3.604470730E0,2.196680069E0
3.360631203E0,2.038064241E0,3.484760523E0,2.215833664E0
3.362633078E0,1.971026540E0,3.326743364E0,2.220622063E0
3.364634953E0,1.894412041E0,3.178302765E0,2.220622063E0
3.366636828E0,1.836951256E0,3.053804159E0,2.239775658E0
3.368638703E0,1.736394763E0,2.914940596E0,2.263717651E0
3.370640578E0,1.640626669E0,2.756923199E0,2.273294449E0
3.372642453E0,1.520916581E0,2.603694439E0,2.325966835E0
3.374644328E0,1.410783410E0,2.455253839E0,2.335543871E0
3.376646203E0,1.291073322E0,2.316390038E0,2.359485865E0
3.378648078E0,1.190516829E0,2.177526474E0,2.402581453E0
3.380649953E0,1.070806742E0,2.053027868E0,2.436100245E0
3.382651828E0,9.510966539E-1,1.909375906E0,2.483984232E0
3.384653703E0,8.218097091E-1,1.789665818E0,2.527079821E0
3.386655578E0,6.925228238E-1,1.674744129E0,2.598906040E0
3.388657453E0,5.584475398E-1,1.564610839E0,2.661155224E0
3.390659328E0,4.435258508E-1,1.464054346E0,2.732981205E0
3.392661203E0,3.094505668E-1,1.339555860E0,2.795230389E0
3.394663078E0,1.945288926E-1,1.258152962E0,2.862268209E0
3.396664953E0,5.087678507E-2,1.152808070E0,2.905363798E0
3.398666828E0,-5.925649032E-2,1.076193690E0,2.977189779E0
3.400668703E0,-1.789665818E-1,9.995791912E-1,2.986766577E0
3.402670578E0,-2.843114436E-1,9.229647517E-1,3.039438963E0
3.404672453E0,-3.944447339E-1,8.319851160E-1,3.058592558E0
3.406674328E0,-4.662707746E-1,7.697358727E-1,3.058592558E0
3.408676203E0,-5.572504401E-1,6.787561774E-1,3.072957993E0
3.410678078E0,-6.338648796E-1,6.165069342E-1,3.068169594E0
3.412679953E0,-7.344213724E-1,5.829881430E-1,3.058592558E0
3.414681828E0,-8.014590144E-1,5.111620426E-1,3.058592558E0
3.416683703E0,-8.589198589E-1,4.728548229E-1,3.034650564E0
3.418685578E0,-8.876502514E-1,4.441244006E-1,2.958036184E0
3.420687453E0,-9.498994946E-1,3.962403834E-1,2.910152197E0
3.422689328E0,-1.002571940E0,3.435679376E-1,2.814383984E0
3.424691203E0,-1.026513934E0,2.908954918E-1,2.723404408E0
3.426693078E0,-1.069609642E0,2.669534981E-1,2.579752445E0
3.428694953E0,-1.088763237E0,2.190694511E-1,2.464830637E0
3.430696828E0,-1.131858826E0,1.855506301E-1,2.354697466E0
3.432698703E0,-1.155800819E0,1.472434103E-1,2.206256866E0
3.434700578E0,-1.174954534E0,9.935937077E-2,2.072181463E0
3.436702453E0,-1.198896527E0,5.626374111E-2,1.947683096E0
3.438704328E0,-1.256357312E0,8.379706182E-3,1.832761407E0
3.440706203E0,-1.323395014E0,-3.471592441E-2,1.693897724E0
3.442708078E0,-1.395220995E0,-8.259996027E-2,1.578976035E0
3.444709953E0,-1.467047095E0,-1.352723986E-1,1.454477549E0
3.446711828E0,-1.538873196E0,-1.783680320E-1,1.353921056E0
3.448713703E0,-1.629852772E0,-2.023100406E-1,1.219845772E0
3.450715578E0,-1.716044068E0,-2.454056740E-1,1.109712481E0
3.452717453E0,-1.816600561E0,-2.741360962E-1,1.042674899E0
3.454719328E0,-1.921945453E0,-3.124433160E-1,9.756371975E-1
3.456721203E0,-2.022501945E0,-3.220201433E-1,8.942343593E-1
3.458723078E0,-2.161365509E0,-3.268085420E-1,8.319851160E-1
3.460725005E0,-2.257133722E0,-3.507505357E-1,7.841010690E-1
3.462726932E0,-2.391208887E0,-3.363853395E-1,7.026981711E-1
3.464728859E0,-2.496553898E0,-3.268085420E-1,6.260837317E-1
3.466730786E0,-2.621052265E0,-2.932897210E-1,5.590460896E-1
3.468732713E0,-2.721608877E0,-2.454056740E-1,4.920084476E-1
3.470734640E0,-2.803011656E0,-1.879448295E-1,4.345476031E-1
3.472736567E0,-2.879626036E0,-1.113303825E-1,3.914519846E-1
3.474738494E0,-2.884414434E0,6.105214357E-2,3.244143426E-1
3.476740421E0,-2.913144827E0,1.951274425E-1,3.435679376E-1
3.478742349E0,-2.970605850E0,3.148375154E-1,3.579331636E-1
3.480744276E0,-3.018489838E0,3.866635859E-1,3.770867586E-1
3.482746203E0,-3.056797028E0,5.111620426E-1,3.148375154E-1
3.484748130E0,-3.099892616E0,6.308721304E-1,2.525882721E-1
3.486750057E0,-3.128623009E0,7.553706169E-1,1.999158412E-1
3.488751984E0,-3.095104218E0,8.702923059E-1,1.089361757E-1
3.490753911E0,-3.071162224E0,9.660604000E-1,7.062894851E-2
3.492755838E0,-3.099892616E0,1.013944387E0,-1.077390742E-2
3.494757765E0,-3.099892616E0,1.057040095E0,-4.908113554E-2
3.496759692E0,-3.075950623E0,1.104924083E0,-1.017535701E-1
3.498761619E0,-3.090315819E0,1.114500880E0,-1.544260085E-1
3.500763546E0,-3.075950623E0,1.114500880E0,-1.927332431E-1
3.502765474E0,-3.066373825E0,1.128866076E0,-2.214636505E-1
3.504767401E0,-3.066373825E0,1.128866076E0,-2.501940727E-1
3.506769328E0,-3.047220230E0,1.138442874E0,-2.454056740E-1
3.508771255E0,-3.032855034E0,1.152808070E0,-2.166752517E-1
3.510773182E0,-3.042431831E0,1.157596469E0,-2.214636505E-1
3.512775057E0,-3.047220230E0,1.171961784E0,-1.975216419E-1
3.514776932E0,-3.052008629E0,1.205480576E0,-1.879448295E-1
3.516778807E0,-3.047220230E0,1.219845772E0,-1.975216419E-1
3.518780682E0,-3.037643433E0,1.262941360E0,-1.975216419E-1
3.520782557E0,-3.013701439E0,1.306037068E0,-1.592144072E-1
3.522784432E0,-3.013701439E0,1.325190663E0,-1.640028208E-1
3.524786307E0,-3.023278236E0,1.387439847E0,-1.687912196E-1
3.526788182E0,-2.984971046E0,1.430535555E0,-1.544260085E-1
3.528790057E0,-2.917933226E0,1.449689150E0,-1.879448295E-1
3.530791932E0,-2.850895643E0,1.478419542E0,-2.070984542E-1
3.532793807E0,-2.793434858E0,1.516726732E0,-2.023100406E-1
3.534795682E0,-2.726397276E0,1.531091928E0,-2.118868530E-1
3.536797557E0,-2.683301449E0,1.578976035E0,-2.166752517E-1
3.538799432E0,-2.616263866E0,1.602918029E0,-2.454056740E-1
3.540801307E0,-2.568379879E0,1.626860023E0,-2.549824715E-1
3.542803182E0,-2.477400303E0,1.665167332E0,-2.741360962E-1
3.544805057E0,-2.419939280E0,1.727416515E0,-2.549824715E-1
3.546806932E0,-2.338536501E0,1.775300503E0,-2.454056740E-1
3.548808807E0,-2.266710520E0,1.837549806E0,-2.454056740E-1
3.550810682E0,-2.180519104E0,1.880645394E0,-2.693476975E-1
3.552812557E0,-2.094327927E0,1.938106298E0,-2.358288616E-1
3.554814432E0,-2.017713547E0,1.995567083E0,-2.549824715E-1
3.556816307E0,-1.936310649E0,2.062604666E0,-2.645592988E-1
3.558818182E0,-1.850119352E0,2.129642487E0,-2.741360962E-1
3.560820057E0,-1.778293371E0,2.177526474E0,-2.980781198E-1
3.562821932E0,-1.677736878E0,2.225410461E0,-3.076549172E-1
3.564823807E0,-1.591545582E0,2.292448044E0,-3.363853395E-1
3.566825682E0,-1.524507880E0,2.340332270E0,-3.555389643E-1
3.568827557E0,-1.452681899E0,2.397793055E0,-4.082113802E-1
3.570829432E0,-1.380855799E0,2.445677042E0,-4.704606235E-1
3.572831307E0,-1.318606615E0,2.498349428E0,-5.231330991E-1
3.574833182E0,-1.241992116E0,2.570175409E0,-6.332663298E-1
3.576835057E0,-1.203684926E0,2.632424831E0,-7.146692276E-1
3.578836932E0,-1.179742932E0,2.699462414E0,-8.008604646E-1
3.580838807E0,-1.112705231E0,2.737769604E0,-8.487445116E-1
3.582840682E0,-1.079186440E0,2.814383984E0,-9.062053561E-1
3.584842557E0,-1.060032845E0,2.833537817E0,-9.109937549E-1
3.586844432E0,-1.040879130E0,2.890998602E0,-9.493009448E-1
3.588846307E0,-1.040879130E0,2.953247786E0,-9.397241473E-1
3.590848182E0,-1.055244446E0,3.010708570E0,-9.349357486E-1
3.592850057E0,-1.050456047E0,3.034650564E0,-8.774749041E-1
3.594851932E0,-1.060032845E0,3.053804159E0,-8.439561129E-1
3.596853807E0,-1.103128433E0,3.116053581E0,-7.960720658E-1
3.598855682E0,-1.141435623E0,3.178302765E0,-7.194576263E-1
3.600857557E0,-1.174954534E0,3.226186752E0,-6.715735793E-1
3.602859432E0,-1.227626920E0,3.288435936E0,-6.189011335E-1
3.604861307E0,-1.285087705E0,3.365050554E0,-5.470750928E-1
3.606863182E0,-1.332971811E0,3.451241732E0,-5.327098966E-1
3.608865057E0,-1.385644197E0,3.537432909E0,-4.896142483E-1
3.610866932E0,-1.414374709E0,3.614047527E0,-4.608838260E-1
3.612868807E0,-1.423951507E0,3.681085110E0,-4.225766063E-1
3.614870682E0,-1.433528304E0,3.772064686E0,-3.938461840E-1
3.616872557E0,-1.433528304E0,3.824737310E0,-3.507505357E-1
3.618874432E0,-1.452681899E0,3.886986494E0,-2.789244950E-1
3.620876307E0,-1.443105102E0,3.963600874E0,-2.597708702E-1
3.622878182E0,-1.443105102E0,4.035427094E0,-2.310404629E-1
3.624880057E0,-1.433528304E0,4.054580688E0,-1.879448295E-1
3.626881932E0,-1.443105102E0,4.083311081E0,-1.496376097E-1
3.628883807E0,-1.414374709E0,4.131195068E0,-5.386953801E-2
3.630885682E0,-1.390432596E0,4.131195068E0,-5.985504016E-3
3.632887557E0,-1.366490602E0,4.169502258E0,6.584054977E-2
3.634889432E0,-1.332971811E0,4.164713860E0,1.711854190E-1
3.636891307E0,-1.318606615E0,4.212597847E0,2.382230759E-1
3.638893182E0,-1.313818216E0,4.226963043E0,3.244143426E-1
3.640895057E0,-1.304241419E0,4.255693436E0,3.914519846E-1
3.642896932E0,-1.294664621E0,4.289212227E0,4.680664241E-1
3.644898807E0,-1.289876223E0,4.322731018E0,5.686228871E-1
3.646900682E0,-1.270722508E0,4.346673012E0,5.973533392E-1
3.648902557E0,-1.237203717E0,4.361038208E0,6.548141837E-1
3.650904432E0,-1.241992116E0,4.370615005E0,6.979097724E-1
3.652906307E0,-1.198896527E0,4.394556999E0,7.553706169E-1
3.654908182E0,-1.155800819E0,4.399345398E0,7.218518257E-1
3.656910057E0,-1.098340034E0,4.399345398E0,7.314286232E-1
3.658911932E0,-1.060032845E0,4.394556999E0,7.362170219E-1
3.660913807E0,-9.882067442E-1,4.380191803E0,7.266402245E-1
3.662915682E0,-9.355342984E-1,4.375403404E0,7.074866295E-1
3.664917557E0,-8.637082577E-1,4.356249809E0,6.643909812E-1
3.666919432E0,-8.014590144E-1,4.332307816E0,6.165069342E-1
3.668921307E0,-7.775170207E-1,4.313154221E0,5.351040959E-1
3.670923182E0,-7.392097712E-1,4.279635429E0,4.776432514E-1
3.672925057E0,-7.152677774E-1,4.274847031E0,4.058171809E-1
3.674926932E0,-7.487865686E-1,4.241328239E0,3.292027414E-1
3.676928807E0,-7.679402232E-1,4.226963043E0,2.334346622E-1
3.678930682E0,-8.206126094E-1,4.207809448E0,1.807622313E-1
3.680932557E0,-8.637082577E-1,4.174290657E0,9.457096457E-2
3.682934432E0,-9.115923047E-1,4.150348663E0,1.795651205E-2
3.684936307E0,-9.690531492E-1,4.135983467E0,-3.471592441E-2
3.686938182E0,-1.036090732E0,4.121618271E0,-1.161187813E-1
3.688940057E0,-1.079186440E0,4.097676277E0,-1.735796183E-1
3.690941932E0,-1.151012421E0,4.088099480E0,-2.262520641E-1
3.692943807E0,-1.218050122E0,4.083311081E0,-2.645592988E-1
3.694945682E0,-1.275510907E0,4.083311081E0,-3.459621370E-1
3.696947557E0,-1.328183413E0,4.054580688E0,-3.603273630E-1
3.698949432E0,-1.371279001E0,4.059369087E0,-4.034229815E-1
3.700951307E0,-1.433528304E0,4.045003891E0,-4.321534038E-1
3.702953182E0,-1.490989089E0,4.016273499E0,-4.225766063E-1
3.704955057E0,-1.558026791E0,3.992331266E0,-4.369418025E-1
3.706956932E0,-1.610699177E0,3.954024076E0,-4.034229815E-1
3.708958807E0,-1.687313676E0,3.934870481E0,-3.842693865E-1
3.710960682E0,-1.759139657E0,3.882198095E0,-3.890577853E-1
3.712962557E0,-1.830965757E0,3.853467703E0,-3.507505357E-1
3.714964432E0,-1.902791858E0,3.810372114E0,-3.268085420E-1
3.716966307E0,-1.969829440E0,3.743334293E0,-2.932897210E-1
3.718968182E0,-2.046443939E0,3.714603901E0,-2.501940727E-1
3.720970057E0,-2.099116325E0,3.642777920E0,-2.214636505E-1
3.722971932E0,-2.156577110E0,3.585317135E0,-2.023100406E-1
3.724973807E0,-2.209249735E0,3.527856112E0,-1.496376097E-1
3.726975682E0,-2.242768526E0,3.465606928E0,-1.209071875E-1
3.728977557E0,-2.285864115E0,3.360262156E0,-6.823474914E-2
3.730979432E0,-2.348113298E0,3.312378168E0,-2.513911761E-2
3.732981307E0,-2.391208887E0,3.235763550E0,1.795651205E-2
3.734983182E0,-2.439092875E0,3.173514366E0,7.541735470E-2
3.736985057E0,-2.477400303E0,3.101688385E0,1.280897856E-1
3.738986932E0,-2.544437885E0,3.049015760E0,1.999158412E-1
3.740988807E0,-2.611475468E0,3.001131773E0,2.621650994E-1
3.742990682E0,-2.644994259E0,2.972401381E0,3.004723191E-1
3.744992557E0,-2.692878246E0,2.943670988E0,4.201824069E-1
3.746994432E0,-2.731185675E0,2.905363798E0,4.728548229E-1
3.748996307E0,-2.735974073E0,2.910152197E0,5.351040959E-1
3.750998182E0,-2.721608877E0,2.895787001E0,6.069301367E-1
3.753000057E0,-2.692878246E0,2.890998602E0,7.074866295E-1
3.755001932E0,-2.640205860E0,2.871845007E0,8.032546639E-1
3.757003807E0,-2.587533474E0,2.881421804E0,8.655039072E-1
3.759005682E0,-2.510919094E0,2.881421804E0,9.277531505E-1
3.761007557E0,-2.448669672E0,2.895787001E0,9.852139950E-1
3.763009432E0,-2.386420488E0,2.890998602E0,1.047463298E0
3.765011307E0,-2.328959703E0,2.900575399E0,1.047463298E0
3.767013182E0,-2.305017710E0,2.890998602E0,1.085770488E0
3.769015057E0,-2.261922121E0,2.895787001E0,1.071405292E0
3.771016932E0,-2.218826532E0,2.890998602E0,1.047463298E0
3.773018807E0,-2.156577110E0,2.867056608E0,1.028309584E0
3.775020682E0,-2.094327927E0,2.838326216E0,9.995791912E-1
3.777022557E0,-2.012925148E0,2.814383984E0,9.947907925E-1
3.779024432E0,-1.888426542E0,2.795230389E0,9.516952038E-1
3.781026307E0,-1.778293371E0,2.771288395E0,9.085995555E-1
3.783028182E0,-1.668160081E0,2.766499996E0,8.559271097E-1
3.785030057E0,-1.510142684E0,2.785653591E0,8.271966577E-1
3.787031932E0,-1.395220995E0,2.833537817E0,7.841010690E-1
3.789033807E0,-1.275510907E0,2.857479811E0,7.314286232E-1
3.791035682E0,-1.203684926E0,2.895787001E0,6.931213737E-1
3.793037557E0,-1.112705231E0,2.938882589E0,6.596025825E-1
3.795039432E0,-1.040879130E0,3.010708570E0,6.500257850E-1
3.797041307E0,-9.690531492E-1,3.077746391E0,6.117185354E-1
3.799043182E0,-8.876502514E-1,3.149572372E0,5.542576909E-1
3.801045057E0,-8.589198589E-1,3.245340347E0,4.728548229E-1
3.803046932E0,-8.110358119E-1,3.360262156E0,3.866635859E-1
3.805048807E0,-7.583633661E-1,3.479972124E0,2.861070931E-1
3.807050682E0,-7.152677774E-1,3.671508312E0,1.711854190E-1
3.809052557E0,-6.338648796E-1,3.848679304E0,7.062894851E-2
3.811054432E0,-5.476736426E-1,4.021061897E0,-1.556231081E-2
3.813056307E0,-3.944447339E-1,4.198232651E0,-1.448491961E-1
3.815058182E0,-2.220622003E-1,4.389768600E0,-2.118868530E-1
3.817060057E0,-3.531447425E-2,4.552574635E0,-2.741360962E-1
3.819061932E0,1.945288926E-1,4.744110584E0,-3.363853395E-1
3.821063807E0,4.339490533E-1,4.921281815E0,-3.794809580E-1
3.823065682E0,7.020996213E-1,5.098452568E0,-4.034229815E-1
3.825067557E0,9.175778031E-1,5.251681328E0,-4.129997790E-1
3.827069432E0,1.137844324E0,5.428852558E0,-4.417302012E-1
3.829071307E0,1.348534107E0,5.606023312E0,-4.129997790E-1
3.831073182E0,1.520916581E0,5.759252071E0,-4.177882075E-1
3.833075057E0,1.702875972E0,5.936423302E0,-3.938461840E-1
3.835076932E0,1.865681648E0,6.123170853E0,-3.651157618E-1
3.837078807E0,2.028487444E0,6.324283600E0,-3.076549172E-1
3.839080682E0,2.205658197E0,6.501454830E0,-2.693476975E-1
3.841082557E0,2.354098797E0,6.692990780E0,-2.166752517E-1
3.843084432E0,2.526481390E0,6.870162010E0,-1.256955862E-1
3.845086307E0,2.698863983E0,7.047332764E0,-6.344634295E-2
3.847088182E0,2.852092743E0,7.176619530E0,3.711012751E-2
3.849090057E0,2.938283920E0,7.349001884E0,8.020575345E-2
3.851091932E0,2.995744944E0,7.507019520E0,1.280897856E-1
3.853093807E0,2.990956545E0,7.617152691E0,1.185129806E-1
3.855095682E0,2.938283920E0,7.722497463E0,1.472434103E-1
3.857097557E0,2.876034737E0,7.837419033E0,1.663970202E-1
3.859099432E0,2.780266762E0,7.961917877E0,1.711854190E-1
3.861101307E0,2.708440781E0,8.110358238E0,1.759738177E-1
3.863103182E0,2.655768156E0,8.254010201E0,1.759738177E-1
3.865105057E0,2.574365377E0,8.378508568E0,2.190694511E-1
3.867106932E0,2.569576979E0,8.498218536E0,2.621650994E-1
3.869108807E0,2.588730574E0,8.617929459E0,2.861070931E-1
3.871110682E0,2.593518972E0,8.713697433E0,3.435679376E-1
3.873112557E0,2.665344954E0,8.823830605E0,3.866635859E-1
3.875114432E0,2.746747971E0,8.933963776E0,4.153940082E-1
3.877116307E0,2.837727547E0,9.034520149E0,4.872200489E-1
3.879118182E0,2.943072557E0,9.120711327E0,5.015852451E-1
3.881120057E0,3.081936121E0,9.216479301E0,5.686228871E-1
3.883121932E0,3.239953518E0,9.283516884E0,6.069301367E-1
3.885123807E0,3.407547474E0,9.379284859E0,6.787561774E-1
3.887125682E0,3.575141668E0,9.460687637E0,7.170634270E-1
3.889127557E0,3.718793869E0,9.575610161E0,7.888894677E-1
3.891129432E0,3.800196648E0,9.704896927E0,8.702923059E-1
3.893131307E0,3.881599426E0,9.858125687E0,9.373299479E-1
3.895133182E0,3.939060450E0,1.001614285E1,1.018732786E0
3.897135057E0,3.986944437E0,1.023162079E1,1.133654475E0
3.899136932E0,4.207211018E0,1.035611916E1,1.243787766E0
3.901138807E0,4.432265759E0,1.052371311E1,1.392228246E0
3.903140682E0,4.528033733E0,1.087326717E1,1.531091928E0
3.905142557E0,4.619013786E0,1.119887829E1,1.578976035E0
3.907144432E0,4.657320976E0,1.156758595E1,1.622071624E0
3.909146307E0,4.724358559E0,1.189798546E1,1.588552833E0
3.911148182E0,4.781819344E0,1.221401978E1,1.526303530E0
3.913150057E0,4.887164116E0,1.248217010E1,1.420958757E0
3.915151932E0,4.997297287E0,1.269764900E1,1.282094955E0
3.917153807E0,5.155314922E0,1.283172417E1,1.171961784E0
3.919155682E0,5.342062473E0,1.291791534E1,1.042674899E0
3.921157557E0,5.528810501E0,1.299931812E1,9.325415492E-1
3.923159432E0,5.720346451E0,1.309029770E1,8.080430627E-1
3.925161307E0,5.921459198E0,1.311423969E1,6.787561774E-1
3.927163182E0,6.127360821E0,1.312381649E1,5.829881430E-1
3.929165057E0,6.338050365E0,1.309508610E1,4.728548229E-1
3.931166932E0,6.472125530E0,1.303283691E1,3.914519846E-1
3.933168807E0,6.582259178E0,1.294185734E1,3.339911401E-1
3.935170682E0,6.606201172E0,1.284608936E1,3.579331636E-1
3.937172557E0,6.572682381E0,1.280299377E1,3.770867586E-1
3.939174432E0,6.505644798E0,1.275510979E1,4.537012279E-1
3.941176307E0,6.390722752E0,1.280778217E1,5.734112859E-1
3.943178182E0,6.275801182E0,1.287003136E1,7.601590157E-1
3.945180057E0,6.146514416E0,1.298495293E1,1.023521185E0
3.947181932E0,6.103418827E0,1.312860489E1,1.277306557E0
3.949183807E0,6.089053631E0,1.328662205E1,1.612494826E0
3.951185682E0,6.098630428E0,1.343027401E1,1.971625090E0
3.953187557E0,6.136937618E0,1.359786892E1,2.364274263E0
3.955189432E0,6.189610004E0,1.370321369E1,2.756923199E0
3.957191307E0,6.251859188E0,1.383250046E1,3.163937569E0
3.959193182E0,6.314108372E0,1.395699883E1,3.527856112E0
3.961195057E0,6.371569157E0,1.407670879E1,3.896563292E0
3.963196932E0,6.448183537E0,1.422514915E1,4.241328239E0
3.965198807E0,6.534375191E0,1.434485912E1,4.566939831E0
3.967200682E0,6.639719963E0,1.446935844E1,4.916493416E0
3.969202557E0,6.745064735E0,1.458428001E1,5.227739334E0
3.971204432E0,6.869563103E0,1.469441319E1,5.572504520E0
3.973206307E0,7.027580738E0,1.479496956E1,5.883750439E0
3.975208182E0,7.161655903E0,1.488594913E1,6.166266441E0
3.977210057E0,7.300519466E0,1.498171711E1,6.506243229E0
3.979211932E0,7.439383030E0,1.507748508E1,6.769605160E0
3.981213807E0,7.554305077E0,1.517804146E1,7.047332764E0
3.983215682E0,7.654861450E0,1.524986744E1,7.320271492E0
3.985217557E0,7.769783020E0,1.532648182E1,7.569268703E0
3.987219432E0,7.865550995E0,1.541746140E1,7.789535046E0
3.989221307E0,7.966107368E0,1.554196072E1,8.014590263E0
3.991223182E0,8.095394135E0,1.565209389E1,8.230068207E0
3.993225057E0,8.239047050E0,1.577180386E1,8.426392555E0
3.995226932E0,8.382699013E0,1.587236023E1,8.622717857E0
3.997228807E0,8.559869766E0,1.593939781E1,8.775946617E0
3.999230682E0,8.732252121E0,1.600164795E1,8.914810181E0
4.001232557E0,8.909422874E0,1.601601219E1,9.005789757E0
4.003234432E0,9.110535622E0,1.603995514E1,9.048885345E0
4.005236307E0,9.292495728E0,1.598728180E1,9.068038940E0
4.007238182E0,9.426570892E0,1.595855141E1,9.072827339E0
4.009240057E0,9.512762070E0,1.589151382E1,9.029731750E0
4.011241932E0,9.598953247E0,1.577659225E1,8.938752174E0
4.013243807E0,9.603741646E0,1.564730549E1,8.809465408E0
4.015245682E0,9.598953247E0,1.553717232E1,8.661025047E0
4.017247557E0,9.546280861E0,1.543661499E1,8.541314125E0
4.019249432E0,9.455301285E0,1.537915421E1,8.421604156E0
4.021251307E0,9.369110107E0,1.534563541E1,8.306682587E0
4.023253182E0,9.278130531E0,1.534563541E1,8.196549416E0
4.025255057E0,9.235034943E0,1.543182659E1,8.119935036E0
4.027256932E0,9.144054413E0,1.553238392E1,8.043320656E0
4.029258807E0,9.100958824E0,1.566167068E1,8.033743858E0
4.031260682E0,9.053074837E0,1.580532265E1,7.985859871E0
4.033262557E0,8.990825653E0,1.592503262E1,7.947552681E0
4.035264432E0,8.904634476E0,1.598728180E1,7.870938301E0
4.037266307E0,8.799289703E0,1.600643539E1,7.808688641E0
4.039268182E0,8.674791336E0,1.603995514E1,7.741651058E0
4.041270057E0,8.535927773E0,1.606389618E1,7.674613476E0
4.043271932E0,8.464101791E0,1.600643539E1,7.597999096E0
4.045273807E0,8.349180222E0,1.591545582E1,7.507019520E0
4.047275682E0,8.267777443E0,1.579574585E1,7.396886349E0
4.049277557E0,8.219893456E0,1.551323032E1,7.066486359E0
4.051279432E0,8.248623848E0,1.519240665E1,6.621164799E0
4.053281307E0,8.047510147E0,1.522592545E1,6.769605160E0
4.055283182E0,7.803301811E0,1.524507904E1,6.874950409E0
4.057285057E0,7.549516678E0,1.534084702E1,6.913257599E0
4.059286932E0,7.324461460E0,1.543661499E1,6.970718384E0
4.061288807E0,7.104195118E0,1.562815189E1,6.994660378E0
4.063290682E0,6.927023888E0,1.583884144E1,6.989871979E0
4.065292557E0,6.764218330E0,1.607826233E1,6.999448776E0
4.067294432E0,6.620566368E0,1.633683586E1,6.970718384E0
4.069296307E0,6.481702328E0,1.660498619E1,6.970718384E0
4.071298182E0,6.328473568E0,1.688271332E1,6.903680801E0
4.073300057E0,6.275801182E0,1.708382607E1,6.783970356E0
4.075301932E0,6.290166378E0,1.730409241E1,6.645106792E0
4.077303807E0,6.395511150E0,1.754830170E1,6.558915615E0
4.079305682E0,6.596624374E0,1.774462509E1,6.420052052E0
4.081307557E0,6.903081894E0,1.794573975E1,6.262034416E0
4.083309432E0,7.314884663E0,1.810375595E1,6.075286865E0
4.085311307E0,7.798513412E0,1.822346687E1,5.917269707E0
4.087313182E0,8.373122215E0,1.841021347E1,5.807136059E0
4.089315057E0,9.067440033E0,1.870709419E1,5.783194065E0
4.091316932E0,9.756970406E0,1.901355362E1,5.783194065E0
4.093318807E0,1.032679081E1,1.915720558E1,5.768828869E0
4.095320682E0,1.084393787E1,1.909495544E1,5.754463673E0
4.097322557E0,1.128925991E1,1.894651604E1,5.744886875E0
4.099324432E0,1.167233181E1,1.878370857E1,5.749675274E0
4.101326307E0,1.199794292E1,1.868315315E1,5.792770863E0
4.103328182E0,1.231876659E1,1.861132622E1,5.787982464E0
4.105330057E0,1.263001251E1,1.863047981E1,5.778405666E0
4.107331932E0,1.289816284E1,1.872146034E1,5.697002888E0
4.109333807E0,1.317589092E1,1.885553551E1,5.668272495E0
4.111335682E0,1.344404125E1,1.906143761E1,5.649118900E0
4.113337557E0,1.373613358E1,1.929128075E1,5.606023312E0
4.115339432E0,1.405216789E1,1.950197029E1,5.586869717E0
4.117341307E0,1.442566395E1,1.973181343E1,5.606023312E0
4.119343182E0,1.478000546E1,1.996644592E1,5.572504520E0
4.121345057E0,1.515828991E1,2.016276932E1,5.586869717E0
4.123346932E0,1.549347782E1,2.033994102E1,5.582081318E0
4.125348807E0,1.572810936E1,2.045007324E1,5.558139324E0
4.127350682E0,1.593879890E1,2.052668762E1,5.515043736E0
4.129352557E0,1.606329727E1,2.058414841E1,5.448006153E0
4.131354432E0,1.608245087E1,2.061287880E1,5.395333767E0
4.133356307E0,1.604893303E1,2.067033958E1,5.361814499E0
4.135358182E0,1.594837570E1,2.071822357E1,5.275623322E0
4.137360057E0,1.579514694E1,2.078526115E1,5.285200119E0
4.139361932E0,1.558445740E1,2.089060783E1,5.304353714E0
4.141363807E0,1.538813305E1,2.102468300E1,5.361814499E0
4.143365682E0,1.520617390E1,2.115875816E1,5.400122166E0
4.145367557E0,1.504336739E1,2.127846718E1,5.538985729E0
4.147369432E0,1.489013863E1,2.138381195E1,5.601234913E0
4.149371307E0,1.475127506E1,2.148436928E1,5.701791286E0
4.151373182E0,1.463156509E1,2.159450150E1,5.821501255E0
4.153375057E0,1.451664352E1,2.169505882E1,5.946000099E0
4.155376932E0,1.440172195E1,2.176688385E1,6.118382454E0
4.157378807E0,1.434904957E1,2.180040359E1,6.338648796E0
4.159380682E0,1.430595398E1,2.184828758E1,6.544550419E0
4.161382557E0,1.432510757E1,2.186265373E1,6.769605160E0
4.163384432E0,1.441129875E1,2.185786438E1,6.980295181E0
4.165386307E0,1.450227833E1,2.189138412E1,7.205349922E0
4.167388182E0,1.466987228E1,2.189138412E1,7.444770336E0
4.169390057E0,1.480394745E1,2.190574837E1,7.660248280E0
4.171391932E0,1.497632980E1,2.191532516E1,7.904457092E0
4.173393807E0,1.515350151E1,2.191053772E1,8.167819023E0
4.175395682E0,1.530673027E1,2.188180733E1,8.421604156E0
4.177397557E0,1.545517063E1,2.184350014E1,8.704120636E0
4.179399432E0,1.559882259E1,2.179082680E1,9.005789757E0
4.181401307E0,1.573289776E1,2.172857666E1,9.302670479E0
4.183403182E0,1.590528011E1,2.162323189E1,9.570821762E0
4.185405057E0,1.604893303E1,2.150831032E1,9.877279282E0
4.187406932E0,1.621652603E1,2.137902451E1,1.012148762E1
4.189408807E0,1.636017799E1,2.118269920E1,1.035611916E1
4.191410682E0,1.648467636E1,2.100074005E1,1.060990524E1
4.193412557E0,1.660917664E1,2.079962730E1,1.080144119E1
4.195414432E0,1.668579102E1,2.057457161E1,1.100255394E1
4.197416307E0,1.672888565E1,2.034951782E1,1.116535950E1
4.199418182E0,1.678155899E1,2.006221390E1,1.129464626E1
4.201420057E0,1.684859657E1,1.974617767E1,1.137604904E1
4.203421932E0,1.690605736E1,1.932001114E1,1.133774185E1
4.205423807E0,1.695872879E1,1.894651604E1,1.133295345E1
4.207425682E0,1.689648056E1,1.872624779E1,1.158673954E1
4.209427557E0,1.673846245E1,1.849161720E1,1.178306389E1
4.211429432E0,1.661875343E1,1.823783112E1,1.192671585E1
