"Time (s)","Linear Acceleration x (m/s^2)","Linear Acceleration y (m/s^2)","Linear Acceleration z (m/s^2)","Absolute acceleration (m/s^2)"
1.697252980E-1,8.219045639E0,-2.988254070E0,-2.459485531E-1,8.748877888E0
1.890429240E-1,8.507596970E0,-3.094851971E0,1.808488369E-1,9.054834135E0
2.084215870E-1,8.947640419E0,-3.294355392E0,5.570127964E-1,9.551089455E0
2.278002490E-1,9.940866470E0,-3.076566219E0,7.705945969E-1,1.043455327E1
2.471483930E-1,1.273068142E1,-5.269551277E-1,5.871253014E-1,1.275510279E1
2.665575730E-1,1.828217697E1,6.348411560E0,-3.545527458E-1,1.935629179E1
2.859057170E-1,2.321995544E1,1.345316124E1,-1.085944176E0,2.685764608E1
3.052843800E-1,2.801912498E1,2.042259979E1,-1.881066561E0,3.472308106E1
3.246630420E-1,3.037300110E1,2.190497017E1,-2.882811546E0,3.755872091E1
3.440111860E-1,3.054563522E1,1.755390167E1,-2.972536564E0,3.535549842E1
3.633898480E-1,3.082517052E1,1.427606583E1,-3.432142496E0,3.414347368E1
3.827379930E-1,2.898103714E1,1.132064629E1,-2.734929562E0,3.123359387E1
4.021471730E-1,2.453205872E1,4.643208981E0,-7.945196629E-1,2.498024331E1
4.214953170E-1,1.891854477E1,-2.013053417E0,-5.403956771E-1,1.903301731E1
4.408434620E-1,1.532641029E1,-5.509496212E0,-4.060170650E-1,1.629166200E1
4.602221240E-1,1.300474644E1,-6.951015949E0,-6.809582114E-1,1.476156349E1
4.795702680E-1,1.160946369E1,-7.920555115E0,-1.331356168E0,1.411691715E1
4.989489300E-1,1.074048996E1,-8.332300186E0,-1.581114769E0,1.368522104E1
5.183275920E-1,1.009887028E1,-8.156439781E0,-1.460155487E0,1.306318280E1
5.376757370E-1,9.893581390E0,-7.661176682E0,-1.362839818E0,1.258705340E1
5.570849170E-1,9.920214653E0,-6.897428513E0,-1.555046797E0,1.218209134E1
5.764635790E-1,9.935839653E0,-6.196959496E0,-2.058313131E0,1.188948567E1
5.958117230E-1,1.021642780E1,-5.426009655E0,-2.387396336E0,1.181171618E1
6.151903850E-1,1.090740871E1,-5.189093113E0,-2.052302837E0,1.225194675E1
6.345690480E-1,1.157121372E1,-5.088751316E0,-1.538784504E0,1.273405806E1
6.539171920E-1,1.211192417E1,-5.049674034E0,-1.193669677E0,1.317659904E1
6.732958540E-1,1.311785221E1,-4.143018723E0,-1.161758423E0,1.380551822E1
6.926439990E-1,1.580004215E1,-1.183893442E0,-2.049866915E0,1.597638539E1
7.120226610E-1,2.571302032E1,1.022552490E1,-3.179535151E0,2.785372897E1
7.313708050E-1,3.419234467E1,1.990692902E1,-5.358152390E0,3.992633283E1
7.507494670E-1,3.883487701E1,2.162008095E1,-5.863415718E0,4.483252410E1
7.701281300E-1,4.228089523E1,2.366927338E1,-2.186254978E0,4.850451850E1
7.894762740E-1,4.053256989E1,2.275800896E1,1.035008907E0,4.649610131E1
8.088549360E-1,3.379737473E1,1.753215790E1,1.561906576E0,3.810614978E1
8.282335980E-1,2.482613373E1,1.163694859E1,2.312252045E0,2.751548651E1
8.476122600E-1,1.589866543E1,4.493309975E0,3.633063316E0,1.691616227E1
8.669909230E-1,9.778445244E0,-1.184189320E0,3.637610674E0,1.050011939E1
8.863390670E-1,6.532304764E0,-4.769773483E0,3.231934071E0,8.710174651E0
9.057177290E-1,5.686787605E0,-6.190799236E0,2.979737759E0,8.918765921E0
9.250658740E-1,6.117109299E0,-5.967308044E0,3.164264679E0,9.112648486E0
9.444445360E-1,5.631014824E0,-5.310193539E0,4.623678684E0,9.015813216E0
9.638231980E-1,5.193560600E0,-5.975884438E0,5.379922867E0,9.572243027E0
9.831713420E-1,5.136762619E0,-6.099449158E0,4.231991768E0,9.027699849E0
1.002550005E0,4.953402042E0,-6.514611721E0,3.423761368E0,8.871217480E0
1.021898149E0,5.199719429E0,-7.274517536E0,2.009362221E0,9.164781725E0
1.041276811E0,5.973361492E0,-6.195077419E0,1.940806031E0,8.821947619E0
1.060655473E0,6.581183434E0,-5.642063141E0,1.598841786E0,8.814825405E0
1.080003618E0,6.984763622E0,-5.293731689E0,1.214454174E0,8.847904667E0
1.099412798E0,7.375007153E0,-4.965707779E0,8.811354637E-1,8.934505244E0
1.118760942E0,7.596090317E0,-4.930606365E0,4.355795383E-1,9.066487565E0
1.138139604E0,7.671396255E0,-4.795788288E0,3.289451599E-1,9.053071895E0
1.157518266E0,7.776802063E0,-4.323703289E0,4.082750082E-1,8.907286284E0
1.176866411E0,8.469028473E0,-3.204860687E0,2.933566570E-1,9.059891469E0
1.196245073E0,1.093528366E1,-1.272969246E-1,3.761537075E-1,1.094249171E1
1.215623735E0,1.521079826E1,5.344331264E0,4.815973043E-1,1.612954421E1
1.234971880E0,2.337700653E1,1.286053848E1,-1.327126026E-1,2.668136985E1
1.254350542E0,2.877395821E1,1.573756981E1,-2.237774372E0,3.287277610E1
1.273698686E0,3.350930786E1,1.282153511E1,-2.861359119E0,3.599239992E1
1.293077348E0,3.863940811E1,1.174853897E1,3.472495079E-2,4.038605246E1
1.312456010E0,3.831888962E1,9.058912277E0,1.504621506E0,3.940387137E1
1.331834673E0,3.125799370E1,2.974672794E0,5.416256189E-1,3.140388840E1
1.351182817E0,2.389980698E1,-2.590447426E0,-2.339479923E-1,2.404092184E1
1.370530962E0,1.854817581E1,-6.199528694E0,-3.916440010E-1,1.956073534E1
1.389909624E0,1.453678894E1,-8.239279747E0,-1.228827477E0,1.675452119E1
1.409318803E0,1.234411812E1,-9.709210396E0,-1.715374351E0,1.579837105E1
1.428666948E0,1.149597454E1,-1.009110069E1,-1.411371708E0,1.536163123E1
1.448045610E0,1.097811031E1,-9.862739563E0,-7.689227462E-1,1.477781377E1
1.467393755E0,1.073767853E1,-9.501201630E0,-3.475649953E-1,1.434194457E1
1.486772417E0,1.052882099E1,-9.045665741E0,-2.607319951E-1,1.388337572E1
1.506151079E0,1.057064152E1,-8.338260651E0,-4.685233235E-1,1.347162080E1
1.525499223E0,1.076573563E1,-7.372757912E0,-8.394102454E-1,1.307529091E1
1.544877885E0,1.105096531E1,-6.435444832E0,-1.291809320E0,1.285330914E1
1.564256548E0,1.139519215E1,-5.704840183E0,-1.525954843E0,1.283449040E1
1.583604692E0,1.218905830E1,-5.035893440E0,-1.586691976E0,1.328348435E1
1.602983354E0,1.340813446E1,-4.295766830E0,-1.735140562E0,1.418599292E1
1.622331499E0,1.639633560E1,-2.327344418E0,-2.126171827E0,1.669661522E1
1.641710161E0,2.265920639E1,2.986688614E0,-2.586425304E0,2.300107691E1
1.661058305E0,3.139087486E1,1.344155788E1,-3.147829056E0,3.429243839E1
1.680436967E0,3.631660080E1,1.981202507E1,-3.139064789E0,4.148813757E1
1.699846147E0,3.978506851E1,2.217859650E1,-1.296477556E0,4.556778109E1
1.719194292E0,4.070881271E1,2.259642220E1,8.599009514E-1,4.656764068E1
1.738572954E0,3.696243286E1,1.916349602E1,1.521190763E0,4.166263367E1
1.757921098E0,2.985358047E1,1.314455986E1,1.301056862E0,3.264519061E1
1.777299760E0,2.176824188E1,6.228920937E0,1.300834417E0,2.267924119E1
1.796678423E0,1.416445446E1,-8.261628151E-1,1.667530775E0,1.428618123E1
1.816026567E0,9.353799820E0,-5.230128765E0,1.975089908E0,1.089719221E1
1.835405229E0,7.103790283E0,-5.831799984E0,2.803850651E0,9.609126178E0
1.854783891E0,5.833714962E0,-5.536456585E0,3.916572571E0,8.945620296E0
1.874132036E0,4.837672234E0,-5.616431713E0,4.487377167E0,8.665098480E0
1.893510698E0,4.447960377E0,-5.932584286E0,4.619966507E0,8.736360704E0
1.912858842E0,5.379848957E0,-6.088557243E0,4.205738068E0,9.148854398E0
1.932237505E0,6.560178757E0,-6.630393982E0,4.119269371E0,1.019639396E1
1.951616167E0,6.743140221E0,-5.909928322E0,3.618142605E0,9.668926968E0
1.970964311E0,6.976310253E0,-5.725296974E0,2.694473505E0,9.418498695E0
1.990373491E0,7.262941360E0,-5.435788155E0,1.913004637E0,9.271337380E0
2.009721635E0,7.399830818E0,-5.077112198E0,1.259483576E0,9.062056239E0
2.029100298E0,7.247094154E0,-4.859250546E0,1.139362216E0,8.799479292E0
2.048478960E0,6.866765976E0,-4.912590981E0,9.413471222E-1,8.495419914E0
2.067827104E0,6.318182468E0,-5.353140354E0,7.018086910E-1,8.310720594E0
2.087205766E0,5.906224251E0,-5.649402142E0,6.261122227E-1,8.197026654E0
2.106553911E0,5.746673107E0,-5.504880428E0,6.338679790E-1,7.983091440E0
2.125932573E0,6.490721226E0,-4.525179863E0,4.851220846E-1,7.927298295E0
2.145311235E0,9.560626984E0,-1.093439102E0,3.068367243E-1,9.627842238E0
2.164659380E0,1.503729820E1,5.230055809E0,2.385195494E-1,1.592264779E1
2.184038042E0,2.059690857E1,7.712855339E0,3.058120012E-1,2.199577916E1
2.203386186E0,2.982133484E1,1.531061077E1,-3.860690594E-1,3.352425783E1
2.222764848E0,3.804989624E1,2.070001411E1,-5.924272537E-2,4.331614824E1
2.242143510E0,4.022213364E1,1.609814835E1,1.275567770E0,4.334279049E1
2.261522173E0,3.832769775E1,1.069122791E1,1.534962416E0,3.982048316E1
2.280900835E0,3.169548798E1,2.946566582E0,5.475993156E-1,3.183686664E1
2.300248979E0,2.331726074E1,-4.076346874E0,1.708865166E-2,2.367090079E1
2.319627641E0,1.695409393E1,-7.943583488E0,-1.080701232E0,1.875392585E1
2.339006303E0,1.313207054E1,-1.053512573E1,-1.484245777E0,1.690098034E1
2.358354448E0,1.116538715E1,-1.126370716E1,-1.214678407E0,1.590636391E1
2.377733110E0,1.011978912E1,-1.059474373E1,-5.924547911E-1,1.466321006E1
2.397081255E0,9.585371017E0,-9.514320374E0,3.018404841E-1,1.350898728E1
2.416459917E0,9.164714813E0,-8.772855759E0,5.724186897E-1,1.269971098E1
2.435838579E0,8.786694527E0,-8.402619362E0,6.442669630E-1,1.217477280E1
2.455186723E0,8.415740013E0,-7.997138977E0,4.635093808E-1,1.161868120E1
2.474565385E0,8.445601463E0,-7.397262096E0,3.415430188E-1,1.123228927E1
2.493944048E0,8.575047493E0,-6.711313248E0,1.799777746E-1,1.089061784E1
2.513292192E0,8.775717735E0,-6.036253452E0,2.105861902E-1,1.065335271E1
2.532670854E0,9.320291519E0,-5.342744827E0,1.140168905E-1,1.074363794E1
2.552049516E0,1.136260796E1,-3.594475746E0,-3.132164478E-2,1.191763804E1
2.571428178E0,1.782378578E1,1.589525223E0,-1.373791695E-2,1.789452762E1
2.590806840E0,2.776937294E1,1.014867210E1,5.383299589E-1,2.957065130E1
2.610154985E0,3.310671234E1,1.675623703E1,1.815423965E-1,3.710604855E1
2.629533647E0,3.468444061E1,1.652205086E1,5.063545704E-1,3.842193358E1
2.648881792E0,3.675789261E1,1.618675232E1,9.623305798E-1,4.017561076E1
2.668260454E0,3.687338638E1,1.414880562E1,8.751435280E-1,3.950444532E1
2.687639116E0,3.460042191E1,1.127908707E1,8.483960629E-1,3.640229082E1
2.706987260E0,2.906330299E1,6.445049286E0,2.191567659E0,2.984991139E1
2.726365923E0,2.172961807E1,-1.556916237E-1,3.566750050E0,2.202095019E1
2.745714067E0,1.523436451E1,-6.048664570E0,4.604528427E0,1.702568316E1
2.765092729E0,1.073863316E1,-8.861541748E0,4.825220108E0,1.473526088E1
2.784471391E0,8.495670319E0,-8.936513901E0,5.137269020E0,1.335774037E1
2.803819536E0,7.000522137E0,-7.831892490E0,6.155413628E0,1.217517832E1
2.823198198E0,5.610486031E0,-7.387872219E0,6.222193718E0,1.117022399E1
2.842576860E0,4.763491631E0,-7.661486626E0,5.021559715E0,1.032498386E1
2.861955522E0,4.922436714E0,-7.527106762E0,3.260608435E0,9.566571318E0
2.881334184E0,5.579597950E0,-6.951900959E0,1.670872450E0,9.069324946E0
2.900682329E0,6.022339821E0,-5.930908203E0,1.214697242E0,8.539305500E0
2.920060991E0,6.380690098E0,-5.226642132E0,1.162126660E0,8.329557760E0
2.939409135E0,6.876479149E0,-4.874804020E0,8.692493439E-1,8.473799274E0
2.958787798E0,7.296017170E0,-4.789928436E0,8.930561543E-1,8.773416111E0
2.978166460E0,7.489620686E0,-4.781433105E0,1.024022102E0,8.944559342E0
2.997514604E0,7.420790195E0,-4.837812901E0,1.387854576E0,8.966532279E0
3.016893266E0,7.377028465E0,-4.854128838E0,1.814317703E0,9.015257316E0
3.036241411E0,7.311073780E0,-4.442464352E0,2.380590677E0,8.880005704E0
3.055620073E0,7.854397774E0,-3.561182976E0,2.852435112E0,9.083500132E0
3.074998735E0,1.057568741E1,-6.290030479E-1,3.215887547E0,1.107170907E1
3.094346880E0,1.435563946E1,3.694430828E0,3.211135626E0,1.516722108E1
3.113725542E0,1.967180443E1,7.920526505E0,2.661460638E0,2.137283328E1
3.133104204E0,2.713873863E1,1.573466301E1,3.236806393E-1,3.137189066E1
3.152482866E0,3.322302246E1,1.662912560E1,-2.021481037E0,3.720730338E1
3.171861528E0,3.803843307E1,1.531930923E1,-1.530979633E0,4.103592968E1
3.191209673E0,3.927501678E1,1.214026451E1,2.784404755E-1,4.110949398E1
3.210588335E0,3.445127106E1,8.635532379E0,1.532920837E0,3.555013844E1
3.229936479E0,2.444897461E1,5.207886696E-1,9.670310020E-1,2.447363335E1
3.249315141E0,1.689753342E1,-3.939350605E0,1.244753838E0,1.739524449E1
3.268693803E0,1.165457058E1,-6.938308716E0,1.964653015E0,1.370507223E1
3.288041948E0,8.692029953E0,-8.370937347E0,2.294696808E0,1.228371321E1
3.307420610E0,7.773749352E0,-9.162583351E0,2.940522671E0,1.237056127E1
3.326799272E0,7.635932922E0,-9.406226158E0,3.044018269E0,1.249202183E1
3.346147417E0,8.247786522E0,-9.013148308E0,3.124608994E0,1.261055139E1
3.365526079E0,9.278190613E0,-8.248353004E0,3.024221420E0,1.277756094E1
3.384874223E0,9.970201492E0,-7.373359680E0,2.962923050E0,1.274952014E1
3.404252885E0,1.037678623E1,-6.610571384E0,2.500761032E0,1.255512454E1
3.423662065E0,1.049303150E1,-6.331293583E0,1.883398652E0,1.239903944E1
3.443010210E0,1.062899113E1,-5.956594944E0,1.593025684E0,1.228796999E1
3.462388872E0,1.090160179E1,-5.509652615E0,1.468066692E0,1.230269943E1
3.481737016E0,1.181311512E1,-4.378757954E0,1.343062639E0,1.266992610E1
3.501115678E0,1.498525047E1,-1.513533592E0,1.238218069E0,1.511230292E1
3.520494340E0,2.182946014E1,5.064100742E0,1.580335855E0,2.246481489E1
3.539842485E0,2.963522720E1,1.451637173E1,1.461777687E0,3.303193203E1
3.559221147E0,3.355706024E1,1.893697548E1,8.426189423E-1,3.854082691E1
3.578569292E0,3.701979446E1,2.031960678E1,1.436387539E0,4.225416916E1
3.597947954E0,3.841301346E1,2.137685394E1,2.686017036E0,4.404252689E1
3.617326616E0,3.601855087E1,2.006501198E1,4.295459747E0,4.145348824E1
3.636674760E0,2.977268219E1,1.464646530E1,5.461334229E0,3.362674118E1
3.656053423E0,2.218735695E1,7.661737919E0,5.357331276E0,2.407658686E1
3.675401567E0,1.569873810E1,8.354182243E-1,4.968691826E0,1.648745584E1
3.694810747E0,1.138530254E1,-4.017069817E0,5.011595726E0,1.307203334E1
3.714189409E0,8.739456177E0,-5.851706505E0,4.748233795E0,1.153976982E1
3.733537553E0,7.785009384E0,-6.259754181E0,5.243971348E0,1.128229272E1
3.752916215E0,7.200181484E0,-5.944075108E0,5.895211220E0,1.104210839E1
3.772264360E0,6.151872158E0,-6.278853416E0,6.291078568E0,1.080958837E1
3.791643022E0,5.025599003E0,-7.056979656E0,5.795333862E0,1.042321936E1
3.811021684E0,4.530506134E0,-7.700674057E0,4.705651760E0,1.009797134E1
3.830369829E0,4.491174698E0,-8.068773270E0,3.454007387E0,9.859306227E0
3.849748491E0,5.238592148E0,-7.175629139E0,2.668995380E0,9.276639347E0
3.869127153E0,6.309435368E0,-6.151551247E0,2.587733746E0,9.184058108E0
3.888475298E0,7.118937492E0,-5.340112209E0,2.789680958E0,9.326220525E0
3.907853960E0,7.628905296E0,-4.939819336E0,2.860580921E0,9.528112840E0
3.927202104E0,7.897821426E0,-4.572109699E0,2.731883526E0,9.525909824E0
3.946580766E0,8.027041435E0,-4.295606136E0,2.492812157E0,9.439265794E0
3.965959428E0,7.995264053E0,-4.148994923E0,2.220344543E0,9.277302196E0
3.985338090E0,7.591879845E0,-3.949647903E0,2.011920452E0,8.791142249E0
4.004716753E0,7.824753761E0,-3.229340553E0,1.812239408E0,8.656767498E0
4.024064897E0,1.071187592E1,3.663692474E-1,1.816039324E0,1.087090203E1
4.043443559E0,1.584723282E1,5.367676735E0,2.865353107E0,1.697518748E1
4.062822221E0,2.401753235E1,1.241361237E1,3.732807875E0,2.729237049E1
4.082170366E0,3.252622986E1,2.122596931E1,2.696252346E0,3.893285475E1
4.101549028E0,3.516846085E1,1.733429527E1,2.265493870E0,3.927379398E1
4.120897173E0,3.530499268E1,1.355415344E1,3.857355118E0,3.801363929E1
4.140275835E0,3.393088913E1,1.042306519E1,4.879718304E0,3.582955729E1
4.159654497E0,2.788710785E1,5.191830158E0,3.697158337E0,2.860620325E1
4.179002641E0,2.018328476E1,2.230453491E-2,2.325699329E0,2.031684913E1
4.198381303E0,1.435337543E1,-4.802371979E0,1.147262335E0,1.517887920E1
4.217729448E0,1.112439728E1,-8.185586929E0,6.943325996E-1,1.382888809E1
4.237108110E0,9.632161140E0,-9.832756042E0,1.104314685E0,1.380873385E1
4.256486772E0,9.238191605E0,-1.020062828E1,1.805906177E0,1.388014044E1
4.275865434E0,9.205213547E0,-9.785472870E0,2.019505978E0,1.358564831E1
4.295244096E0,9.227402687E0,-9.266151428E0,1.941665530E0,1.322030967E1
4.314592241E0,9.567716599E0,-8.643471718E0,1.516413450E0,1.298269286E1
4.333970903E0,9.823805809E0,-8.117368698E0,9.260405302E-1,1.277718225E1
4.353349565E0,1.009493256E1,-7.346932888E0,1.708689928E-1,1.248656407E1
4.372697710E0,1.045398426E1,-6.723465443E0,4.003059864E-2,1.242949625E1
4.392076372E0,1.066265678E1,-6.288467884E0,9.161162376E-2,1.237923547E1
4.411424516E0,1.044649124E1,-6.040423393E0,3.606619835E-1,1.207252961E1
4.430803178E0,1.041955662E1,-5.747574329E0,4.904729128E-1,1.190975795E1
4.450181840E0,1.199853516E1,-3.935050488E0,2.836298943E-1,1.263051520E1
4.469529985E0,1.882939529E1,2.781901360E0,4.372084141E-1,1.903880914E1
4.488908647E0,2.977925301E1,1.472431946E1,-5.303975344E-1,3.322485236E1
4.508287309E0,3.493556976E1,1.737657166E1,-1.030181408E0,3.903204518E1
4.527635454E0,4.041270065E1,2.001283455E1,-5.488057137E-1,4.509990142E1
4.547014116E0,4.161755371E1,2.108879852E1,1.631521463E0,4.668425926E1
4.566392778E0,3.609263992E1,1.649259567E1,2.721709967E0,3.977552104E1
4.585771440E0,2.795423889E1,1.049442673E1,2.527561426E0,2.996599792E1
4.605150102E0,2.031983566E1,3.248456478E0,2.590398550E0,2.074025929E1
4.624498247E0,1.486026955E1,-2.546823025E0,3.337698460E0,1.544196068E1
4.643876909E0,1.112867928E1,-4.972637177E0,4.051470280E0,1.284480573E1
4.663225053E0,8.882543564E0,-6.688658714E0,5.290725708E0,1.231379365E1
4.682603715E0,7.147122860E0,-7.340845585E0,6.508121490E0,1.213775203E1
4.701982378E0,5.806706429E0,-7.480502129E0,7.405515671E0,1.202153958E1
4.721330522E0,4.314460278E0,-7.465325832E0,6.624879837E0,1.087357761E1
4.740709184E0,3.007033825E0,-7.508059978E0,5.144952774E0,9.585601500E0
4.760057329E0,3.005967617E0,-7.392763138E0,3.048046589E0,8.542796740E0
4.779435991E0,3.553682327E0,-6.881242752E0,1.724403501E0,7.934338493E0
4.798814653E0,4.136838913E0,-6.350794792E0,8.877550364E-1,7.631129647E0
4.818162798E0,4.845952511E0,-5.951274872E0,3.780422807E-1,7.683999239E0
4.837541460E0,5.577536106E0,-5.656408310E0,-1.732246280E-1,7.945682523E0
4.856920122E0,6.184630394E0,-5.612129211E0,-6.976819038E-1,8.380477757E0
4.876298784E0,6.499009132E0,-5.802302361E0,-9.067777395E-1,8.759342341E0
4.895677446E0,6.447301865E0,-6.054595947E0,-7.028980255E-1,8.872423516E0
4.915025590E0,6.266546726E0,-5.506099701E0,8.628751338E-2,8.342313068E0
4.934404253E0,5.952620029E0,-5.355340004E0,1.027174816E-1,8.007740171E0
4.953752397E0,6.756181717E0,-4.624191284E0,1.404623687E-2,8.187144418E0
4.973131059E0,1.046269131E1,-7.868824005E-1,-3.190751672E-1,1.049709018E1
4.992509721E0,1.585338020E1,3.093359947E0,-1.488449335E0,1.622078978E1
5.011857866E0,2.189439201E1,5.778080940E0,-3.808417320E0,2.296202655E1
5.031236528E0,3.315616989E1,1.480777931E1,-4.933571339E0,3.664617383E1
5.050584673E0,4.035247040E1,1.550312805E1,-5.570692062E0,4.358556477E1
5.069963335E0,4.099441147E1,1.236213112E1,-3.527056932E0,4.296282332E1
5.089341997E0,3.845565033E1,9.338827133E0,-1.786028862E0,3.961364201E1
5.108690141E0,3.102016640E1,2.867833138E0,-1.110786676E0,3.117224787E1
5.128099321E0,2.119861221E1,-3.789350033E0,-1.824308515E0,2.161176612E1
5.147477983E0,1.390426254E1,-8.559219360E0,-2.736026525E0,1.655519840E1
5.166826128E0,9.791338921E0,-1.100098991E1,-3.836110592E0,1.521866753E1
5.186204790E0,8.131017685E0,-1.108609009E1,-4.265607834E0,1.439479949E1
5.205552934E0,7.339201450E0,-1.011295986E1,-3.078415871E0,1.286905122E1
5.224931596E0,7.029250145E0,-9.525682449E0,-2.609177589E0,1.212257363E1
5.244310258E0,7.053920269E0,-9.130036354E0,-2.988595486E0,1.191834963E1
5.263658403E0,7.475130081E0,-8.419478416E0,-3.880745888E0,1.190904594E1
5.283037065E0,8.057338715E0,-7.677879333E0,-4.824749947E0,1.213048846E1
5.302385210E0,8.630992889E0,-6.970280170E0,-5.170896053E0,1.223997589E1
5.321763872E0,9.213068008E0,-6.381014824E0,-5.022033691E0,1.228083038E1
5.341142534E0,9.494375229E0,-5.998345852E0,-4.748911381E0,1.219325524E1
5.360490678E0,1.003687286E1,-5.663684845E0,-4.318156719E0,1.230701509E1
5.379869340E0,1.127520561E1,-4.846891403E0,-3.955208778E0,1.289442881E1
5.399217485E0,1.503428841E1,-1.485985279E0,-3.526186705E0,1.551360605E1
5.418626665E0,2.302570915E1,6.054127693E0,-3.586721897E0,2.407696655E1
5.437974809E0,2.965409279E1,1.209832478E1,-5.004941463E0,3.241580048E1
5.457353471E0,3.362013626E1,1.249104786E1,-4.310635090E0,3.612369601E1
5.476732133E0,3.948295212E1,1.727243042E1,-1.805833817E0,4.313352984E1
5.496080278E0,4.152301025E1,1.893537140E1,3.630869985E-1,4.563814745E1
5.515458940E0,3.742739105E1,1.436229706E1,-6.229352951E-2,4.008851529E1
5.534837602E0,3.069215393E1,7.767657757E0,-4.730145931E-1,3.166336310E1
5.554185747E0,2.315862274E1,1.371984959E0,3.332318068E-1,2.320162049E1
5.573564409E0,1.521943474E1,-4.554185390E0,1.216126919E0,1.593269478E1
5.592912553E0,8.478630066E0,-9.176090240E0,1.810687542E0,1.262404013E1
5.612291215E0,4.927102089E0,-1.087209129E1,1.873507977E0,1.208257987E1
5.631669878E0,4.030379295E0,-1.049297333E1,1.059892058E0,1.129025322E1
5.651018022E0,4.900122166E0,-9.584832191E0,-1.518604755E-1,1.076583796E1
5.670396684E0,6.258926392E0,-8.167331696E0,-1.222804070E0,1.036217720E1
5.689775346E0,7.357162476E0,-6.953670979E0,-1.827753067E0,1.028698503E1
5.709154008E0,7.792172909E0,-6.195377350E0,-1.986909628E0,1.015127918E1
5.728532671E0,7.723262310E0,-5.676711559E0,-2.150665045E0,9.823400377E0
5.747880815E0,7.277084351E0,-5.498191833E0,-2.333627701E0,9.414451037E0
5.767259477E0,6.584040642E0,-5.430162907E0,-2.176454782E0,8.807565826E0
5.786607622E0,5.608745098E0,-5.560244560E0,-2.055962086E0,8.160963255E0
5.805986284E0,4.615801811E0,-6.011466026E0,-2.176561356E0,7.885478393E0
5.825364946E0,4.159863949E0,-6.402016640E0,-2.376047134E0,7.995991815E0
5.844713090E0,4.095279694E0,-6.595716476E0,-2.478311062E0,8.149651362E0
5.864091753E0,4.199106693E0,-6.462971687E0,-2.065450668E0,7.979259772E0
5.883470415E0,4.522393227E0,-6.284077644E0,-1.925181985E0,7.977969542E0
5.902818559E0,5.757518768E0,-5.334292412E0,-2.148536444E0,8.137561475E0
5.922197221E0,9.744488716E0,-1.309447289E0,-2.477351189E0,1.013937776E1
5.941545366E0,1.573202324E1,4.259114265E0,-2.684832335E0,1.651801847E1
5.960924028E0,2.175313950E1,7.505486488E0,-3.068871737E0,2.321528331E1
5.980302690E0,3.030303192E1,1.499136639E1,-3.771154404E0,3.401817772E1
5.999681352E0,3.648699188E1,1.603248978E1,-3.656196594E0,4.002135778E1
6.019060014E0,4.037184143E1,1.102536106E1,-4.487047493E-1,4.185266423E1
6.038408159E0,3.860092163E1,6.929152489E0,7.770433426E-1,3.922560517E1
6.057786821E0,3.051305771E1,4.036588669E-1,-6.496559381E-1,3.052264215E1
6.077165483E0,2.311803818E1,-5.740975857E0,-2.443652153E-1,2.382146526E1
6.096513628E0,1.687147141E1,-9.222810745E0,-8.470884562E-1,1.924641120E1
6.115892290E0,1.190609741E1,-9.743997574E0,-2.283211470E0,1.555357512E1
6.135240434E0,8.246321678E0,-9.842718124E0,-3.446978331E0,1.329520895E1
6.154619096E0,6.608341694E0,-9.568595886E0,-4.492755890E0,1.246647756E1
6.173997758E0,6.350296021E0,-8.493978500E0,-4.421484947E0,1.149014619E1
6.193345903E0,6.725668907E0,-7.786818504E0,-4.037253857E0,1.105298979E1
6.212724565E0,6.985971928E0,-7.680497169E0,-3.346567869E0,1.090840763E1
6.232072710E0,7.137953758E0,-7.918038845E0,-2.763961315E0,1.101295624E1
6.251451372E0,7.259804249E0,-8.167007446E0,-2.637368202E0,1.124101772E1
6.270860551E0,7.484152794E0,-8.037967682E0,-2.858137608E0,1.134858661E1
6.290208696E0,8.092529297E0,-7.308706760E0,-3.349862099E0,1.140735732E1
6.309587358E0,9.681178093E0,-5.847286701E0,-3.862116814E0,1.195123079E1
6.328935503E0,1.439197826E1,-1.595462799E0,-4.384249687E0,1.512931542E1
6.348314165E0,2.415701103E1,5.843946934E0,-5.241672039E0,2.540055164E1
6.367692827E0,3.317237473E1,1.095940399E1,-5.306396484E0,3.533656498E1
6.387040971E0,3.873115540E1,1.339451790E1,-4.785503387E0,4.126035083E1
6.406419633E0,4.238042068E1,1.617361259E1,-3.272390842E0,4.547960360E1
6.425767778E0,4.052422333E1,1.597583199E1,-3.391279459E0,4.369142548E1
6.445146440E0,3.442263794E1,1.231075668E1,-4.482048512E0,3.683152850E1
6.464525102E0,2.674884033E1,6.301555634E0,-3.320914030E0,2.768101394E1
6.483873247E0,1.816196823E1,-1.173439503E0,-6.042225361E-1,1.820986368E1
6.503251909E0,1.069910049E1,-7.432542801E0,1.691321731E0,1.313674286E1
6.522600053E0,6.236921787E0,-1.031381035E1,3.386823416E0,1.251976238E1
6.541978715E0,4.431136608E0,-9.656333923E0,3.984490156E0,1.134706651E1
6.561387895E0,4.409805298E0,-8.354808807E0,3.867882252E0,1.020831652E1
6.580736040E0,4.819508553E0,-7.688821793E0,2.703373909E0,9.468572952E0
6.600114702E0,5.800845623E0,-6.888982773E0,1.352739215E0,9.107019105E0
6.619493364E0,6.318653107E0,-6.220585346E0,3.506750166E-1,8.873783415E0
6.638841508E0,6.439843655E0,-5.776727676E0,-3.255608380E-1,8.657260468E0
6.658220171E0,6.343026638E0,-5.460544586E0,-9.486815333E-1,8.423273162E0
6.677568315E0,6.390713692E0,-5.210662842E0,-1.476692200E0,8.376923576E0
6.696946977E0,6.254716873E0,-5.304495811E0,-1.619520187E0,8.359545718E0
6.716325639E0,5.448794842E0,-5.967447758E0,-1.602016926E0,8.238097851E0
6.735673784E0,4.561213493E0,-6.679208279E0,-1.620316744E0,8.248752519E0
6.755052446E0,4.077138424E0,-6.737543106E0,-1.667179585E0,8.049660403E0
6.774400590E0,4.355525494E0,-6.244535446E0,-1.542798281E0,7.768207760E0
6.793779253E0,4.611871243E0,-5.516457558E0,-7.251822948E-1,7.226793874E0
6.813157915E0,4.722111702E0,-4.757586479E0,1.095231771E-1,6.704100488E0
6.832506059E0,6.918293953E0,-2.990405083E0,4.361921549E-2,7.537056217E0
6.851915239E0,1.306384659E1,1.004446030E0,-6.572356224E-1,1.311887793E1
6.871263383E0,1.973830032E1,4.864546776E0,-1.812965631E0,2.040958499E1
6.890642046E0,2.677036285E1,8.951414108E0,-3.083925724E0,2.839525911E1
6.910020708E0,3.406340790E1,1.376493931E1,-3.631492138E0,3.691851902E1
6.929368852E0,3.833791733E1,1.490222168E1,-3.419247866E0,4.127424587E1
6.948747514E0,3.780157471E1,1.232102776E1,-2.686683893E0,3.984953006E1
6.968095659E0,3.267204285E1,5.680454254E0,-1.622224808E0,3.320183064E1
6.987474321E0,2.610873604E1,-8.046102524E-1,-1.186288595E0,2.614805491E1
7.006852983E0,1.963527298E1,-5.123190403E0,-1.146906614E0,2.032501955E1
7.026201128E0,1.442458344E1,-7.722711563E0,-2.105441570E0,1.649671984E1
7.045579790E0,1.084888268E1,-9.138961792E0,-3.160477638E0,1.453297963E1
7.064927934E0,8.993627548E0,-9.325068474E0,-3.185519218E0,1.334128072E1
7.084306596E0,8.226541519E0,-9.170152664E0,-3.010011435E0,1.268179223E1
7.103685258E0,7.823933601E0,-8.834115028E0,-3.064725399E0,1.219213136E1
7.123063921E0,7.809075832E0,-8.521234512E0,-3.502500057E0,1.207727658E1
7.142442583E0,7.959991932E0,-8.258851051E0,-3.924144745E0,1.212307734E1
7.161790727E0,8.004468918E0,-7.847555161E0,-3.953309774E0,1.188630737E1
7.181169389E0,7.937618256E0,-7.441848278E0,-3.483142853E0,1.142449883E1
7.200548051E0,7.758135319E0,-7.295014858E0,-3.231582642E0,1.112874799E1
7.219896196E0,7.836966038E0,-7.089945316E0,-2.965921164E0,1.097643155E1
7.239274858E0,9.121150970E0,-6.459001064E0,-2.862125635E0,1.153715099E1
7.258653520E0,1.344422436E1,-3.862309933E0,-3.052475452E0,1.431719990E1
7.278001665E0,2.200807953E1,3.494675636E0,-3.183204651E0,2.251002253E1
7.297380327E0,3.016018867E1,1.333049393E1,-3.150291443E0,3.312496620E1
7.316728471E0,3.346366882E1,1.332818985E1,-1.615002871E0,3.605642814E1
7.336107133E0,3.558974457E1,1.373408127E1,-1.719556332E0,3.818653926E1
7.355485796E0,3.590660858E1,1.517778587E1,-1.041539669E0,3.899659637E1
7.374833940E0,3.357471085E1,1.390921307E1,-4.242577553E-1,3.634428994E1
7.394212602E0,2.793627739E1,1.000686073E1,-4.620236158E-1,2.967804444E1
7.413591264E0,2.146766472E1,3.835374832E0,-1.282018900E0,2.184523520E1
7.432969926E0,1.562721157E1,-2.771702290E0,-1.152854443E0,1.591292394E1
7.452348589E0,1.126684761E1,-6.543408871E0,-4.169727564E-1,1.303579384E1
7.471696733E0,8.962573051E0,-8.089614868E0,5.297732353E-1,1.208512491E1
7.491075395E0,7.760526657E0,-8.840902328E0,1.314416885E0,1.183701904E1
7.510423540E0,7.157277584E0,-9.105015755E0,9.866195917E-1,1.162331074E1
7.529802202E0,7.052412510E0,-8.860659599E0,-1.487920284E-1,1.132563242E1
7.549180864E0,7.053399563E0,-8.363071442E0,-7.281759977E-1,1.096456336E1
7.568529008E0,6.756016731E0,-7.688856125E0,-4.943008423E-1,1.024727300E1
7.587907671E0,6.094540596E0,-7.771284580E0,-9.463008642E-1,9.921278871E0
7.607255815E0,5.800425529E0,-7.778117657E0,-1.507523179E0,9.819199394E0
7.626634477E0,6.230874538E0,-7.511480808E0,-1.845176935E0,9.932311884E0
7.646013139E0,6.690469265E0,-7.174363136E0,-2.161695004E0,1.004523721E1
7.665361284E0,7.082931995E0,-6.795604229E0,-1.956855178E0,1.000886830E1
7.684739946E0,7.076805115E0,-6.799886227E0,-1.717615485E0,9.963424425E0
7.704118608E0,6.981148243E0,-7.002494335E0,-1.733734846E0,1.003878450E1
7.723497270E0,6.927529812E0,-7.072512150E0,-1.798997879E0,1.006218121E1
7.742875932E0,6.839450359E0,-6.968348980E0,-1.672241211E0,9.906177840E0
7.762224077E0,6.880151272E0,-6.876507282E0,-1.418228030E0,9.830269817E0
7.781602739E0,7.871796608E0,-5.889300346E0,-1.269936800E0,9.912707999E0
7.800950883E0,1.271201324E1,-1.198776245E0,-1.402460814E0,1.284520306E1
7.820329546E0,1.914903450E1,5.274616241E0,-1.569270253E0,1.992409867E1
7.839708208E0,2.497940445E1,1.030587387E1,-2.256152391E0,2.711589767E1
7.859056352E0,3.123351288E1,1.613088989E1,-4.118696213E0,3.539352475E1
7.878435014E0,3.312596893E1,1.263355255E1,-4.981843472E0,3.580160935E1
7.897783159E0,3.282475281E1,8.982242584E0,-4.468388081E0,3.432362992E1
7.917161821E0,3.120145035E1,7.067985058E0,-3.496458769E0,3.218248189E1
7.936540483E0,2.657519722E1,3.537002087E0,-2.850022316E0,2.696060308E1
7.955888628E0,2.026509857E1,-1.461206436E0,-2.705670357E0,2.049707288E1
7.975267290E0,1.508260441E1,-6.106020451E0,-2.631608963E0,1.648313706E1
7.994676469E0,1.184038544E1,-8.764680862E0,-2.054043293E0,1.487391851E1
8.014024614E0,9.651998520E0,-9.626274109E0,-1.651239634E0,1.373145371E1
8.033403276E0,8.581816673E0,-9.857677460E0,-1.394790888E0,1.314407943E1
8.052751421E0,8.158899307E0,-9.438428879E0,-1.375360489E0,1.255162117E1
8.072130083E0,7.826032162E0,-8.739886284E0,-1.607997656E0,1.184137020E1
8.091508745E0,7.461624146E0,-8.113618851E0,-1.914347887E0,1.118800132E1
8.110856889E0,7.296818256E0,-7.709786415E0,-2.548351049E0,1.091688858E1
8.130235551E0,7.456525803E0,-7.212479591E0,-3.055348635E0,1.081456398E1
8.149583696E0,7.884970665E0,-6.860325813E0,-3.457651138E0,1.100873217E1
8.168962358E0,8.476999283E0,-6.552781582E0,-3.632829189E0,1.131352780E1
8.188341020E0,9.524896622E0,-5.897544384E0,-3.703809977E0,1.179927514E1
8.207689165E0,1.129240036E1,-4.569507599E0,-3.745597839E0,1.274473259E1
8.227067827E0,1.602742577E1,-5.924220085E-1,-3.886591434E0,1.650257354E1
8.246415971E0,2.337244225E1,6.346803665E0,-3.731703281E0,2.450466451E1
8.265794633E0,2.870466423E1,1.266467476E1,-4.177410126E0,3.165126365E1
8.285203813E0,3.140046501E1,1.485992146E1,-3.570544958E0,3.492213138E1
8.304551958E0,3.301168823E1,1.527152252E1,-2.710872650E0,3.647382336E1
8.323930620E0,3.275827408E1,1.419722366E1,-3.082357168E0,3.583527042E1
8.343278764E0,3.192600250E1,1.223690224E1,-2.118709087E0,3.425639123E1
8.362657426E0,2.944828987E1,8.792662621E0,-1.072054148E0,3.075161772E1
8.382036089E0,2.450230026E1,3.034447193E0,3.354349136E-1,2.469176188E1
8.401384233E0,1.845760155E1,-3.134229660E0,1.187921286E0,1.875946714E1
8.420762895E0,1.244946766E1,-7.800031662E0,1.450142622E0,1.476254221E1
8.440111040E0,8.394433975E0,-9.792183876E0,1.029464483E0,1.293882467E1
8.459489702E0,6.350504398E0,-1.011703300E1,9.346268177E-1,1.198151869E1
8.478868364E0,5.586706638E0,-9.550850868E0,2.529790401E-1,1.106770264E1
8.498216508E0,5.463325500E0,-8.725782394E0,-1.003744125E0,1.034382454E1
8.517595171E0,5.767824173E0,-7.677763462E0,-2.256592751E0,9.864484696E0
8.536943315E0,6.352592468E0,-6.722104073E0,-3.248114586E0,9.802671197E0
8.556352495E0,6.452958107E0,-6.397103310E0,-3.819483280E0,9.856574030E0
8.575736027E0,6.369258881E0,-6.271756172E0,-4.050952435E0,9.813898298E0
8.595084171E0,6.133854866E0,-6.178466797E0,-4.051767349E0,9.602835317E0
8.614462834E0,6.061810017E0,-5.991165638E0,-3.995837212E0,9.413093084E0
8.633810978E0,6.221534252E0,-5.846944809E0,-3.921517134E0,9.395347183E0
8.653189640E0,6.514185905E0,-5.594802856E0,-3.598350525E0,9.310454528E0
8.672568302E0,6.585138321E0,-5.202188015E0,-3.142505646E0,8.961146611E0
8.691916447E0,6.062007904E0,-5.406366348E0,-2.593151808E0,8.526498298E0
8.711295109E0,5.540861130E0,-5.473992825E0,-2.436845541E0,8.161124659E0
8.730673771E0,5.407397270E0,-5.214660645E0,-2.346781015E0,7.870197711E0
8.750021916E0,7.452927589E0,-2.013675213E0,-2.831499815E0,8.223041330E0
8.769400578E0,1.156365681E1,3.759161949E0,-3.891706705E0,1.276694319E1
8.788748722E0,1.687128258E1,6.512322426E0,-3.706628323E0,1.846048788E1
8.808127384E0,2.467596817E1,1.059692001E1,-2.352369308E0,2.695796284E1
8.827506046E0,3.207111359E1,1.837895966E1,-2.499695301E0,3.704849472E1
8.846884709E0,3.357286072E1,1.501115036E1,-2.609474421E0,3.686842780E1
8.866263371E0,3.279866791E1,1.141157436E1,-3.108389616E0,3.486601113E1
8.885611515E0,3.135407639E1,8.493598938E0,-2.677213669E0,3.259427560E1
8.904990177E0,2.707884598E1,3.218752861E0,-1.763189197E0,2.732641772E1
8.924368839E0,2.129002380E1,-1.857949734E0,-1.842228293E0,2.145019571E1
8.943716984E0,1.655802536E1,-5.873659611E0,-2.415316105E0,1.773419953E1
8.963095646E0,1.315179825E1,-7.645865917E0,-2.862646818E0,1.547978713E1
8.982443791E0,1.089486694E1,-8.311969757E0,-3.239082813E0,1.408114429E1
9.001822453E0,9.598806381E0,-8.702058792E0,-3.351728201E0,1.338271247E1
9.021201115E0,8.813863754E0,-8.559362411E0,-3.409379482E0,1.275032343E1
9.040549259E0,8.259391785E0,-8.208181381E0,-3.324422598E0,1.210964821E1
9.059927921E0,7.928511620E0,-7.880408287E0,-3.172659159E0,1.162015049E1
9.079276066E0,7.621535301E0,-7.673079967E0,-2.880864143E0,1.119211038E1
9.098654728E0,7.352520466E0,-7.661299706E0,-2.777442217E0,1.097584874E1
9.118033390E0,7.170055866E0,-7.613329887E0,-2.726080418E0,1.080759027E1
9.137412052E0,7.515835762E0,-7.250012875E0,-2.722203016E0,1.079170344E1
9.156790714E0,8.887050629E0,-6.104522228E0,-3.009596348E0,1.119386129E1
9.176138859E0,1.258117580E1,-3.038535595E0,-3.205492973E0,1.333393672E1
9.195517521E0,2.105676270E1,5.097187042E0,-3.020506144E0,2.187446064E1
9.214896183E0,2.824811935E1,1.329792786E1,-2.201818705E0,3.129918750E1
9.234244328E0,2.991886139E1,1.459455490E1,-8.278627992E-1,3.329901885E1
9.253622990E0,3.057292938E1,1.489282894E1,3.424681723E-1,3.400908187E1
9.272971134E0,3.086270905E1,1.507340240E1,-1.560423374E-1,3.434732331E1
9.292349796E0,2.996413422E1,1.402248859E1,-1.590840578E0,3.312114581E1
9.311728459E0,2.755803490E1,1.122423363E1,-1.887875795E0,2.981598200E1
9.331076603E0,2.320745087E1,6.243609428E0,-1.426281095E0,2.407493951E1
9.350455265E0,1.806835938E1,2.038145065E-2,-1.091660738E0,1.810131899E1
9.369803410E0,1.352221012E1,-6.050438881E0,-6.077355742E-1,1.482657478E1
9.389182072E0,1.048906422E1,-9.426835060E0,-7.812130451E-2,1.410290007E1
9.408560734E0,9.003236771E0,-9.894315720E0,3.451942801E-1,1.338188757E1
9.427939396E0,8.392587662E0,-9.462661743E0,1.204718590E0,1.270546504E1
9.447318058E0,7.776033401E0,-8.965176582E0,1.977661848E0,1.203130222E1
9.466696720E0,7.004895210E0,-7.935796738E0,2.735670805E0,1.093294661E1
9.486044865E0,5.995821953E0,-7.200532436E0,3.030273438E0,9.847847753E0
9.505423527E0,5.022711277E0,-6.979273796E0,2.507430553E0,8.956846503E0
9.524771671E0,4.603231907E0,-6.879744530E0,1.574081779E0,8.426052589E0
9.544150334E0,5.003986835E0,-6.281191826E0,8.546754122E-1,8.076120669E0
9.563528996E0,5.495647430E0,-5.693196297E0,4.527420998E-1,7.925881665E0
9.582877140E0,5.797524452E0,-5.553345680E0,-2.281260490E-2,8.028166567E0
9.602255802E0,5.789925098E0,-5.747706890E0,-4.307671189E-1,8.169756878E0
9.621603947E0,5.799992561E0,-5.974004745E0,-7.982222438E-1,8.364556483E0
9.640982609E0,5.593057156E0,-6.094778061E0,-9.112831354E-1,8.322201927E0
9.660361271E0,5.383955479E0,-5.907371521E0,-6.689531207E-1,8.020692811E0
9.679709416E0,5.272188187E0,-5.573457718E0,-4.208934903E-1,7.683524617E0
9.699088078E0,6.723352432E0,-3.984646797E0,-8.932334185E-2,7.815936072E0
9.718466740E0,1.231588364E1,2.004172325E0,-5.652666092E-1,1.249068544E1
9.737845402E0,2.157223320E1,1.042472839E1,-3.821246624E-1,2.396209979E1
9.757193546E0,2.878458214E1,1.613961411E1,1.228137851E0,3.302344069E1
9.776572209E0,3.324908447E1,2.192272949E1,3.907531500E0,4.001720241E1
9.795950871E0,3.048424149E1,1.652231979E1,4.112612724E0,3.491689582E1
9.815299015E0,2.748575211E1,1.065652180E1,2.158762217E0,2.955821848E1
9.834677677E0,2.532139397E1,6.694161415E0,3.036326170E-1,2.619307126E1
9.854056339E0,2.156517029E1,2.271788120E0,5.183108449E-1,2.169069471E1
9.873404484E0,1.678237343E1,-2.751151562E0,2.076879144E-1,1.700764614E1
9.892783146E0,1.305755043E1,-6.148200512E0,-6.683741808E-1,1.444806966E1
9.912131291E0,1.062189388E1,-8.048105240E0,-1.892960310E0,1.346030930E1
9.931509953E0,9.616695404E0,-8.588506699E0,-3.145195961E0,1.327160636E1
9.950888615E0,9.528456688E0,-8.409425735E0,-3.956331730E0,1.331024000E1
9.970236759E0,9.779359818E0,-8.205539703E0,-4.189440250E0,1.343570504E1
9.989615421E0,1.023733521E1,-8.430833817E0,-4.077475548E0,1.387471794E1
1.000899408E1,1.091822052E1,-8.462184906E0,-3.718652248E0,1.430540063E1
1.002837275E1,1.160689068E1,-8.158753395E0,-3.358656883E0,1.457963457E1
1.004775141E1,1.163875961E1,-8.105171204E0,-3.252655983E0,1.455109262E1
1.006709955E1,1.115613937E1,-8.013659477E0,-3.176786900E0,1.409858713E1
1.008647821E1,1.080518341E1,-7.756361485E0,-3.011519194E0,1.363753570E1
1.010582636E1,1.092601109E1,-6.988527298E0,-2.962188721E0,1.330382629E1
1.012520502E1,1.185029793E1,-5.628297329E0,-3.074513674E0,1.347441747E1
1.014458368E1,1.476677322E1,-2.688275814E0,-3.128274441E0,1.533200963E1
1.016393183E1,2.054939651E1,3.027080536E0,-3.301193714E0,2.103185188E1
1.018331049E1,2.641348267E1,1.008979607E1,-2.962546349E0,2.842978600E1
1.020265863E1,3.042388535E1,1.397416210E1,-1.519074559E0,3.351414020E1
1.022203730E1,3.306481171E1,1.437564087E1,1.021128416E0,3.606914924E1
1.024141596E1,3.270616150E1,1.488321018E1,2.111405849E0,3.599529108E1
1.026076410E1,2.982704544E1,1.515235138E1,2.468347549E0,3.354607476E1
1.028017328E1,2.571683121E1,1.315273285E1,2.180341959E0,2.896728637E1
1.029952143E1,2.082935905E1,8.366265297E0,1.368257523E0,2.248841307E1
1.031890009E1,1.560177708E1,1.598151207E0,1.136201978E0,1.572451876E1
1.033827875E1,1.102069664E1,-4.164234638E0,1.642115116E0,1.189508918E1
1.035762690E1,7.964797974E0,-7.192652225E0,2.525348663E0,1.102495527E1
1.037700556E1,6.227966309E0,-8.100332260E0,3.236579895E0,1.071813400E1
1.039638422E1,5.327356815E0,-8.406397820E0,3.581682682E0,1.057717854E1
1.041573236E1,5.330811501E0,-8.327190399E0,3.217554569E0,1.039770689E1
1.043511103E1,5.481795311E0,-8.376398087E0,2.642900467E0,1.035369729E1
1.045445917E1,5.792372704E0,-8.135814667E0,2.338562727E0,1.025728704E1
1.047383783E1,5.985380650E0,-7.824369431E0,1.682623386E0,9.993836099E0
1.049321650E1,6.215652943E0,-7.460872650E0,1.047218800E0,9.767068620E0
1.051256464E1,6.477078438E0,-7.034721851E0,6.484880447E-1,9.584382784E0
1.053194330E1,6.592753887E0,-6.692687988E0,5.276906490E-1,9.409300386E0
1.055129145E1,6.571078300E0,-6.582937717E0,4.843019247E-1,9.313897540E0
1.057070063E1,6.464441299E0,-6.630389214E0,3.838007450E-1,9.268137108E0
1.059007929E1,6.133356094E0,-6.861881733E0,3.700863719E-1,9.210887135E0
1.060942743E1,5.526642799E0,-7.079923630E0,2.849677801E-1,8.986117397E0
1.062880610E1,4.958340168E0,-7.015111446E0,1.633245349E-1,8.592066150E0
1.064815424E1,5.095579624E0,-6.287242889E0,-2.941071391E-1,8.098200656E0
1.066753290E1,6.891036987E0,-4.271395683E0,-7.321155071E-1,8.140467122E0
1.068691156E1,1.138243675E1,1.098085403E0,-1.188110471E0,1.149683715E1
1.070625971E1,1.803690338E1,8.843538284E0,-4.449937940E-1,2.009318473E1
1.072563837E1,2.364480209E1,1.276574993E1,1.831276417E0,2.693315077E1
1.074498652E1,2.795176697E1,1.670187759E1,2.955262661E0,3.269537535E1
1.076436518E1,2.945837593E1,1.379362965E1,3.019889355E0,3.266771897E1
1.078374384E1,3.058465385E1,9.584501266E0,2.746772528E0,3.216874998E1
1.080309198E1,3.118309402E1,8.147426605E0,1.864864826E0,3.228379832E1
1.082247065E1,2.721206856E1,4.387952328E0,6.540730596E-1,2.757133679E1
1.084184931E1,2.055220604E1,9.718894958E-3,-1.204681635E0,2.058748468E1
1.086122797E1,1.405690193E1,-4.416461468E0,-2.324180126E0,1.491654910E1
1.088060663E1,9.007046700E0,-7.697423935E0,-2.651731014E0,1.214120681E1
1.089995478E1,6.148214817E0,-1.007593918E1,-3.136258602E0,1.221315740E1
1.091933344E1,5.200464249E0,-1.111150932E1,-3.336584806E0,1.271390050E1
1.093868158E1,5.789395809E0,-1.079262447E1,-3.039639473E0,1.261892448E1
1.095806025E1,7.114017963E0,-1.008079720E1,-2.675616026E0,1.262500078E1
1.097743891E1,8.287024498E0,-9.641530991E0,-2.063430786E0,1.287989291E1
1.099678705E1,9.270423889E0,-9.359052658E0,-2.132506847E0,1.334466977E1
1.101616571E1,9.156618118E0,-8.794368744E0,-2.676574707E0,1.297492309E1
1.103551386E1,8.784759521E0,-8.177769661E0,-3.345904112E0,1.245965452E1
1.105489252E1,8.505016327E0,-7.699906826E0,-3.611134768E0,1.202764159E1
1.107427118E1,8.232882500E0,-7.263194084E0,-3.606099606E0,1.155587716E1
1.109361933E1,8.780740738E0,-6.306819439E0,-3.460932016E0,1.135145056E1
1.111299799E1,1.070832253E1,-4.484782696E0,-2.781068087E0,1.193799761E1
1.113237665E1,1.534921360E1,-8.359098434E-1,-1.620125532E0,1.545709902E1
1.115175531E1,2.162997246E1,5.147314548E0,-2.017449379E0,2.232533667E1
1.117113398E1,2.684917259E1,9.867467880E0,-3.367818356E0,2.880255530E1
1.119048212E1,3.242243576E1,1.133593178E1,-2.997630835E0,3.447757939E1
1.120986078E1,3.843489075E1,1.526991272E1,-8.132113218E-1,4.136511059E1
1.122923945E1,3.791652679E1,1.530008984E1,4.890254736E-1,4.089003423E1
1.124858759E1,3.211401749E1,1.212002182E1,1.577021837E0,3.436119972E1
1.126796625E1,2.449484825E1,7.274374008E0,2.234466791E0,2.564969688E1
1.128731440E1,1.730704117E1,1.442457199E0,1.508569598E0,1.743244501E1
1.130669306E1,1.155261421E1,-4.338771820E0,1.576243639E-1,1.234150240E1
1.132607172E1,7.362704754E0,-8.517960548E0,-1.054206252E0,1.130824584E1
1.134541986E1,5.130221844E0,-9.986700058E0,-1.889819860E0,1.138528758E1
1.136479853E1,4.066317081E0,-1.006098938E1,-2.570219994E0,1.115188203E1
1.138414667E1,4.026020050E0,-9.502647400E0,-3.239223719E0,1.081673312E1
1.140352533E1,4.436148643E0,-9.165349007E0,-3.486464024E0,1.076282809E1
1.142293451E1,4.780314922E0,-8.956911087E0,-3.205365419E0,1.064669124E1
1.144228266E1,4.610337257E0,-8.934555054E0,-2.706143379E0,1.041175757E1
1.146166132E1,4.332460880E0,-8.657242775E0,-2.376870632E0,9.968329035E0
1.148100946E1,4.150446892E0,-8.229570389E0,-2.344081402E0,9.510349931E0
1.150038813E1,4.207123756E0,-7.735947609E0,-2.476381779E0,9.147526574E0
1.151976679E1,4.246397018E0,-7.280509949E0,-2.463071346E0,8.780913005E0
1.153911493E1,3.930680752E0,-7.368890762E0,-2.518104792E0,8.723053020E0
1.155849360E1,3.615377188E0,-7.684271812E0,-2.654598236E0,8.897520851E0
1.157784174E1,3.420210123E0,-7.801008224E0,-2.684543610E0,8.930864516E0
1.159722040E1,3.258368969E0,-7.637995720E0,-2.480380774E0,8.666500778E0
1.161659906E1,2.844661713E0,-7.236899376E0,-2.165802002E0,8.071896379E0
1.163594721E1,2.537777424E0,-6.727205276E0,-1.849994421E0,7.424155470E0
1.165532587E1,3.468791485E0,-5.108861923E0,-1.493274808E0,6.353176699E0
1.167467402E1,7.495739937E0,-4.454946518E-1,-1.138010025E0,7.594711943E0
1.169405268E1,1.365896702E1,6.149327278E0,-1.228375554E0,1.502965444E1
1.171346186E1,1.986664200E1,1.065643787E1,-5.002941489E-1,2.254979882E1
1.173281000E1,2.752325821E1,1.650759697E1,6.971770525E-2,3.209416397E1
1.175218866E1,3.236478424E1,1.568126678E1,-1.302646875E0,3.598719600E1
1.177153681E1,3.552840042E1,9.535958290E0,-2.743198872E0,3.688803162E1
1.179091547E1,3.683850479E1,6.735885620E0,-5.802849293E0,3.789618253E1
1.181029413E1,3.165267754E1,3.863063335E0,-7.621027946E0,3.278559624E1
1.182964228E1,2.189401436E1,-3.167755604E0,-5.704016685E0,2.284553231E1
1.184902094E1,1.359919357E1,-8.130958557E0,-3.689525843E0,1.626847116E1
1.186836908E1,9.042951584E0,-1.094232464E1,-3.519951105E0,1.462530333E1
1.188774775E1,7.795321941E0,-1.167259216E1,-4.582753181E0,1.476543527E1
1.190712641E1,8.195415497E0,-1.135465431E1,-4.787567616E0,1.479911529E1
1.192647455E1,8.451646805E0,-1.081288624E1,-4.510079861E0,1.444609507E1
1.194585321E1,7.953578949E0,-1.061293793E1,-4.508995056E0,1.400803005E1
1.196520136E1,7.314288616E0,-1.045777512E1,-4.668911934E0,1.358906240E1
1.198458002E1,6.853137016E0,-1.022640800E1,-4.699412346E0,1.317685031E1
1.200398920E1,6.617150784E0,-9.620260239E0,-4.449243546E0,1.249527349E1
1.202333735E1,6.416662693E0,-8.954357147E0,-4.298888206E0,1.182516435E1
1.204271601E1,6.470082760E0,-8.351045609E0,-4.376514435E0,1.143485078E1
1.206209467E1,6.857848167E0,-7.727866173E0,-4.701216698E0,1.135127462E1
1.208144281E1,8.231488228E0,-6.587395668E0,-4.933229923E0,1.163992859E1
1.210082148E1,1.227257156E1,-3.000313282E0,-4.850048065E0,1.353295455E1
1.212016962E1,1.817753983E1,2.940510273E0,-4.489439964E0,1.895322205E1
1.213954828E1,2.513220215E1,1.072514534E1,-4.952467442E0,2.777018655E1
1.215892695E1,2.924550819E1,1.381921005E1,-4.417150497E0,3.264630966E1
1.217827509E1,3.195166779E1,1.429638672E1,-3.472013474E0,3.517599501E1
1.219765375E1,3.298149109E1,1.504501438E1,-2.831090689E0,3.636132955E1
1.221700190E1,3.158473587E1,1.432847214E1,-2.850617886E0,3.479980856E1
1.223638056E1,2.678197479E1,1.057420063E1,-2.964349747E0,2.894607507E1
1.225575922E1,2.023462296E1,4.559852600E0,-3.032497406E0,2.096254427E1
1.227513788E1,1.352848434E1,-2.520637512E0,-2.561769724E0,1.399772004E1
1.229451654E1,8.418286324E0,-8.019621849E0,-2.090114355E0,1.181314764E1
1.231386469E1,5.792959690E0,-9.897380829E0,-1.575274706E0,1.157575136E1
1.233324335E1,4.773213387E0,-1.010958672E1,-8.937907219E-1,1.121544344E1
1.235262201E1,4.661236763E0,-1.019177341E1,-5.094875097E-1,1.121868758E1
1.237197016E1,4.897331238E0,-1.038699818E1,-7.723208666E-1,1.150956402E1
1.239134882E1,4.839772224E0,-1.017224312E1,-6.464388371E-1,1.128343070E1
1.241069696E1,4.255580425E0,-9.559206963E0,-4.948205948E-1,1.047536395E1
1.243007563E1,3.434413910E0,-9.394353867E0,-9.706888199E-1,1.004944378E1
1.244942377E1,3.013208866E0,-9.250248909E0,-1.799967170E0,9.893756332E0
1.246880243E1,3.087181091E0,-8.919335365E0,-2.235015869E0,9.699511657E0
1.248818110E1,3.440266371E0,-8.242169380E0,-2.335477352E0,9.231643584E0
1.250752924E1,3.858200312E0,-7.747125626E0,-2.325922966E0,8.961784574E0
1.252690790E1,4.057454109E0,-7.690592766E0,-2.457635880E0,9.035935206E0
1.254628656E1,4.174093246E0,-7.744482040E0,-2.735227823E0,9.213117157E0
1.256566523E1,4.340583801E0,-7.646981239E0,-3.012035370E0,9.294586967E0
1.258504389E1,4.544219017E0,-7.538211823E0,-3.103301048E0,9.333008162E0
1.260439203E1,5.139846802E0,-6.973433495E0,-3.145741463E0,9.216424968E0
1.262377070E1,7.516799927E0,-4.415885925E0,-2.941498518E0,9.200801225E0
1.264314936E1,1.252830791E1,1.457184792E0,-2.572323799E0,1.287240212E1
1.266249750E1,1.818057060E1,7.568909645E0,-1.806756735E0,1.977589216E1
1.268187616E1,2.304141617E1,1.320200157E1,-9.845269918E-1,2.657384048E1
1.270122431E1,2.902945709E1,1.894788361E1,-1.908197403E0,3.471848052E1
1.272060297E1,2.988254929E1,1.323284054E1,-3.080211639E0,3.282624749E1
1.273998163E1,3.097777176E1,9.648833275E0,-3.142226219E0,3.259748322E1
1.275932978E1,2.922079468E1,6.292716026E0,-2.618362427E0,3.000514853E1
1.277870844E1,2.297587967E1,9.374427795E-2,-2.523005486E0,2.311418160E1
1.279808710E1,1.628566551E1,-5.026022911E0,-2.889785767E0,1.728683514E1
1.281743525E1,1.171931076E1,-8.702258110E0,-3.119118690E0,1.492650134E1
1.283681391E1,8.886636734E0,-1.098027039E1,-3.191586733E0,1.448188096E1
1.285619257E1,7.299076557E0,-1.218026352E1,-2.901826620E0,1.449330658E1
1.287557123E1,6.123861313E0,-1.261642456E1,-2.697769642E0,1.428123969E1
1.289494989E1,5.591464520E0,-1.261802673E1,-2.711522818E0,1.406525613E1
1.291429804E1,5.709083557E0,-1.192252064E1,-2.824424505E0,1.351730399E1
1.293367670E1,5.767049789E0,-1.097321701E1,-3.122697830E0,1.278364567E1
1.295302485E1,5.725584507E0,-1.043468666E1,-3.888200045E0,1.252130597E1
1.297240351E1,6.028497219E0,-9.845065117E0,-4.392831802E0,1.235172284E1
1.299178217E1,6.460807800E0,-9.284574509E0,-4.641850948E0,1.222669790E1
1.301113031E1,6.966938972E0,-8.741355896E0,-4.633450508E0,1.210034732E1
1.303050898E1,7.604846954E0,-7.925878525E0,-4.531563759E0,1.188226905E1
1.304985712E1,9.432895660E0,-6.066890717E0,-4.596901894E0,1.212098142E1
1.306923578E1,1.598447800E1,-9.186744690E-3,-4.375010967E0,1.657239700E1
1.308861445E1,2.540520287E1,8.305320740E0,-4.015306473E0,2.702823286E1
1.310796259E1,2.965540123E1,1.083874702E1,-4.322306633E0,3.186853611E1
1.312734125E1,3.369456100E1,1.237536621E1,-3.643298149E0,3.607972771E1
1.314671991E1,3.668511581E1,1.350843716E1,-2.298375607E0,3.916067067E1
1.316609858E1,3.465839005E1,1.230477715E1,-1.389304161E0,3.680409905E1
1.318547724E1,2.955439377E1,8.849058151E0,-3.503239155E-1,3.085272675E1
1.320482538E1,2.253627777E1,3.573678970E0,-7.507205009E-2,2.281798924E1
1.322420404E1,1.537783718E1,-2.915454865E0,6.447958946E-1,1.566504118E1
1.324355219E1,9.051664352E0,-7.872455597E0,7.521466017E-1,1.201973000E1
1.326293085E1,4.613897800E0,-1.130747032E1,6.515686512E-1,1.222994193E1
1.328230951E1,2.499588251E0,-1.277058697E1,7.853165865E-1,1.303658525E1
1.330165766E1,2.130748749E0,-1.253445625E1,4.205653667E-1,1.272122475E1
1.332103632E1,2.857139111E0,-1.102197933E1,7.298606634E-2,1.138650953E1
1.334038446E1,3.613085747E0,-9.471250534E0,6.250381470E-3,1.013701210E1
1.335976313E1,3.740413666E0,-8.065391541E0,1.750944853E-1,8.892237805E0
1.337914179E1,3.280243158E0,-7.001465797E0,2.308872938E-1,7.735232862E0
1.339848993E1,2.854342461E0,-6.690434456E0,-5.119181871E-1,7.291861513E0
1.341786860E1,3.109634638E0,-6.723626137E0,-1.252802491E0,7.513087920E0
1.343724726E1,3.528437853E0,-6.900283813E0,-1.489502549E0,7.891920440E0
1.345662592E1,3.669071674E0,-7.323949814E0,-1.415629983E0,8.313022078E0
1.347600458E1,3.291332960E0,-7.821144104E0,-1.194423437E0,8.569119855E0
1.349535273E1,2.843499184E0,-8.234706879E0,-1.181636572E0,8.791595417E0
1.351473139E1,2.719424248E0,-8.295548439E0,-1.263143897E0,8.820823354E0
1.353407953E1,2.801943779E0,-8.235633850E0,-1.213864565E0,8.783508470E0
1.355345820E1,2.923894644E0,-7.982835770E0,-7.309609056E-1,8.532826651E0
1.357283686E1,4.277758598E0,-6.621050835E0,-3.250036240E-1,7.889433448E0
1.359218500E1,8.674510956E0,-2.678175926E0,3.838546872E-1,9.086644652E0
1.361156366E1,1.519746304E1,2.408539772E0,1.070046186E0,1.542429724E1
1.363091181E1,2.060271072E1,6.308001518E0,1.293049335E0,2.158551711E1
1.365029047E1,2.810117340E1,1.248476601E1,2.196027040E-1,3.075050494E1
1.366966913E1,3.320362473E1,1.476867771E1,-6.842558980E-1,3.634642682E1
1.368901728E1,3.216022491E1,9.845076561E0,-3.486140370E-1,3.363520672E1
1.370842646E1,2.874813080E1,4.368110657E0,6.770851016E-1,2.908597358E1
1.372780512E1,2.387896729E1,6.190404892E-1,9.609892964E-1,2.390631277E1
1.374715326E1,1.800929070E1,-3.606031418E0,1.020250559E0,1.839507883E1
1.376653192E1,1.317576599E1,-7.780973434E0,5.945602655E-1,1.531332292E1
1.378588007E1,9.918846130E0,-1.057128429E1,6.069732457E-2,1.449618034E1
1.380525873E1,7.900483131E0,-1.188708687E1,-3.779310584E-1,1.427807059E1
1.382463739E1,6.648696899E0,-1.240399551E1,-5.782709718E-1,1.408540637E1
1.384398554E1,6.065242767E0,-1.242471218E1,-8.970229030E-1,1.385515401E1
1.386336420E1,5.768339634E0,-1.207335567E1,-1.217682838E0,1.343586286E1
1.388271235E1,5.595599651E0,-1.173679638E1,-1.645237446E0,1.310610281E1
1.390209101E1,5.533940315E0,-1.133892918E1,-2.180137634E0,1.280424970E1
1.392146967E1,5.591208935E0,-1.086343288E1,-2.692527771E0,1.251101503E1
1.394081781E1,5.813100815E0,-1.029757690E1,-3.063007832E0,1.221532841E1
1.396019648E1,6.176355362E0,-9.759528160E0,-3.286122322E0,1.200809541E1
1.397954462E1,6.712784767E0,-9.183641434E0,-3.419199944E0,1.187820178E1
1.399895380E1,7.637629032E0,-8.562457085E0,-3.526856899E0,1.200365645E1
1.401833246E1,9.890113831E0,-6.899689674E0,-3.575499058E0,1.257792760E1
1.403768061E1,1.689930344E1,-1.080923080E-1,-3.256150484E0,1.721048101E1
1.405705927E1,2.604316139E1,8.990148544E0,-3.359778166E0,2.775530824E1
1.407640741E1,3.116146851E1,1.212321377E1,-3.341510296E0,3.360320108E1
1.409578608E1,3.479511261E1,1.371113968E1,-1.113629818E0,3.741571039E1
1.411516474E1,3.669244003E1,1.449246502E1,7.684007883E-1,3.945829618E1
1.413451288E1,3.474412537E1,1.488984871E1,2.055000305E0,3.785610741E1
1.415389154E1,2.840610504E1,1.250284958E1,2.934580564E0,3.117434545E1
1.417323969E1,1.970787239E1,6.758642197E0,4.079730511E0,2.123025387E1
1.419261835E1,1.085906792E1,-1.414313316E0,4.388645649E0,1.179745095E1
1.421199701E1,4.481523037E0,-7.632526398E0,4.511244297E0,9.934325999E0
1.423134516E1,2.032888412E0,-1.049980259E1,5.071257591E0,1.183622166E1
1.425072382E1,2.236254454E0,-1.137216854E1,4.673807621E0,1.249686077E1
1.427007196E1,3.721611261E0,-1.066204643E1,4.041559219E0,1.199432472E1
1.428948114E1,4.210332870E0,-9.902293205E0,3.783978462E0,1.140617406E1
1.430885981E1,3.909645319E0,-9.636634827E0,3.469376326E0,1.096296627E1
1.432820795E1,3.185029030E0,-9.784173965E0,3.034211397E0,1.072757703E1
1.434758661E1,2.459196806E0,-9.682817459E0,2.893631697E0,1.040085128E1
1.436693476E1,1.963165998E0,-9.444332123E0,2.800431728E0,1.004449341E1
1.438631342E1,1.513557911E0,-9.008806229E0,2.479548216E0,9.465601226E0
1.440569208E1,1.481191635E0,-8.585498810E0,2.145763636E0,8.972681876E0
1.442504023E1,1.509253979E0,-8.051056862E0,2.085780859E0,8.452682767E0
1.444441889E1,1.524616241E0,-7.511039734E0,1.765683174E0,7.864973594E0
1.446376703E1,1.360423326E0,-7.172305107E0,1.235772371E0,7.404042513E0
1.448314570E1,1.175294638E0,-6.690127373E0,6.445238590E-1,6.823088212E0
1.450252436E1,1.385648012E0,-5.773952484E0,1.254945993E-1,5.939216834E0
1.452187250E1,2.128794670E0,-4.506717682E0,-1.751837730E-1,4.987279856E0
1.454125116E1,5.337907314E0,-1.625619888E0,-2.309139967E-1,5.584730593E0
1.456062983E1,1.079121590E1,2.103737831E0,7.137135267E-1,1.101750609E1
1.458000849E1,1.632748795E1,4.271401405E0,1.907027364E0,1.698436004E1
1.459941767E1,2.286769867E1,8.739933014E0,1.837961674E0,2.454987117E1
1.461873529E1,3.033406639E1,1.416531944E1,2.991733551E-1,3.347986504E1
1.463811396E1,3.298112106E1,1.210443115E1,5.842804909E-2,3.513225034E1
1.465746210E1,3.129157639E1,7.669192314E0,-2.807703018E-1,3.221890897E1
1.467684076E1,2.758962250E1,2.689042091E0,-1.841966152E0,2.778148765E1
1.469621942E1,2.203000641E1,-2.290845871E0,-2.215464354E0,2.225932253E1
1.471556757E1,1.593340874E1,-6.464705467E0,-2.230628729E0,1.733902060E1
1.473494623E1,1.158819199E1,-9.766508102E0,-1.576984167E0,1.523672383E1
1.475432489E1,8.779092789E0,-1.145730877E1,-1.102375269E0,1.447610533E1
1.477367304E1,6.883649349E0,-1.266930771E1,-8.643224239E-1,1.444448128E1
1.479305170E1,6.189564705E0,-1.278167915E1,-7.068355083E-1,1.421905938E1
1.481239985E1,5.848076820E0,-1.263276291E1,-5.037313700E-1,1.392984015E1
1.483177851E1,5.811415195E0,-1.230839348E1,-4.316372871E-1,1.361820133E1
1.485115717E1,5.670143127E0,-1.178074455E1,-5.416881442E-1,1.308548399E1
1.487053583E1,5.476205826E0,-1.106470108E1,-1.007572412E0,1.238675270E1
1.488991449E1,5.517676353E0,-1.044999409E1,-1.407328963E0,1.190074382E1
1.490926264E1,5.744049072E0,-9.833051682E0,-1.533487558E0,1.149063050E1
1.492864130E1,6.128465652E0,-9.182790756E0,-1.389681339E0,1.112712683E1
1.494801996E1,6.877832413E0,-8.342030525E0,-1.204670548E0,1.087866183E1
1.496736811E1,1.012869358E1,-5.158814430E0,-1.490557671E0,1.146409884E1
1.498674677E1,1.886716270E1,2.888896942E0,-2.551943302E0,1.925689406E1
1.500609491E1,2.722949982E1,1.259841728E1,-3.089519739E0,3.016141427E1
1.502547358E1,2.929904175E1,1.404614925E1,-3.196639061E0,3.264883853E1
1.504485224E1,3.246913147E1,1.414492130E1,-2.381395578E0,3.549639900E1
1.506420038E1,3.313641739E1,1.442614555E1,-1.638183594E0,3.617761018E1
1.508357904E1,3.117815018E1,1.345484543E1,-1.089548826E0,3.397494710E1
1.510292719E1,2.650528526E1,9.395096779E0,-3.522254229E-1,2.812333645E1
1.512230585E1,1.961565399E1,3.325387001E0,3.004176617E-1,1.989779714E1
1.514171503E1,1.235934830E1,-3.845018387E0,8.009344935E-1,1.296839052E1
1.516106318E1,6.856331348E0,-9.459364891E0,1.563257933E0,1.178696904E1
1.518044184E1,4.130561829E0,-1.166757870E1,2.291304827E0,1.258745453E1
1.519978998E1,3.087234974E0,-1.200709629E1,2.827293634E0,1.271593372E1
1.521916864E1,2.953473806E0,-1.135787106E1,2.570061207E0,1.201371953E1
1.523851679E1,2.827836275E0,-1.083627510E1,1.968301296E0,1.137082785E1
1.525789545E1,2.305491209E0,-9.865933418E0,2.014405251E0,1.033004165E1
1.527727411E1,1.117440701E0,-9.260174751E0,2.294791698E0,9.605497337E0
1.529662226E1,2.704458237E-1,-8.918795586E0,1.842381358E0,9.111115448E0
1.531600092E1,1.280317307E-1,-8.171382904E0,1.122894645E0,8.249168629E0
1.533537958E1,7.103941441E-1,-7.095733643E0,9.254426956E-1,7.191004099E0
1.535472773E1,1.264428377E0,-6.271417618E0,8.371583223E-1,6.452154068E0
1.537410639E1,1.352050662E0,-6.228684425E0,7.905577421E-1,6.422579872E0
1.539345453E1,1.199386716E0,-6.712804794E0,6.704254150E-1,6.851988539E0
1.541283320E1,1.000018120E0,-7.336403847E0,7.816345692E-1,7.445388522E0
1.543224238E1,7.788075209E-1,-8.053261757E0,1.196772099E0,8.178864807E0
1.545159052E1,7.594180107E-1,-8.520280838E0,1.770282269E0,8.735319146E0
1.547096918E1,1.036270499E0,-8.639916420E0,2.249859095E0,8.987985216E0
1.549031733E1,3.157629490E0,-7.358657837E0,2.417626381E0,8.364531456E0
1.550969599E1,9.283383369E0,-2.200485229E0,2.171865940E0,9.784699469E0
1.552910517E1,1.582070255E1,3.213015556E0,1.988320351E0,1.626565449E1
1.554842279E1,2.155929184E1,6.842266083E0,2.394710779E0,2.274542392E1
1.556780146E1,2.804322815E1,1.334245110E1,1.014819860E0,3.107206954E1
1.558714960E1,3.084638786E1,1.354587650E1,-6.617105007E-1,3.369611662E1
1.560652826E1,3.228504181E1,1.054136276E1,-6.470944881E-1,3.396855877E1
1.562590692E1,3.082969284E1,8.247199059E0,1.602178812E-1,3.191413359E1
1.564525507E1,2.506896019E1,4.676626205E0,4.710717201E-1,2.550579358E1
1.566463373E1,1.802014160E1,3.491783142E-2,-1.871097088E-1,1.802114682E1
1.568398188E1,1.240011311E1,-4.559696198E0,-1.149495125E0,1.326178621E1
1.570336054E1,8.645227432E0,-8.360294342E0,-1.680866718E0,1.214330234E1
1.572276972E1,6.760030746E0,-1.048604202E1,-1.608223319E0,1.257940679E1
1.574211786E1,5.882261276E0,-1.173661900E1,-1.352947354E0,1.319771532E1
1.576152704E1,5.474418640E0,-1.243662453E1,-1.071387172E0,1.363036168E1
1.578087519E1,5.463067055E0,-1.262776375E1,-7.296184301E-1,1.377816613E1
1.580022333E1,5.537602425E0,-1.255480766E1,-8.401003480E-1,1.374750903E1
1.581960199E1,5.609129429E0,-1.222237587E1,-9.190338850E-1,1.347937047E1
1.583895014E1,5.248974800E0,-1.197127342E1,-1.328895450E0,1.313883887E1
1.585832880E1,4.753834248E0,-1.175902843E1,-1.736803532E0,1.280195986E1
1.587770746E1,4.549899101E0,-1.124776936E1,-2.063093662E0,1.230732517E1
1.589705561E1,4.525482655E0,-1.069115543E1,-2.417965889E0,1.185864060E1
1.591643427E1,4.799641609E0,-1.033115578E1,-2.618773222E0,1.168876865E1
1.593578241E1,5.552172661E0,-9.977807999E0,-2.739604950E0,1.174260231E1
1.595516108E1,8.304615974E0,-8.125291824E0,-2.879323483E0,1.196985871E1
1.597453974E1,1.584995842E1,-1.557544708E0,-3.587192535E0,1.632528951E1
1.599388788E1,2.602885056E1,6.105534554E0,-5.407592773E0,2.727674235E1
1.601329706E1,3.251473236E1,8.561149597E0,-6.024153709E0,3.415833033E1
1.603264521E1,3.722201157E1,1.167186069E1,-3.661161661E0,3.918053830E1
1.605202387E1,3.491543961E1,1.072316933E1,-1.899531484E0,3.657434214E1
1.607140253E1,2.889744186E1,8.729281425E0,-1.005750060E0,3.020387448E1
1.609075068E1,2.228469467E1,5.870595932E0,-3.446705043E-1,2.304756627E1
1.611012934E1,1.644388962E1,1.904988289E0,-3.679989278E-1,1.655795607E1
1.612947748E1,1.206721210E1,-1.854988098E0,-4.279324114E-1,1.221645263E1
1.614885614E1,8.482599258E0,-5.375360489E0,-2.085307240E-1,1.004452466E1
1.616823481E1,5.188975334E0,-8.131267548E0,2.892282605E-1,9.650213984E0
1.618758295E1,2.908631325E0,-9.524965286E0,4.209671617E-1,9.968064669E0
1.620696161E1,1.332252502E0,-9.818037987E0,5.663923025E-1,9.924190994E0
1.622630976E1,4.724458456E-1,-1.006246567E1,7.126463652E-1,1.009872691E1
1.624568842E1,2.065740824E-1,-1.009029388E1,5.732135773E-1,1.010867337E1
1.626506708E1,3.539866209E-2,-9.743249893E0,6.231647134E-1,9.763222102E0
1.628444574E1,-3.128821850E-1,-9.292152405E0,5.885186195E-1,9.316026285E0
1.630382441E1,-6.836646199E-1,-9.208084106E0,1.818227768E-2,9.233446855E0
1.632317255E1,-1.062393546E0,-9.108748436E0,-8.921300769E-1,9.213787180E0
1.634255121E1,-1.502592206E0,-8.894213676E0,-1.875076056E0,9.213073888E0
1.636192988E1,-1.223764658E0,-8.680234909E0,-2.344028473E0,9.074059042E0
1.638127802E1,-5.676627755E-1,-8.319555283E0,-2.164260149E0,8.615176325E0
1.640065668E1,4.644817114E-2,-8.083724022E0,-1.613739491E0,8.243355302E0
1.642000483E1,6.067283154E-1,-7.986011505E0,-1.035623312E0,8.075705211E0
1.643938349E1,1.539695740E0,-7.494178772E0,-3.901881576E-1,7.660654361E0
1.645879267E1,3.225700855E0,-6.156759262E0,-3.679253161E-2,6.950696678E0
1.647811029E1,5.815255642E0,-3.579553604E0,8.344502449E-1,6.879441067E0
1.649748896E1,9.195029259E0,1.006329536E0,1.221675038E0,9.330260023E0
1.651683710E1,1.296444130E1,5.326086998E0,1.216392875E0,1.406853058E1
1.653621576E1,2.060977936E1,1.137451935E1,5.328825116E-1,2.354626636E1
1.655559443E1,2.654703712E1,1.445940685E1,-2.652559280E0,3.034560425E1
1.657497309E1,3.143105698E1,1.135847664E1,-4.162613869E0,3.367868300E1
1.659435175E1,3.439008331E1,7.842281342E0,-4.292170525E0,3.553311040E1
1.661369989E1,3.233133698E1,4.368745804E0,-4.250231743E0,3.290084741E1
1.663307856E1,2.483622932E1,-8.661632538E-1,-5.220536232E0,2.539374971E1
1.665245722E1,1.735579491E1,-6.025413513E0,-6.009807587E0,1.932995117E1
1.667180536E1,1.168052387E1,-9.898929596E0,-6.049367905E0,1.646263336E1
1.669121454E1,7.791069984E0,-1.171503925E1,-5.672454834E0,1.516969545E1
1.671053217E1,5.595977783E0,-1.264844799E1,-4.868030548E0,1.466273935E1
1.672991083E1,5.114904881E0,-1.236624622E1,-4.133828640E0,1.400624278E1
1.674928949E1,5.603183746E0,-1.193287563E1,-3.704540730E0,1.369353172E1
1.676863764E1,6.228444576E0,-1.152704334E1,-3.831347466E0,1.365084149E1
1.678801630E1,6.549580574E0,-1.105038166E1,-4.021920204E0,1.346045254E1
1.680739496E1,6.378463268E0,-1.084918308E1,-4.250966072E0,1.328383528E1
1.682674311E1,5.745564938E0,-1.078907204E1,-4.725684166E0,1.310525401E1
1.684612177E1,5.188973427E0,-1.054667377E1,-5.126173019E0,1.282323761E1
1.686550043E1,5.166270256E0,-9.987329483E0,-5.407206535E0,1.247697804E1
1.688487909E1,5.593505859E0,-9.056483269E0,-5.473490715E0,1.196939003E1
1.690425776E1,6.348280907E0,-7.963203430E0,-5.366299629E0,1.151131839E1
1.692363642E1,8.564057350E0,-5.778484344E0,-5.559766769E0,1.173221915E1
1.694298456E1,1.527546787E1,2.831506729E-1,-5.589673042E0,1.626851369E1
1.696233271E1,2.373317909E1,6.401702881E0,-6.522489071E0,2.543203596E1
1.698171137E1,3.126595879E1,1.265646362E1,-7.774652004E0,3.461490234E1
1.700109003E1,3.698782349E1,1.755942917E1,-4.996016502E0,4.124794322E1
1.702043818E1,3.585409546E1,1.643422890E1,-3.431731462E-1,3.944258876E1
1.703981684E1,3.074354744E1,1.629329300E1,3.888771772E0,3.501085049E1
1.705916498E1,2.367842293E1,1.393298912E1,4.689634800E0,2.787092702E1
1.707854364E1,1.546215630E1,7.956332207E0,3.041472435E0,1.765310324E1
1.709792231E1,9.089045525E0,8.457288742E-1,9.195719361E-1,9.174509165E0
1.711727045E1,5.206274033E0,-4.968533516E0,-2.404900789E-1,7.200656226E0
1.713664911E1,3.187633991E0,-8.115969658E0,-6.094945073E-1,8.740792727E0
1.715605829E1,2.325432539E0,-9.102278709E0,2.140227109E-1,9.397069752E0
1.717540644E1,2.066544771E0,-9.549073219E0,1.216316938E0,9.845548920E0
1.719478510E1,1.926504850E0,-9.910873413E0,1.841630697E0,1.026296431E1
1.721413324E1,1.932204723E0,-1.011175919E1,2.049582481E0,1.049675556E1
1.723351191E1,1.622950912E0,-1.003030682E1,2.222409010E0,1.040096757E1
1.725286005E1,9.493976831E-1,-9.952420235E0,1.976657867E0,1.019113344E1
1.727223871E1,3.460594416E-1,-9.727574348E0,1.628512979E0,9.869017903E0
1.729161738E1,-2.333577871E-1,-9.583852768E0,1.042918205E0,9.643255058E0
1.731096552E1,-8.617655039E-1,-9.497913361E0,8.322172761E-1,9.573169986E0
1.733034418E1,-1.300896287E0,-9.512003899E0,7.605565190E-1,9.630627993E0
1.734969233E1,-1.569154739E0,-9.692628860E0,6.799275279E-1,9.842337236E0
1.736907099E1,-1.613268256E0,-9.775578499E0,4.480838776E-1,9.917930662E0
1.738848017E1,-1.405001640E0,-9.701854706E0,1.121779680E-1,9.803703292E0
1.740779779E1,-8.504773378E-1,-9.296158791E0,-2.359859347E-1,9.337963875E0
1.742717646E1,-2.532815933E-2,-8.565838814E0,-4.582502544E-1,8.578125051E0
1.744655512E1,1.538238883E0,-7.098698616E0,-8.780185580E-1,7.316325409E0
1.746593378E1,4.944244862E0,-3.113162994E0,-1.378548622E0,6.003143958E0
1.748531244E1,1.083697891E1,4.424332619E0,-1.885766268E0,1.185626187E1
1.750466059E1,1.690829849E1,1.046669006E1,-1.954625726E0,1.998155951E1
1.752403925E1,2.405707741E1,1.706493378E1,-1.863939762E0,2.955383579E1
1.754338739E1,2.794768333E1,1.596319103E1,-2.725693226E0,3.230055534E1
1.756276606E1,2.865950012E1,1.140793800E1,-3.862706900E0,3.108743317E1
1.758214472E1,2.870830536E1,7.755035400E0,-5.634087086E0,3.026632300E1
1.760149286E1,2.590441513E1,3.521085739E0,-5.583527565E0,2.673223799E1
1.762090204E1,2.073438072E1,-1.241576195E0,-5.349013805E0,2.144919588E1
1.764021967E1,1.573277092E1,-5.210559845E0,-4.734707355E0,1.723622547E1
1.765959833E1,1.156040192E1,-8.012219429E0,-3.625289679E0,1.452519459E1
1.767897699E1,9.323394775E0,-9.938997269E0,-2.259342909E0,1.381354362E1
1.769832514E1,7.447402954E0,-1.149483681E1,-1.070587397E0,1.373831290E1
1.771773432E1,5.686399460E0,-1.276988029E1,-9.486606121E-1,1.401088643E1
1.773708246E1,4.980633259E0,-1.287338257E1,-1.586662769E0,1.389417810E1
1.775646112E1,5.067060947E0,-1.230942345E1,-2.376616240E0,1.352203080E1
1.777583979E1,5.162854195E0,-1.211244011E1,-2.693660975E0,1.343957136E1
1.779518793E1,5.008666039E0,-1.203861713E1,-2.950793266E0,1.336870296E1
1.781456659E1,5.121134758E0,-1.153558731E1,-3.021196127E0,1.297780497E1
1.783391474E1,5.432366371E0,-1.075959110E1,-3.477845907E0,1.254491201E1
1.785332392E1,6.000677109E0,-9.836349487E0,-3.871696472E0,1.215532519E1
1.787267206E1,6.874791145E0,-8.814023018E0,-4.103776932E0,1.190759170E1
1.789202021E1,9.604979515E0,-6.135081291E0,-4.631057739E0,1.230209534E1
1.791139887E1,1.740345764E1,1.372013092E0,-5.862556458E0,1.841554577E1
1.793074701E1,2.740121078E1,1.152560043E1,-7.437583447E0,3.064283710E1
1.795012568E1,3.072470856E1,1.590795422E1,-8.929978371E0,3.573255150E1
1.796950434E1,3.166802216E1,1.434530067E1,-7.863247395E0,3.564382048E1
1.798885248E1,2.981552505E1,1.395494652E1,-6.643353462E0,3.358333235E1
1.800826166E1,2.575485992E1,1.217934132E1,-5.795897007E0,2.907303883E1
1.802764032E1,2.109519577E1,8.681718826E0,-2.371783018E0,2.293479629E1
1.804698847E1,1.683460236E1,3.094578743E0,8.116861582E-1,1.713590057E1
1.806636713E1,1.266594791E1,-2.569668770E0,2.106860638E0,1.309459033E1
1.808574579E1,8.260334969E0,-7.353693008E0,2.282149792E0,1.129239312E1
1.810509394E1,5.208971024E0,-9.651570320E0,1.844969511E0,1.112160516E1
1.812447260E1,2.993750095E0,-1.006731606E1,1.713758230E0,1.064191522E1
1.814382074E1,8.778007030E-1,-9.490424156E0,1.038866401E0,9.587383800E0
1.816319941E1,-5.499854088E-1,-9.611423492E0,9.818060398E-1,9.677080583E0
1.818254755E1,-9.188071489E-1,-9.945535660E0,9.759626985E-1,1.003545661E1
1.820192621E1,-8.551026583E-1,-9.765267372E0,7.065420151E-1,9.828064358E0
1.822130488E1,-4.372878075E-1,-9.056888580E0,3.758327961E-1,9.075224607E0
1.824065302E1,1.379277706E-1,-8.226677895E0,7.177662849E-2,8.228147127E0
1.826003168E1,6.524295807E-1,-7.799851418E0,-2.250925303E-1,7.830326503E0
1.827941034E1,9.671779871E-1,-7.823839188E0,-4.376757145E-1,7.895533733E0
1.829878900E1,1.077830195E0,-7.911229134E0,-4.808913469E-1,7.998782459E0
1.831816767E1,9.376468658E-1,-7.918800354E0,2.610015869E-2,7.974162145E0
1.833751581E1,4.820176363E-1,-8.060222626E0,6.813615561E-1,8.103319280E0
1.835689447E1,1.871049404E-2,-8.175195694E0,1.033863187E0,8.240330564E0
1.837624262E1,-2.350803614E-1,-8.267351151E0,9.058320522E-1,8.320149610E0
1.839562128E1,3.992903233E-2,-7.882521629E0,8.426892757E-1,7.927538507E0
1.841499994E1,1.906073451E0,-5.528047562E0,8.272422552E-1,5.905654544E0
1.843434809E1,5.961608410E0,-5.177869797E-1,3.671569824E-1,5.995305033E0
1.845372675E1,1.133651924E1,5.117581367E0,-9.451448917E-2,1.243845813E1
1.847307489E1,1.859285927E1,1.230694103E1,-3.137282133E-1,2.229918471E1
1.849245356E1,2.286536598E1,1.339802933E1,-1.832397342E0,2.656482319E1
1.851183222E1,2.799941635E1,1.143942261E1,-2.404491901E0,3.034154391E1
1.853118036E1,3.120359039E1,9.199658394E0,-2.468259096E0,3.262499151E1
1.855058954E1,3.009292221E1,5.201996803E0,-3.315637350E0,3.071869445E1
1.856995839E1,2.462301445E1,2.652206421E-1,-3.641832113E0,2.489229045E1
1.858933705E1,1.884082413E1,-4.413121223E0,-3.063787222E0,1.959181168E1
1.860871571E1,1.471173286E1,-8.086469650E0,-2.273852348E0,1.694097045E1
1.862806386E1,1.179217720E1,-1.092060471E1,-1.027216434E0,1.610497513E1
1.864744252E1,8.902173042E0,-1.271271420E1,-3.916919827E-1,1.552466456E1
1.866679066E1,6.314956188E0,-1.355138206E1,-4.817235470E-1,1.495829820E1
1.868616932E1,4.268403053E0,-1.384521961E1,-1.125469446E0,1.453189775E1
1.870554799E1,3.291548014E0,-1.358837414E1,-2.054568291E0,1.413150561E1
1.872489613E1,3.081331730E0,-1.310478687E1,-2.988704681E0,1.378993836E1
1.874427479E1,3.131417036E0,-1.268274975E1,-3.964095116E0,1.365181174E1
1.876362294E1,3.400053978E0,-1.240010262E1,-4.816852570E0,1.373043993E1
1.878303212E1,4.047339916E0,-1.187224579E1,-5.179610252E0,1.357053952E1
1.880238026E1,5.063722610E0,-1.104000092E1,-5.223311424E0,1.322141782E1
1.882172841E1,6.363170624E0,-9.981279373E0,-5.267579556E0,1.295620595E1
1.884110707E1,7.959475994E0,-8.961227417E0,-5.257781982E0,1.308820562E1
1.886048573E1,1.079377556E1,-6.831354141E0,-5.431554317E0,1.388073386E1
1.887986439E1,1.722895050E1,-1.312862396E0,-5.803554535E0,1.822749539E1
1.889924306E1,2.461517334E1,4.870198250E0,-6.158822536E0,2.583711835E1
1.891859120E1,3.206959152E1,9.815012932E0,-6.421861649E0,3.414723248E1
1.893796986E1,3.691822052E1,1.307055569E1,-4.426999569E0,3.941310388E1
1.895731801E1,3.585173416E1,1.372864819E1,-2.407070160E0,3.846578493E1
1.897669667E1,3.092764854E1,1.426430035E1,-5.179408789E-1,3.406255967E1
1.899607533E1,2.355161476E1,1.272332668E1,5.289884210E-1,2.677389453E1
1.901545399E1,1.422952461E1,7.573993683E0,9.667840600E-1,1.614866627E1
1.903480214E1,7.520468235E0,1.770680428E0,1.297334671E0,7.834272710E0
1.905415028E1,2.994579315E0,-3.076747894E0,1.713816166E0,4.622883162E0
1.907352894E1,4.841130972E-2,-6.367544174E0,1.801134348E0,6.617555999E0
1.909290761E1,-1.453104973E0,-8.375615120E0,2.198494673E0,8.780422628E0
1.911225575E1,-1.910729885E0,-9.126587868E0,3.445674181E0,9.940732637E0
1.913163441E1,-2.046978712E0,-9.793041229E0,3.871813297E0,1.072775450E1
1.915101308E1,-1.645311356E0,-9.953956604E0,3.989338636E0,1.084910707E1
1.917039174E1,-9.918265939E-1,-9.648972511E0,4.139322281E0,1.054610731E1
1.918977040E1,-3.889802694E-1,-9.291231155E0,3.731663227E0,1.002015930E1
1.920911854E1,2.898371220E-2,-8.988225937E0,2.997323036E0,9.474860998E0
1.922849720E1,2.156010866E-1,-8.878973007E0,1.925145149E0,9.087839641E0
1.924787587E1,2.617055178E-1,-8.789875984E0,6.138997078E-1,8.815173421E0
1.926722401E1,2.364736795E-1,-8.755470276E0,-5.594286919E-1,8.776510697E0
1.928660267E1,1.244268417E-1,-8.864570618E0,-1.401157022E0,8.975485239E0
1.930595082E1,-4.019492865E-2,-8.918766022E0,-1.905006886E0,9.120035867E0
1.932532948E1,-1.167888641E-1,-9.013244629E0,-2.466509342E0,9.345367126E0
1.934470814E1,1.840147376E-1,-8.683276176E0,-2.717758417E0,9.100514128E0
1.936405629E1,9.536935091E-1,-7.850769997E0,-2.569669247E0,8.315486810E0
1.938343495E1,2.466829538E0,-6.050207138E0,-2.121340752E0,6.869522616E0
1.940278309E1,6.642590523E0,-1.192158699E0,2.481880784E-1,6.753284278E0
1.942216176E1,1.221664047E1,3.444980621E0,1.666254640E0,1.280197643E1
1.944157094E1,1.679881477E1,7.188710213E0,7.829780579E-1,1.828908929E1
1.946091908E1,2.308372879E1,1.424925613E1,-2.444995165E0,2.723743447E1
1.948029774E1,2.706812859E1,1.295677853E1,-2.822670221E0,3.014181750E1
1.949964589E1,2.954920006E1,1.272909737E1,-3.170528889E0,3.233013141E1
1.951902455E1,2.786712265E1,9.316436768E0,-3.782655954E0,2.962568151E1
1.953840321E1,2.308041382E1,4.706966400E0,-4.988277435E0,2.407787255E1
1.955775136E1,1.753402901E1,-7.597618103E-1,-4.833954811E0,1.820402511E1
1.957713002E1,1.336700630E1,-5.389787674E0,-4.011312008E0,1.496052448E1
1.959647816E1,1.056667709E1,-9.074177742E0,-2.430464745E0,1.413868896E1
1.961585682E1,8.062614441E0,-1.125900459E1,-1.361331105E0,1.391488981E1
1.963523549E1,6.226611137E0,-1.242788410E1,-8.128027916E-1,1.392421049E1
1.965458363E1,4.884829044E0,-1.309484577E1,-9.160066843E-1,1.400627034E1
1.967396229E1,4.254135132E0,-1.307799149E1,-1.264841199E0,1.381055214E1
1.969331044E1,4.176342964E0,-1.264645290E1,-1.724504709E0,1.342939046E1
1.971271962E1,4.218674660E0,-1.220856285E1,-2.296903133E0,1.311952693E1
1.973209828E1,4.031903267E0,-1.192372990E1,-3.236857891E0,1.299649290E1
1.975144642E1,4.129059792E0,-1.151002026E1,-4.287528992E0,1.295810966E1
1.977082509E1,4.660085678E0,-1.064681244E1,-5.032817364E0,1.266492259E1
1.979017323E1,5.363073349E0,-9.589058876E0,-5.709543228E0,1.238190170E1
1.980955189E1,6.411468029E0,-8.694648743E0,-6.341435432E0,1.252667723E1
1.982893056E1,8.498429298E0,-6.532086372E0,-6.704295158E0,1.264274600E1
1.984827870E1,1.330766773E1,-5.958042145E-1,-6.259669304E0,1.471843955E1
1.986765736E1,2.090958405E1,7.034962654E0,-6.246235847E0,2.292851645E1
1.988700551E1,2.662829208E1,1.043516636E1,-7.718344212E0,2.962315773E1
1.990638417E1,3.293504333E1,1.328824520E1,-6.227092743E0,3.605650044E1
1.992576283E1,3.640047455E1,1.454679394E1,-3.815816402E0,3.938482215E1
1.994514149E1,3.561972427E1,1.508379555E1,-1.747431517E0,3.872130114E1
1.996448964E1,2.975745583E1,1.408993816E1,-1.361335993E0,3.295278092E1
1.998383778E1,2.135880852E1,1.015752602E1,-1.129163027E0,2.367802874E1
2.000324696E1,1.332591248E1,4.356045723E0,-1.498839140E0,1.409970200E1
2.002262562E1,6.927966595E0,-1.652217865E0,-1.883093476E0,7.366993013E0
2.004197377E1,2.002581835E0,-7.054490089E0,-1.064393878E0,7.410067392E0
2.006135243E1,-7.273643017E-1,-9.292231560E0,1.165318489E-1,9.321384332E0
2.008070058E1,-1.941542864E0,-9.685083389E0,1.647004485E0,1.001414264E1
2.010007924E1,-1.777875185E0,-9.332554817E0,2.178563833E0,9.746976965E0
2.011945790E1,-1.181313038E0,-8.992125511E0,1.788859606E0,9.244124642E0
2.013880604E1,-8.932088017E-1,-8.496238708E0,1.438437223E0,8.663313212E0
2.015818470E1,-1.116822600E0,-7.818886757E0,1.323445559E0,8.008357571E0
2.017756337E1,-1.512377501E0,-7.299923897E0,1.210927248E0,7.552649827E0
2.019691151E1,-1.920147657E0,-7.010403633E0,1.033771038E0,7.341757874E0
2.021629017E1,-2.468186855E0,-7.188500404E0,7.335897684E-1,7.635747401E0
2.023563832E1,-2.984784603E0,-7.324277878E0,5.209995508E-1,7.926249182E0
2.025501698E1,-3.274140835E0,-7.496723175E0,4.655810595E-1,8.193755079E0
2.027436513E1,-3.287520885E0,-7.667701721E0,5.062455535E-1,8.358093552E0
2.029377431E1,-3.104732990E0,-7.586402893E0,6.038761735E-1,8.219339525E0
2.031315297E1,-3.059185266E0,-7.632999420E0,7.376776934E-1,8.256237825E0
2.033250111E1,-2.910947323E0,-7.672252655E0,1.073733449E0,8.275867244E0
2.035187977E1,-2.431712627E0,-7.303761482E0,1.336740255E0,7.813132061E0
2.037122792E1,-1.522959471E0,-6.124063492E0,1.393617749E0,6.462641073E0
2.039060658E1,2.097567320E0,-2.388350487E0,1.371576309E0,3.461968845E0
2.040998524E1,8.111783981E0,1.274793625E0,1.348165274E0,8.321279214E0
2.042933339E1,1.515569496E1,3.963705063E0,9.718970060E-1,1.569556088E1
2.044871205E1,2.374006844E1,1.110207176E1,-7.211279869E-1,2.621768244E1
2.046806019E1,2.903622627E1,1.110800171E1,-2.502992630E0,3.118902227E1
2.048743886E1,3.302054977E1,1.080552864E1,-2.212852955E0,3.481397528E1
2.050681752E1,3.304090118E1,9.815670013E0,-7.983291745E-1,3.447732383E1
2.052616566E1,2.833159065E1,4.693246841E0,4.345089495E-1,2.872097479E1
2.054554432E1,2.129064751E1,-2.450399399E-1,-5.881584883E-1,2.130017949E1
2.056489247E1,1.565662384E1,-3.567907333E0,-2.326449871E0,1.622566491E1
2.058430165E1,1.139039326E1,-6.419237137E0,-3.846593380E0,1.362879102E1
2.060368031E1,8.219791412E0,-8.532383919E0,-4.543099403E0,1.268882573E1
2.062302846E1,5.733983040E0,-1.023406601E1,-4.186694145E0,1.245564436E1
2.064240712E1,4.139353752E0,-1.115705299E1,-3.446184635E0,1.238911900E1
2.066175526E1,3.234942198E0,-1.158224392E1,-2.725390434E0,1.233048978E1
2.068113392E1,2.732907534E0,-1.183029079E1,-2.390469074E0,1.237493056E1
2.070051259E1,2.645102739E0,-1.169220448E1,-2.235461235E0,1.219432249E1
2.071986073E1,2.933425188E0,-1.138894272E1,-2.096767426E0,1.194610536E1
2.073923939E1,3.392069817E0,-1.098958492E1,-2.060182095E0,1.168424001E1
2.075858754E1,3.706749439E0,-1.088882542E1,-2.159319878E0,1.170338296E1
2.077796620E1,3.818607569E0,-1.076053619E1,-2.402266026E0,1.166798119E1
2.079734486E1,4.030365467E0,-1.036577511E1,-2.614470005E0,1.142491106E1
2.081669301E1,5.210217476E0,-9.273848534E0,-2.909705639E0,1.102801069E1
2.083607167E1,8.700748444E0,-6.677939415E0,-3.131015778E0,1.140618946E1
2.085545033E1,1.808891869E1,2.046928406E0,-3.007310629E0,1.845109244E1
2.087482899E1,2.809760666E1,1.179415703E1,-3.253855944E0,3.064580262E1
2.089420766E1,3.188147545E1,1.188961124E1,-1.346819162E0,3.405297717E1
2.091355580E1,3.364839172E1,1.364184666E1,1.238882422E0,3.632972716E1
2.093293446E1,3.268732834E1,1.482580757E1,2.380551815E0,3.597128064E1
2.095231312E1,2.887300110E1,1.433232212E1,1.511835814E0,3.226997517E1
2.097166127E1,2.244270706E1,1.070198822E1,1.519911885E-1,2.486424649E1
2.099103993E1,1.604674721E1,5.263113022E0,-5.793302059E-1,1.689775364E1
2.101038808E1,9.788477898E0,-1.382590294E0,-1.168848753E0,9.954499630E0
2.102976674E1,5.093681812E0,-6.640160561E0,-1.335530877E0,8.474725329E0
2.104914540E1,2.555782318E0,-8.595549583E0,-2.923017144E-1,8.972231394E0
2.106849354E1,5.024582148E-1,-9.263603210E0,9.709837437E-1,9.327894625E0
2.108787220E1,-1.213597059E0,-1.003679276E1,1.753229260E0,1.026079137E1
2.110725087E1,-2.471435547E0,-1.077508450E1,2.361598253E0,1.130431713E1
2.112659901E1,-3.488408804E0,-1.082179546E1,2.786526680E0,1.170662137E1
2.114597767E1,-3.676996231E0,-1.006565952E1,2.447341919E0,1.099214653E1
2.116535634E1,-3.918745995E0,-9.189258575E0,1.921929359E0,1.017314385E1
2.118473500E1,-4.224035740E0,-8.850141525E0,1.335637093E0,9.897040436E0
2.120408314E1,-3.799849033E0,-8.623899460E0,7.750674486E-1,9.455750849E0
2.122346181E1,-3.037961006E0,-8.569784164E0,5.098947287E-1,9.106613000E0
2.124280995E1,-2.043784380E0,-8.213923454E0,3.753517866E-1,8.472690368E0
2.126218861E1,-1.451662540E0,-7.886374474E0,2.003296018E-1,8.021368862E0
2.128156727E1,-1.421009779E0,-7.719412804E0,-1.193749309E-1,7.850022497E0
2.130091542E1,-1.907359958E0,-7.910848618E0,-6.276032925E-1,8.161705321E0
2.132029408E1,-2.300829172E0,-8.043836594E0,-1.000321269E0,8.426017129E0
2.133967274E1,-2.434105396E0,-7.703768730E0,-1.170085192E0,8.163456442E0
2.135902089E1,-2.472208500E0,-6.727897644E0,-9.793306589E-1,7.234328588E0
2.137839955E1,-1.561149120E0,-4.734967232E0,-6.380463243E-1,5.026351000E0
2.139774769E1,2.984280348E0,2.969799042E-1,-2.625333071E-1,3.010489993E0
2.141712636E1,9.749939919E0,4.179604530E0,8.249456882E-1,1.064006381E1
2.143653554E1,1.784381104E1,6.493371964E0,1.351211429E0,1.903657648E1
2.145588368E1,2.852757072E1,1.444156837E1,-1.083564997E0,3.199305083E1
2.147526234E1,3.361332703E1,1.242980385E1,-4.220237255E0,3.608553976E1
2.149461049E1,3.429340744E1,9.445382118E0,-3.763319969E0,3.576891967E1
2.151398915E1,3.005955124E1,4.870903015E0,-3.784400463E0,3.068589259E1
2.153336781E1,2.237995720E1,-5.576429367E-1,-3.974214315E0,2.273692656E1
2.155271596E1,1.594412613E1,-4.906421661E0,-4.388167381E0,1.724946795E1
2.157209462E1,1.140561008E1,-7.886896133E0,-5.696282387E0,1.499128764E1
2.159144276E1,8.988790512E0,-9.895576477E0,-5.947214127E0,1.463181959E1
2.161082142E1,7.488548756E0,-1.150332260E1,-4.638849735E0,1.448874460E1
2.163020009E1,5.278156757E0,-1.228194904E1,-3.788780689E0,1.389460579E1
2.164954823E1,3.376673698E0,-1.309266090E1,-3.383973598E0,1.393811222E1
2.166892689E1,2.376907349E0,-1.320789528E1,-3.410847664E0,1.384673492E1
2.168827504E1,1.861017823E0,-1.269500828E1,-3.564327002E0,1.331657049E1
2.170765370E1,1.338022947E0,-1.213173676E1,-4.034440517E0,1.285480659E1
2.172706288E1,5.306323767E-1,-1.144531918E1,-4.177452087E0,1.219540929E1
2.174641102E1,4.119585752E-1,-1.060004807E1,-4.615902901E0,1.156880670E1
2.176578969E1,6.467648745E-1,-1.020891476E1,-4.908547401E0,1.134610431E1
2.178513783E1,2.011110544E0,-9.750144958E0,-4.865763664E0,1.108086406E1
2.180451649E1,3.919484615E0,-9.406518936E0,-4.370533943E0,1.108812541E1
2.182389516E1,8.588782310E0,-6.256626129E0,-3.839416504E0,1.129839242E1
2.184324330E1,1.782393456E1,2.428254128E0,-4.673954010E0,1.858587924E1
2.186262196E1,2.739318848E1,1.041872501E1,-7.779140472E0,3.032246086E1
2.188197011E1,3.558087921E1,1.301578426E1,-7.516415596E0,3.862520044E1
2.190134877E1,4.246416092E1,1.657101440E1,-3.437047005E0,4.571232627E1
2.192072743E1,3.971386337E1,1.663402367E1,-1.228261471E0,4.307424188E1
2.194007558E1,3.016703606E1,1.315222740E1,-1.084336638E0,3.292729773E1
2.195945424E1,1.960116959E1,8.187471390E0,-1.197838783E0,2.127616870E1
2.197880238E1,9.787077904E0,1.200101852E0,-1.270765901E0,9.941930614E0
2.199818104E1,2.026039362E0,-5.225759506E0,-9.110852480E-1,5.678333756E0
2.201759022E1,-2.178597212E0,-8.468078613E0,1.394844055E-2,8.743845594E0
2.203693837E1,-4.132071495E0,-9.459843636E0,1.161361456E0,1.038804201E1
2.205631703E1,-4.663239956E0,-9.444311142E0,1.768889904E0,1.068034603E1
2.207566517E1,-4.882670403E0,-9.129315376E0,2.488111973E0,1.064779652E1
2.209504384E1,-4.917614937E0,-8.834702492E0,3.137358427E0,1.058668610E1
2.211442250E1,-5.483889103E0,-8.156806946E0,2.752103090E0,1.020689035E1
2.213377064E1,-5.295413017E0,-7.984464645E0,2.466993570E0,9.893388296E0
2.215314931E1,-3.478608608E0,-8.405945778E0,2.206553936E0,9.361064178E0
2.217249745E1,-2.596831799E0,-7.913331032E0,1.591257572E0,8.479177087E0
2.219187611E1,-2.832632065E0,-7.478190422E0,1.084790111E0,8.069938413E0
2.221125477E1,-3.356097937E0,-6.983115196E0,5.802620053E-1,7.769426954E0
2.223060292E1,-4.037783623E0,-6.951777458E0,2.213654518E-1,8.042382052E0
2.224998158E1,-4.352684021E0,-6.990122795E0,3.663808703E-1,8.242688264E0
2.226936024E1,-4.512315750E0,-7.004562378E0,8.720120788E-1,8.377666298E0
2.228870839E1,-4.481695652E0,-7.214530945E0,1.354254842E0,8.600526661E0
2.230811757E1,-4.203013897E0,-7.273361206E0,1.563339710E0,8.544655646E0
2.232746571E1,-3.284254551E0,-6.494908333E0,1.450489402E0,7.421191394E0
2.234684437E1,6.376596689E-1,-2.957598686E0,1.141502857E0,3.233732923E0
2.236619252E1,8.823127747E0,3.943699837E0,1.483719349E0,9.777616005E0
2.238557118E1,1.716498566E1,1.055374908E1,1.054243684E0,2.017745727E1
2.240494984E1,2.774474335E1,2.145312691E1,-2.005136490E0,3.512873482E1
2.242429799E1,3.605049133E1,1.993891525E1,-6.461928368E0,4.170077679E1
2.244367665E1,3.982036209E1,1.226157284E1,-7.297546864E0,4.229966425E1
2.246302479E1,3.622409439E1,7.193949699E0,-7.839741707E0,3.775446300E1
2.248240346E1,2.585387993E1,1.511428833E0,-8.456717491E0,2.724378085E1
2.250178212E1,1.594547272E1,-5.304830551E0,-6.813010216E0,1.813329632E1
2.252113026E1,9.210439682E0,-1.087832260E1,-5.883857727E0,1.542043720E1
2.254050892E1,5.275540352E0,-1.401504040E1,-5.546175003E0,1.596911834E1
2.255988759E1,3.298546791E0,-1.513402748E1,-5.720813751E0,1.651202316E1
2.257926625E1,2.604414463E0,-1.465363693E1,-6.309299946E0,1.616537398E1
2.259864491E1,2.500216484E0,-1.373538876E1,-7.114181519E0,1.566919160E1
2.261799306E1,2.589215517E0,-1.288312817E1,-7.743977070E0,1.525280988E1
2.263737172E1,2.719131470E0,-1.191890812E1,-8.275767326E0,1.476287139E1
2.265675038E1,2.695512772E0,-1.118790531E1,-8.625219345E0,1.438156539E1
2.267609852E1,2.838077545E0,-1.036216545E1,-8.634187698E0,1.378326355E1
2.269547719E1,2.820023537E0,-9.793572426E0,-8.524019241E0,1.328628984E1
2.271482533E1,3.008877754E0,-9.396265030E0,-8.294569016E0,1.288964767E1
2.273420399E1,3.790336609E0,-8.634307861E0,-7.929643631E0,1.232059950E1
2.275358266E1,6.528207302E0,-6.791419983E0,-7.401824474E0,1.198031225E1
2.277293080E1,1.492251968E1,-3.374312401E0,-7.607266903E0,1.708619582E1
2.279230946E1,2.682672119E1,2.181898117E0,-9.519227982E0,2.854906917E1
2.281165761E1,3.242593002E1,8.787463188E0,-1.237250900E1,3.580138861E1
2.283103627E1,3.608496475E1,1.127212715E1,-1.063056850E1,3.927078454E1
2.285041493E1,3.570046616E1,1.339294624E1,-6.867192268E0,3.874342038E1
2.286979359E1,2.772037697E1,1.064821529E1,-5.651398659E0,3.022816725E1
2.288917225E1,1.925539589E1,6.333408356E0,-4.289974213E0,2.071922322E1
2.290852040E1,1.105334568E1,1.529151917E0,-3.267167330E0,1.162708642E1
2.292789906E1,5.350944042E0,-2.649418831E0,-2.229524136E0,6.373601820E0
2.294727772E1,2.133848190E0,-6.161489487E0,-1.434032440E0,6.676354532E0
2.296662587E1,2.412550449E-1,-6.881767273E0,7.040059566E-2,6.886354699E0
2.298600453E1,-2.877054691E0,-6.729354858E0,1.663531661E0,7.505264692E0
2.300535267E1,-4.686393261E0,-6.971701622E0,3.111127615E0,8.958014308E0
2.302473134E1,-4.959488392E0,-7.775898933E0,3.777612209E0,9.966518115E0
2.304411000E1,-2.446372747E0,-7.983160973E0,4.626300812E0,9.545588402E0
2.306345814E1,-3.336651325E0,-7.606594086E0,4.502956390E0,9.448287247E0
2.308283681E1,-3.994605541E0,-7.461593628E0,3.973360538E0,9.349858120E0
2.310218495E1,-4.130639553E0,-7.606410980E0,3.681465387E0,9.406001197E0
2.312156361E1,-3.912769794E0,-7.913697243E0,2.608613014E0,9.205500170E0
2.314094227E1,-3.966715336E0,-7.745283127E0,2.491305828E0,9.051565942E0
2.316032094E1,-4.383490086E0,-8.300460815E0,2.475402832E0,9.707741975E0
2.317969960E1,-4.769933701E0,-8.262843132E0,2.265861988E0,9.806170235E0
2.319904774E1,-4.872206211E0,-8.108304024E0,1.727596521E0,9.616006304E0
2.321842641E1,-4.218985558E0,-7.512486458E0,1.057036519E0,8.680703780E0
2.323780507E1,-3.307988882E0,-6.939242363E0,7.059745789E-1,7.719732840E0
2.325715321E1,-1.835495710E0,-6.069334030E0,4.159673452E-1,6.354438520E0
2.327653187E1,1.654486418E0,-3.631735802E0,4.346208572E-1,4.014439628E0
2.329588002E1,8.906463623E0,-9.736928940E-1,5.818723440E-1,8.978404510E0
2.331525868E1,1.829929733E1,1.849389076E0,6.713635921E-1,1.840476166E1
2.333463734E1,2.918764687E1,9.011962891E0,-2.014137268E0,3.061357466E1
2.335398549E1,3.495203018E1,7.834926605E0,-5.106048584E0,3.618151767E1
2.337336415E1,3.657427216E1,5.768198967E0,-5.054432869E0,3.736973100E1
2.339271229E1,3.228546524E1,2.646956444E0,-5.377293587E0,3.283706641E1
2.341209096E1,2.383946800E1,-1.056686401E0,-4.785194874E0,2.433793152E1
2.343146962E1,1.472748184E1,-5.536603928E0,-2.764065981E0,1.597475400E1
2.345084828E1,7.840692520E0,-9.505048752E0,-1.009169221E0,1.236288128E1
2.347022694E1,3.512030602E0,-1.216556454E1,-2.882599831E-2,1.266239118E1
2.348957509E1,1.658664227E0,-1.288188934E1,3.821439147E-1,1.299385524E1
2.350895375E1,8.962390423E-1,-1.250815678E1,4.417273402E-1,1.254800197E1
2.352833241E1,2.172265053E-1,-1.218921566E1,3.255981803E-1,1.219549835E1
2.354768056E1,-2.859004736E-1,-1.200250530E1,-1.836954355E-1,1.200731513E1
2.356705922E1,-4.281176627E-1,-1.192201996E1,-7.375392318E-1,1.195248128E1
2.358640736E1,-1.101989821E-1,-1.157330132E1,-1.143574715E0,1.163018531E1
2.360578602E1,3.556491137E-1,-1.105492115E1,-1.272810817E0,1.113363442E1
2.362516469E1,5.984078646E-1,-1.070964432E1,-1.219562888E0,1.079545770E1
2.364451283E1,8.102101684E-1,-1.028049564E1,-1.215674400E0,1.038378040E1
2.366389149E1,1.002525091E0,-9.980019569E0,-1.350960970E0,1.012081729E1
2.368323964E1,1.737282991E0,-9.510333061E0,-1.439855218E0,9.774342442E0
2.370261830E1,4.027760029E0,-8.066423416E0,-1.449877977E0,9.131932092E0
2.372199696E1,1.118759918E1,-2.437778473E0,-1.650467157E0,1.156845630E1
2.374137562E1,2.122769356E1,5.944145203E0,-3.337855101E0,2.229549534E1
2.376075428E1,2.797562790E1,1.020814323E1,-4.801585674E0,3.016450181E1
2.378010243E1,3.264193344E1,1.195328522E1,-3.655294657E0,3.495336930E1
2.379948109E1,3.179134178E1,1.046580505E1,-1.472116709E0,3.350208375E1
2.381885975E1,2.702374840E1,8.070558548E0,-1.186738014E0,2.822809310E1
2.383820790E1,2.207815742E1,5.776008606E0,-1.835572243E0,2.289490415E1
2.385758656E1,1.670695877E1,1.369268417E0,-1.724289298E0,1.685142549E1
2.387693470E1,1.177712250E1,-4.150847435E0,-1.294281006E0,1.255409543E1
2.389631337E1,7.823956966E0,-8.783812523E0,-9.560094476E-1,1.180184812E1
2.391569203E1,4.280031681E0,-1.193460846E1,-4.437879324E-1,1.268662674E1
2.393504017E1,1.793859959E0,-1.293497276E1,5.318871140E-1,1.306959670E1
2.395441884E1,2.499203682E-1,-1.237674522E1,1.461717606E0,1.246526778E1
2.397376698E1,-9.071583152E-1,-1.198540783E1,1.571283579E0,1.212195814E1
2.399314564E1,-1.361276388E0,-1.159617996E1,1.162976623E0,1.173358333E1
2.401255482E1,-1.318761349E0,-1.087233829E1,8.229979873E-1,1.098290477E1
2.403190297E1,-1.975946903E0,-1.003793526E1,1.579392791E0,1.035176275E1
2.405128163E1,-3.235925674E0,-9.652102470E0,2.116438627E0,1.039776945E1
2.407062977E1,-3.915642023E0,-9.329170227E0,2.015937805E0,1.031647589E1
2.409000844E1,-3.710650444E0,-9.178330421E0,1.402648330E0,9.998904859E0
2.410938710E1,-2.691282749E0,-8.730534554E0,7.219636440E-1,9.164413125E0
2.412873524E1,-1.639456391E0,-8.152657509E0,3.632107973E-1,8.323795036E0
2.414811391E1,-1.096415401E0,-7.648718834E0,2.043021917E-1,7.729603219E0
2.416746205E1,-7.012680769E-1,-7.307100296E0,5.044245720E-2,7.340847096E0
2.418684071E1,-7.498233318E-1,-6.986481667E0,-4.261648655E-2,7.026733044E0
2.420621937E1,-9.957497120E-1,-6.291316986E0,-1.510574818E-1,6.371420977E0
2.422556752E1,-5.259025097E-1,-4.646758080E0,1.859641075E-2,4.676460192E0
2.424494618E1,2.862689495E0,1.162147522E-1,5.292439461E-2,2.865536251E0
2.426429432E1,8.156638145E0,5.021185875E0,1.082309127E0,9.639213997E0
2.428367299E1,1.551326370E1,8.540891647E0,2.479016781E0,1.788165834E1
2.430308217E1,2.361217880E1,1.346234226E1,1.531743288E0,2.722344366E1
2.432243031E1,2.789795876E1,9.290573120E0,6.347858906E-2,2.940433439E1
2.434180897E1,3.236899567E1,5.058019638E0,2.209912539E-1,3.276254386E1
2.436115712E1,3.261960220E1,3.359630585E0,-7.871142626E-1,3.280160232E1
2.438053578E1,2.539271736E1,-2.765178680E-1,-2.203080416E0,2.548960809E1
2.439991444E1,1.696680069E1,-4.637017250E0,-2.981936693E0,1.784001685E1
2.441926259E1,9.885422707E0,-8.869950294E0,-2.943665981E0,1.360377777E1
2.443864125E1,4.780908585E0,-1.138128376E1,-2.756683350E0,1.264871575E1
2.445798939E1,1.953452706E0,-1.257031822E1,-2.096802950E0,1.289284531E1
2.447736806E1,1.011618614E0,-1.268220997E1,-1.448016286E0,1.280463092E1
2.449674672E1,1.047380686E0,-1.273093414E1,-1.323045015E0,1.284227934E1
2.451609486E1,1.406874657E0,-1.263467693E1,-1.682445288E0,1.282361024E1
2.453547352E1,1.600591540E0,-1.225755119E1,-2.149981499E0,1.254718594E1
2.455482167E1,1.682754159E0,-1.185716820E1,-2.403316498E0,1.221474639E1
2.457420033E1,1.592401624E0,-1.169071198E1,-2.432845354E0,1.204687619E1
2.459360951E1,1.614576697E0,-1.157158089E1,-2.476011992E0,1.194315610E1
2.461295766E1,1.845206738E0,-1.122190380E1,-2.596233130E0,1.166517635E1
2.463233632E1,3.120604038E0,-1.033149910E1,-2.793134689E0,1.114807807E1
2.465168446E1,6.013926506E0,-8.553344727E0,-2.807151794E0,1.082622368E1
2.467106312E1,1.360300636E1,-2.268041611E0,-2.233993053E0,1.397055904E1
2.469044178E1,2.332234764E1,5.298713684E0,-2.079442978E0,2.400692295E1
2.470978993E1,2.679423714E1,5.792451859E0,-3.773099661E0,2.767164475E1
2.472916859E1,3.175737190E1,8.643511772E0,-2.708835602E0,3.302391189E1
2.474854725E1,3.510823822E1,1.151405907E1,-1.315963507E0,3.697152563E1
2.476789540E1,3.208087540E1,1.069169044E1,-8.057268262E-1,3.382519780E1
2.478727406E1,2.481379509E1,6.489854813E0,-8.204995990E-1,2.566156390E1
2.480662220E1,1.652089500E1,1.059038162E0,-1.016585827E0,1.658598747E1
2.482600087E1,8.699440956E0,-5.057679176E0,-1.107718945E0,1.012360770E1
2.484537953E1,2.702275276E0,-9.622327805E0,-8.541362286E-1,1.003100358E1
2.486475819E1,-1.040290713E0,-1.106194496E1,2.269130945E-1,1.111306981E1
2.488413685E1,-3.242096901E0,-1.016730404E1,2.109972477E0,1.087829249E1
2.490348500E1,-4.308983326E0,-9.339677811E0,2.890122890E0,1.068408766E1
2.492286366E1,-4.520186901E0,-8.602767944E0,2.922303200E0,1.014788460E1
2.494224232E1,-4.064830303E0,-7.894857407E0,2.187389374E0,9.145287920E0
2.496159047E1,-4.363375664E0,-7.187824249E0,2.278670549E0,8.711842750E0
2.498096913E1,-4.828974724E0,-6.640246391E0,2.410196543E0,8.556922133E0
2.500031727E1,-5.324551105E0,-6.509687424E0,2.323045015E0,8.724873235E0
2.501969594E1,-5.439924240E0,-6.148063660E0,2.155438662E0,8.487483627E0
2.503904408E1,-5.504446030E0,-6.013628960E0,2.072118282E0,8.411678402E0
2.505842274E1,-5.418480873E0,-5.995723724E0,2.022610188E0,8.330641627E0
2.507780141E1,-5.312111855E0,-6.424654961E0,1.981954694E0,8.568714497E0
2.509714955E1,-4.988614082E0,-6.975915909E0,1.853667855E0,8.774152822E0
2.511652821E1,-4.417706490E0,-7.403466225E0,1.646207213E0,8.777097525E0
2.513590687E1,-3.535739422E0,-7.479104996E0,1.770509481E0,8.460092708E0
2.515528554E1,-2.697659016E0,-7.298543930E0,2.090106010E0,8.056962877E0
2.517466420E1,-1.210262775E0,-6.069502831E0,2.041808128E0,6.517099127E0
2.519401234E1,2.746320009E0,-2.087999344E0,1.742825627E0,3.865159249E0
2.521339100E1,9.797566414E0,2.652815819E0,9.983463287E-1,1.019933502E1
2.523276967E1,1.869826508E1,6.316835403E0,-1.017385840E0,1.976265671E1
2.525211781E1,2.816825294E1,1.143385410E1,-3.278859138E0,3.057669719E1
2.527149647E1,3.488872910E1,9.448590279E0,-3.951709986E0,3.636090329E1
2.529084462E1,3.591268539E1,6.370314598E0,-2.896873474E0,3.658816415E1
2.531022328E1,3.121821022E1,2.519357681E0,-2.655909777E0,3.143211207E1
2.532960194E1,2.286238480E1,-1.751022339E0,-2.043819189E0,2.302025010E1
2.534895009E1,1.421568680E1,-6.288882256E0,-1.206752062E0,1.559140923E1
2.536832875E1,7.569818020E0,-1.030313873E1,-3.715225458E-1,1.279041992E1
2.538767689E1,3.168024063E0,-1.269688988E1,1.551756561E-1,1.308707257E1
2.540705556E1,9.200066924E-1,-1.320117664E1,6.776260734E-1,1.325053411E1
2.542643422E1,3.033724129E-1,-1.337196064E1,5.797429085E-1,1.338795982E1
2.544581288E1,5.719575286E-1,-1.309877110E1,-1.080911160E-1,1.311169796E1
2.546519154E1,8.416964412E-1,-1.238295841E1,-4.653227627E-1,1.242025109E1
2.548453969E1,7.702051401E-1,-1.167082024E1,-8.551059961E-1,1.172742372E1
2.550391835E1,5.533303022E-1,-1.128573990E1,-1.497808933E0,1.139813718E1
2.552329701E1,4.020280838E-1,-1.084565353E1,-2.000387669E0,1.103591310E1
2.554264516E1,5.913003087E-1,-1.031826210E1,-2.307814837E0,1.058972040E1
2.556202382E1,1.190097213E0,-9.824490547E0,-2.222640038E0,1.014283366E1
2.558137196E1,2.512409210E0,-9.247630119E0,-1.868207216E0,9.763250538E0
2.560075062E1,4.617689610E0,-8.028435707E0,-1.008124828E0,9.316391625E0
2.562012928E1,9.530749321E0,-3.914335251E0,-9.283737540E-1,1.034500270E1
2.563947743E1,1.684173012E1,1.045728683E0,-1.416422367E0,1.693350744E1
2.565885609E1,2.275577927E1,3.045625687E0,-2.632913113E0,2.310916609E1
2.567820424E1,2.931110001E1,6.280154228E0,-2.991109848E0,3.012519973E1
2.569758290E1,3.373863983E1,9.674157143E0,-2.352053642E0,3.517694260E1
2.571696156E1,3.237786102E1,9.760795593E0,-1.966065884E0,3.387424435E1
2.573634022E1,2.711343575E1,8.258446693E0,-1.810224533E0,2.840100795E1
2.575571888E1,2.028996277E1,4.874320030E0,-2.138258934E0,2.097650438E1
2.577506703E1,1.306079960E1,-6.611347198E-1,-1.832685709E0,1.320531416E1
2.579444569E1,6.502166271E0,-6.256430626E0,-7.253686786E-1,9.052472044E0
2.581382435E1,1.750962019E0,-9.301811218E0,7.306718826E-1,9.493336681E0
2.583317250E1,-1.964671850E0,-1.033850288E1,1.999097466E0,1.071172106E1
2.585255116E1,-4.559931755E0,-1.033634853E1,3.333367348E0,1.177898198E1
2.587189931E1,-5.693188190E0,-9.817400932E0,4.263527393E0,1.212317692E1
2.589127797E1,-5.603847504E0,-8.962574959E0,4.295052528E0,1.140957199E1
2.591065663E1,-5.456204414E0,-8.282830238E0,3.895917654E0,1.065615398E1
2.593000477E1,-5.737933636E0,-7.812445641E0,3.239220381E0,1.022011438E1
2.594938344E1,-5.799430370E0,-7.469880104E0,2.462367058E0,9.772192841E0
2.596873158E1,-5.309021950E0,-6.995662689E0,1.929472446E0,8.991544608E0
2.598811024E1,-4.551020622E0,-6.658880234E0,1.605960608E0,8.223842420E0
2.600748891E1,-4.101924896E0,-6.666769981E0,1.302974105E0,7.935323015E0
2.602686757E1,-3.665716887E0,-6.693416595E0,1.016679049E0,7.698892277E0
2.604624623E1,-3.110169888E0,-6.909414291E0,9.092603922E-1,7.631508176E0
2.606559437E1,-2.358458757E0,-7.297141075E0,1.212884188E0,7.764128002E0
2.608497304E1,-1.890407562E0,-8.036408424E0,1.658913493E0,8.420777582E0
2.610435170E1,-1.495134115E0,-8.340860367E0,2.102378368E0,8.730714317E0
2.612369984E1,-3.840602636E-1,-8.036087036E0,2.978269100E0,8.578827657E0
2.614307850E1,3.428164721E0,-5.435107231E0,3.847900629E0,7.489929453E0
2.616242665E1,1.089952946E1,4.003076553E-1,3.062453032E0,1.132866308E1
2.618180531E1,1.754136086E1,2.486338615E0,1.034321070E0,1.774686002E1
2.620118397E1,2.442347145E1,7.109008789E0,-7.129778862E-1,2.544704897E1
2.622053212E1,2.890693665E1,9.857607841E0,-1.208233356E0,3.056539295E1
2.623991078E1,2.911355400E1,5.730340958E0,-1.427561522E0,2.970646000E1
2.625925892E1,2.635108376E1,3.474394798E0,-1.877052784E0,2.664534409E1
2.627863759E1,2.042375183E1,1.016573906E0,-1.420022011E0,2.049828100E1
2.629801625E1,1.364729214E1,-2.140748024E0,-5.394939184E-1,1.382470392E1
2.631739491E1,8.079003334E0,-5.419337273E0,-5.683040619E-1,9.744869463E0
2.633677357E1,4.032220840E0,-8.461071014E0,-1.356889248E0,9.470463349E0
2.635612172E1,1.562186599E0,-1.069793797E1,-1.841893435E0,1.096717261E1
2.637550038E1,8.256900907E-1,-1.132771778E1,-1.795815825E0,1.149886554E1
2.639487904E1,7.967194319E-1,-1.162842560E1,-1.394948721E0,1.173886390E1
2.641422719E1,7.185655832E-1,-1.201976967E1,-1.212603331E0,1.210213230E1
2.643360585E1,6.718646288E-1,-1.196497917E1,-1.310803652E0,1.205530318E1
2.645295399E1,6.426380873E-1,-1.156906033E1,-1.758322954E0,1.171954949E1
2.647233266E1,7.619875669E-1,-1.104912567E1,-2.423225403E0,1.133736409E1
2.649171132E1,1.138049722E0,-1.050261211E1,-2.821227551E0,1.093431952E1
2.651105946E1,1.548787236E0,-1.035383511E1,-2.953522444E0,1.087768073E1
2.653043812E1,2.050847054E0,-1.012691307E1,-2.854450941E0,1.071952574E1
2.654978627E1,3.005777359E0,-9.387543678E0,-2.578031540E0,1.018856813E1
2.656916493E1,5.819620609E0,-7.191678047E0,-1.924835682E0,9.449508430E0
2.658857411E1,1.205077934E1,-2.134075165E0,-1.327102661E0,1.231002685E1
2.660792225E1,1.995396614E1,5.266853333E0,-1.899526358E0,2.072459189E1
2.662730092E1,2.554777718E1,8.393316269E0,-2.654663563E0,2.702191546E1
2.664664906E1,3.004789734E1,9.131694794E0,-1.897718549E0,3.146212517E1
2.666602772E1,3.227721024E1,1.083320236E1,-5.418004394E-1,3.405099296E1
2.668540638E1,2.895966148E1,9.641269684E0,-1.041765213E-1,3.052256423E1
2.670475453E1,2.346430206E1,7.141725540E0,-3.408055902E-1,2.452944890E1
2.672413319E1,1.776977921E1,3.287432671E0,-4.202701449E-1,1.807619688E1
2.674348134E1,1.151231575E1,-2.093326569E0,-2.006626725E-1,1.170280717E1
2.676286000E1,4.688356400E0,-7.355545044E0,3.811536431E-1,8.730979711E0
2.678223866E1,-9.558150768E-1,-1.020209503E1,1.269005179E0,1.032505204E1
2.680158681E1,-4.743045807E0,-1.038789654E1,2.228218079E0,1.163485427E1
2.682096547E1,-6.575308800E0,-9.981294632E0,2.605376005E0,1.223310723E1
2.684031361E1,-6.385585785E0,-9.813077927E0,2.412685871E0,1.195379677E1
2.685969227E1,-5.099988937E0,-9.483421326E0,1.906326652E0,1.093522970E1
2.687910145E1,-3.996880293E0,-8.763832092E0,1.853606105E0,9.808958182E0
2.689844960E1,-3.445120335E0,-7.990541458E0,1.801736951E0,8.886161317E0
2.691782826E1,-3.156977892E0,-7.697722435E0,1.359291792E0,8.430249953E0
2.693717641E1,-2.920463085E0,-7.778267860E0,8.271384239E-1,8.349533730E0
2.695655507E1,-2.521575689E0,-7.802206993E0,3.632351160E-1,8.207601213E0
2.697593373E1,-2.044816494E0,-7.714969635E0,-1.053285599E-2,7.981362158E0
2.699528187E1,-1.723926783E0,-7.336853981E0,4.426670074E-2,7.536797027E0
2.701466054E1,-1.796140909E0,-7.279707909E0,3.048169613E-1,7.504211003E0
2.703400868E1,-2.372822046E0,-7.402295113E0,4.399366379E-1,7.785743487E0
2.705338734E1,-3.115431786E0,-7.597958565E0,6.252108812E-1,8.235640728E0
2.707276600E1,-3.660362959E0,-7.637903214E0,9.133903980E-1,8.518808867E0
2.709211415E1,-3.399905205E0,-6.762017250E0,9.269644022E-1,7.625188240E0
2.711149281E1,-1.301756859E0,-4.207315445E0,7.000026703E-1,4.459380889E0
2.713084096E1,3.456272602E0,3.905591965E-1,4.858825207E-1,3.512041943E0
2.715021962E1,9.014997482E0,3.602701187E0,8.825162649E-1,9.748254736E0
2.716962880E1,1.872754860E1,9.777407646E0,5.973364115E-1,2.113470103E1
2.718897694E1,2.494475555E1,1.257238865E1,-2.468851566E0,2.804284247E1
2.720835560E1,2.792988586E1,7.674060822E0,-3.060425282E0,2.912620704E1
2.722770375E1,2.985310364E1,5.519475937E0,-2.832604885E0,3.049091769E1
2.724708241E1,2.567688942E1,2.538286209E0,-3.405056000E0,2.602575558E1
2.726646107E1,1.796656036E1,-1.456564903E0,-3.559023857E0,1.837350058E1
2.728580922E1,1.154560375E1,-5.873873711E0,-3.866957188E0,1.351875424E1
2.730518788E1,7.815380096E0,-9.058815956E0,-4.145330906E0,1.266199356E1
2.732453602E1,5.628164291E0,-1.102242947E1,-4.039181232E0,1.301864700E1
2.734391469E1,4.355010033E0,-1.204802132E1,-3.401171207E0,1.325476879E1
2.736329335E1,3.894323111E0,-1.234646511E1,-2.571635246E0,1.319902500E1
2.738264149E1,3.334611416E0,-1.267760372E1,-2.246849537E0,1.329998505E1
2.740202016E1,2.752580643E0,-1.294401836E1,-2.393977165E0,1.344825038E1
2.742136830E1,2.171368122E0,-1.293535519E1,-2.787841797E0,1.340933687E1
2.744077748E1,1.826539993E0,-1.261944962E1,-3.280595779E0,1.316620923E1
2.746015614E1,1.751814485E0,-1.208663368E1,-3.660235405E0,1.274962317E1
2.747950428E1,2.162461996E0,-1.156681347E1,-3.786798477E0,1.236152330E1
2.749888295E1,2.838723660E0,-1.155166817E1,-3.622299910E0,1.243464700E1
2.751823109E1,3.926506758E0,-1.116995430E1,-3.104926825E0,1.224033925E1
2.753760975E1,6.506751537E0,-9.013279915E0,-2.741568327E0,1.144959507E1
2.755698842E1,1.310270405E1,-2.049034119E0,-3.443591595E0,1.370174140E1
2.757633656E1,2.156202126E1,5.604654312E0,-4.987743378E0,2.283003492E1
2.759571522E1,2.645631218E1,7.656558990E0,-5.278914452E0,2.804329309E1
2.761506337E1,3.141027069E1,1.118022537E1,-3.585420370E0,3.353293580E1
2.763444203E1,3.151281357E1,1.292915058E1,-2.546432972E0,3.415705893E1
2.765382069E1,2.777683258E1,1.255874920E1,-1.797003508E0,3.053692570E1
2.767316884E1,2.203890228E1,9.411752701E0,-1.477456093E0,2.400993918E1
2.769254750E1,1.624287415E1,5.138110161E0,-8.681006432E-1,1.705827469E1
2.771189564E1,1.051141167E1,4.050693512E-1,-1.006686926E0,1.056727377E1
2.773130482E1,4.819240093E0,-3.925508499E0,-1.120736599E0,6.315911856E0
2.775068349E1,-4.865741730E-2,-6.723671913E0,-5.787813663E-1,6.748712426E0
2.777003163E1,-4.473328590E0,-8.348322868E0,3.751337528E-1,9.478707123E0
2.778941029E1,-7.950201511E0,-9.299157143E0,1.479437947E0,1.232350455E1
2.780875844E1,-9.281755447E0,-9.600183487E0,2.113383293E0,1.351964852E1
2.782813710E1,-8.512464523E0,-8.991811752E0,1.894789100E0,1.252617087E1
2.784751576E1,-7.052804470E0,-8.214441299E0,1.337730169E0,1.090910715E1
2.786686391E1,-6.664764881E0,-7.271538734E0,1.656564355E0,1.000192841E1
2.788624257E1,-6.692609310E0,-6.593949318E0,1.342417240E0,9.490693917E0
2.790559071E1,-6.826060295E0,-6.525844574E0,6.489050984E-1,9.465876842E0
2.792496937E1,-6.735895634E0,-6.613681793E0,-1.950061619E-1,9.441986245E0
2.794434804E1,-6.333870411E0,-6.677518845E0,-7.269354463E-1,9.232313223E0
2.796369618E1,-5.925734520E0,-6.313241959E0,-6.833498478E-1,8.685523625E0
2.798307484E1,-5.931035519E0,-5.972220421E0,-5.526441336E-1,8.435046806E0
2.800242299E1,-6.215239048E0,-5.844291687E0,-5.256137252E-1,8.547585129E0
2.802183217E1,-6.581197739E0,-5.687547684E0,-4.244037271E-1,8.708644031E0
2.804121083E1,-6.484263897E0,-5.111401558E0,-3.477226496E-1,8.263958810E0
2.806055897E1,-5.428258896E0,-3.863824844E0,-1.220336407E-1,6.664085029E0
2.807993764E1,-8.271236420E-1,4.607572556E-1,-5.428311229E-2,9.483551149E-1
2.809928578E1,5.255394936E0,4.998712540E0,-4.986530244E-1,7.270141527E0
2.811866444E1,9.950607300E0,4.051422119E0,-6.927345991E-1,1.076608044E1
2.813804310E1,1.718992996E1,4.484933853E0,5.321543217E-1,1.777333711E1
2.815739125E1,2.635686493E1,6.453748703E0,1.295754910E0,2.716641644E1
2.817676991E1,3.252056885E1,4.866402626E0,-6.652276516E-1,3.288938735E1
2.819611806E1,3.335306168E1,3.313808441E-1,-1.795906544E0,3.340302107E1
2.821549672E1,2.890955353E1,-3.620750427E0,-1.436971903E0,2.917082459E1
2.823487538E1,2.014101219E1,-8.036048889E0,-4.966770411E-1,2.169066947E1
2.825422352E1,1.175710964E1,-1.054713440E1,4.273865223E-1,1.580045349E1
2.827360219E1,5.921730042E0,-1.251900673E1,-1.256012797E0,1.390575364E1
2.829295033E1,3.397289515E0,-1.372673512E1,-2.260137558E0,1.432037202E1
2.831235951E1,2.690645695E0,-1.385960770E1,-2.482716322E0,1.433499843E1
2.833173817E1,1.778111458E0,-1.404202652E1,-2.460208893E0,1.436637800E1
2.835108632E1,2.775725126E-1,-1.422581482E1,-2.117732525E0,1.438525790E1
2.837046498E1,-1.008911252E0,-1.373285389E1,-1.880659103E0,1.389769968E1
2.838981312E1,-1.725514412E0,-1.311167908E1,-2.047395706E0,1.338227774E1
2.840919178E1,-1.737855434E0,-1.234291553E1,-2.318864584E0,1.267851878E1
2.842857045E1,-1.268237233E0,-1.153156757E1,-2.634958267E0,1.189657436E1
2.844791859E1,-5.989278555E-1,-1.078290462E1,-2.935191631E0,1.119129557E1
2.846729725E1,2.480267286E-1,-9.978114128E0,-3.097766876E0,1.045085826E1
2.848664540E1,1.891280413E0,-8.711947441E0,-3.142069578E0,9.452384411E0
2.850602406E1,6.563496113E0,-5.243131638E0,-3.104234219E0,8.955790343E0
2.852540272E1,1.513881397E1,1.313686371E0,-3.034294367E0,1.549568981E1
2.854475087E1,2.187037277E1,6.191489220E0,-3.012022018E0,2.292858523E1
2.856411535E1,2.642793083E1,8.157698631E0,-2.603990078E0,2.778064685E1
2.858349401E1,3.055115509E1,9.229223251E0,-8.811579943E-1,3.192691777E1
2.860287267E1,3.122925758E1,8.962044716E0,-9.208909869E-1,3.250281242E1
2.862225133E1,2.771129227E1,6.753354073E0,-8.978205323E-1,2.853646075E1
2.864159948E1,2.093618011E1,2.309834480E0,-3.793872595E-1,2.106663020E1
2.866097814E1,1.338653755E1,-2.728275299E0,-7.286483794E-2,1.366192457E1
2.868032628E1,6.460072994E0,-7.267374992E0,-1.588769406E-1,9.724840577E0
2.869970495E1,6.100025177E-1,-1.022620773E1,-6.264386326E-2,1.024457671E1
2.871908361E1,-3.052680492E0,-1.107412243E1,4.334913492E-1,1.149534517E1
2.873843175E1,-4.683130264E0,-1.082822990E1,8.306596875E-1,1.182676065E1
2.875781042E1,-4.902205944E0,-9.665531158E0,1.412889242E0,1.092933537E1
2.877715856E1,-5.597460747E0,-7.886507988E0,2.635731697E0,1.002375462E1
2.879653722E1,-6.501795769E0,-6.907914162E0,2.837563515E0,9.901736867E0
2.881591588E1,-7.608320713E0,-6.440487862E0,2.401287079E0,1.025341931E1
2.883526403E1,-7.928693295E0,-6.245519638E0,1.561496258E0,1.021317597E1
2.885464269E1,-7.266421795E0,-6.341023445E0,8.180227280E-1,9.678771886E0
2.887402135E1,-5.799063683E0,-6.579660416E0,4.980902672E-1,8.784598152E0
2.889340002E1,-4.512670040E0,-6.809681892E0,4.479056597E-1,8.181477730E0
2.891277868E1,-3.784314156E0,-6.934318542E0,7.404843569E-1,7.934363513E0
2.893212682E1,-3.771822691E0,-7.057050705E0,1.155323267E0,8.084762391E0
2.895150548E1,-4.450896263E0,-7.297021866E0,1.295155644E0,8.644907969E0
2.897085363E1,-4.986021042E0,-7.260725021E0,1.550960183E0,8.943378062E0
2.899023229E1,-5.235983849E0,-6.882469177E0,2.120837688E0,8.904036239E0
2.900961095E1,-4.905561447E0,-6.101966858E0,2.806561470E0,8.317170188E0
2.902895910E1,-3.111205339E0,-4.257745743E0,2.619422197E0,5.888070153E0
2.904833776E1,2.708476782E0,3.265838623E-1,1.950909257E0,3.353885870E0
2.906768590E1,1.030122280E1,5.023110390E0,2.052943707E0,1.164308409E1
2.908706457E1,1.917271805E1,1.085448170E1,2.387992144E0,2.216112354E1
2.910644323E1,2.593205833E1,1.384911442E1,6.739339828E-1,2.940618654E1
2.912579137E1,3.021179581E1,1.201976013E1,3.437300324E-1,3.251684778E1
2.914517003E1,2.943380547E1,8.262363434E0,1.503452957E-1,3.057185237E1
2.916454870E1,2.426358604E1,3.253135681E0,-7.323093414E-1,2.449164708E1
2.918392736E1,1.736770821E1,-9.543485641E-1,-1.511442065E0,1.745945379E1
2.920330602E1,1.137246704E1,-4.912794113E0,-1.914564133E0,1.253531445E1
2.922265416E1,6.709614754E0,-8.414570808E0,-2.753354788E0,1.110877557E1
2.924203283E1,3.467862129E0,-1.096549225E1,-3.686840296E0,1.207728775E1
2.926138097E1,1.976401567E0,-1.195180511E1,-4.132716179E0,1.279965436E1
2.928075963E1,1.306129336E0,-1.232101727E1,-3.993588686E0,1.301776444E1
2.930013830E1,6.529393196E-1,-1.290506172E1,-3.850120783E0,1.348296621E1
2.931948644E1,3.258470297E-1,-1.336229515E1,-3.871457577E0,1.391564917E1
2.933886510E1,4.905390143E-1,-1.311016178E1,-4.307626247E0,1.380842548E1
2.935821325E1,7.635376453E-1,-1.298403358E1,-5.017105103E0,1.394056891E1
2.937759191E1,7.508558035E-1,-1.291212559E1,-5.646051407E0,1.411257128E1
2.939697057E1,7.689691782E-1,-1.249386597E1,-6.198215961E0,1.396803070E1
2.941631872E1,9.250187874E-1,-1.191038132E1,-6.595435143E0,1.364597404E1
2.943569738E1,1.791048765E0,-1.110312939E1,-6.767685413E0,1.312588678E1
2.945507604E1,3.088774204E0,-9.982750893E0,-6.627068520E0,1.237391929E1
2.947445470E1,5.802628994E0,-7.845360756E0,-5.766749382E0,1.133470719E1
2.949383336E1,1.190892220E1,-3.904426575E0,-4.277247429E0,1.324242502E1
2.951318151E1,2.019602966E1,1.823163986E0,-3.582622528E0,2.059220059E1
2.953256017E1,2.594477081E1,6.546385765E0,-3.900039196E0,2.704064727E1
2.955190832E1,3.049661064E1,8.546781540E0,-3.625230789E0,3.187841015E1
2.957128698E1,3.281206131E1,1.238998222E1,-1.748480439E0,3.511695048E1
2.959066564E1,2.816001320E1,1.373341465E1,3.482979536E-1,3.133232090E1
2.961001378E1,1.976231384E1,1.142270947E1,1.443759441E0,2.287163705E1
2.962939245E1,1.151054096E1,6.047490120E0,1.299035311E0,1.306721787E1
2.964874059E1,5.502603531E0,3.053855896E-2,6.487939358E-1,5.540804255E0
2.966811925E1,1.424909830E0,-4.845892906E0,1.998432875E-1,5.054995887E0
2.968749792E1,-1.185399532E0,-7.441193581E0,1.368147135E-1,7.536262484E0
2.970684606E1,-2.611829996E0,-8.063838005E0,6.785343289E-1,8.503384511E0
2.972622472E1,-3.951370478E0,-8.383720398E0,1.224953651E0,9.348829221E0
2.974560338E1,-4.709924698E0,-8.758268356E0,1.544325352E0,1.006357770E1
2.976498205E1,-4.845235825E0,-8.604780197E0,1.330273628E0,9.964345456E0
2.978436071E1,-4.506475925E0,-8.381249428E0,6.231759191E-1,9.536352314E0
2.980370885E1,-4.021172523E0,-8.220117569E0,-2.586120367E-1,9.154618588E0
2.982308752E1,-3.503565073E0,-7.947499275E0,-9.181320667E-1,8.733881121E0
2.984243566E1,-3.241294861E0,-7.720203400E0,-1.086350679E0,8.443203818E0
2.986181432E1,-3.548293829E0,-7.662937164E0,-1.005080700E0,8.504186163E0
2.988119298E1,-3.834809303E0,-7.687340736E0,-1.019594431E0,8.651042873E0
2.990054113E1,-3.931370735E0,-7.812530518E0,-9.593756795E-1,8.798392503E0
2.991991979E1,-3.737355232E0,-7.959731102E0,-9.971044660E-1,8.849822635E0
2.993926794E1,-3.506231546E0,-8.164467812E0,-1.008026123E0,8.942500264E0
2.995864660E1,-3.406861544E0,-8.457430840E0,-9.419273138E-1,9.166355276E0
2.997802526E1,-3.096427917E0,-8.492001534E0,-9.821148515E-1,9.092112267E0
2.999737340E1,-1.604096889E0,-7.318553925E0,-1.425033092E0,7.626603287E0
