"Time (s)","Linear Acceleration x (m/s^2)","Linear Acceleration y (m/s^2)","Linear Acceleration z (m/s^2)","Absolute acceleration (m/s^2)"
1.446734370E-1,2.984287262E0,-1.525536442E1,-2.608570457E-1,1.554670899E1
1.640520990E-1,2.303896666E0,-1.606399155E1,-4.032372832E-1,1.623337194E1
1.834307610E-1,1.989997149E0,-1.483613396E1,-7.063478231E-2,1.496916660E1
2.027789050E-1,2.204989672E0,-1.155560589E1,1.029785156E0,1.180908398E1
2.221575680E-1,3.232676029E0,-8.877638817E0,1.720544815E0,9.603277552E0
2.415057120E-1,4.430697441E0,-7.722501755E0,8.837602139E-1,8.947018793E0
2.608843740E-1,4.629187107E0,-7.152783394E0,4.321005940E-1,8.531025406E0
2.802630360E-1,4.679682255E0,-6.826546669E0,6.865950823E-1,8.304973103E0
2.996416980E-1,4.178307533E0,-6.086581230E0,6.820921898E-1,7.414173903E0
3.190203610E-1,4.788799286E0,-4.252927780E0,-8.188440800E-1,6.456818019E0
3.383685050E-1,5.961549282E0,1.556911469E0,3.726048708E0,7.200519574E0
3.577471670E-1,7.064230919E0,1.195857430E1,-2.376919508E0,1.409115339E1
3.771258290E-1,5.947154522E0,3.213456345E1,-7.275398254E0,3.348029621E1
3.964739740E-1,9.089991570E0,3.282317734E1,-1.124899960E1,3.586821586E1
4.158526360E-1,1.525916958E1,2.879247284E1,-6.395885468E0,3.320777167E1
4.352007800E-1,1.517316341E1,2.311899567E1,2.471032619E0,2.776362460E1
4.545794430E-1,8.679409981E0,1.734069443E1,2.549011707E-1,1.939321571E1
4.739581050E-1,4.963928223E0,9.910751343E0,4.760984421E0,1.206360428E1
4.933062490E-1,2.795778990E0,2.425448418E0,4.835214615E0,6.089210175E0
5.126849110E-1,1.074052334E0,-3.865469933E0,-6.441473961E-3,4.011918208E0
5.320330560E-1,1.428709745E0,-9.477690697E0,-2.243425369E0,9.843819882E0
5.514117180E-1,1.067037344E0,-1.533926678E1,-9.089025259E-1,1.540317428E1
5.707903800E-1,1.804764509E0,-1.846090698E1,1.923169136E0,1.864834687E1
5.901690420E-1,1.819319248E0,-1.748069763E1,1.679939747E0,1.765522330E1
6.095477040E-1,1.840239525E0,-1.237705898E1,7.429860830E-1,1.253515452E1
6.288958490E-1,3.051067352E0,-9.906118393E0,6.656177044E-1,1.038668573E1
6.482745110E-1,3.832276821E0,-8.153791428E0,9.076753855E-1,9.055083373E0
6.676531730E-1,4.612655640E0,-6.898008347E0,1.122978210E0,8.373779986E0
6.870013180E-1,4.943165779E0,-6.613440514E0,1.260712028E0,8.352357641E0
7.063799800E-1,4.321997643E0,-7.477219582E0,1.702531219E0,8.802675096E0
7.257281240E-1,3.518051624E0,-8.389581680E0,1.679226518E0,9.251030737E0
7.451067860E-1,2.921488762E0,-9.052400589E0,8.442380428E-1,9.549544014E0
7.644854480E-1,2.951838732E0,-9.780856133E0,7.363989353E-1,1.024308459E1
7.838335930E-1,2.956907034E0,-9.497304916E0,6.881030798E-1,9.970736469E0
8.032122550E-1,3.008424997E0,-8.227006912E0,1.636338711E0,8.911333687E0
8.225909170E-1,4.068985939E0,-4.308346748E0,3.570067167E0,6.918372486E0
8.419390620E-1,5.273344994E0,3.235620499E0,3.532640219E0,7.124391507E0
8.613177240E-1,6.660890579E0,3.209021378E1,-4.180628777E0,3.303977815E1
8.806963860E-1,9.054807663E0,6.238284683E1,-1.008429241E1,6.383809266E1
9.000750480E-1,1.193320084E1,2.155389786E1,9.132335186E-1,2.465371758E1
9.194537100E-1,1.090197182E1,1.157040501E1,1.517076015E0,1.596962057E1
9.388018550E-1,9.343868256E0,1.307982445E1,7.965373993E-2,1.607470144E1
9.581805170E-1,5.174584389E0,8.077897072E0,5.769073009E0,1.119423727E1
9.775286610E-1,2.076292276E0,2.224859238E0,5.183018684E0,6.010380265E0
9.969073230E-1,1.474497557E0,-4.386158943E0,1.281998158E-1,4.629143389E0
1.016285986E0,1.767803192E0,-8.586465836E0,-1.019317150E0,8.825617889E0
1.035634130E0,1.307915926E0,-1.305775547E1,-7.399796247E-1,1.314394126E1
1.055012792E0,2.724899530E0,-1.564245319E1,4.988504410E0,1.664321470E1
1.074360937E0,2.773655415E0,-1.431419945E1,1.993543625E0,1.471610296E1
1.093739599E0,2.046848297E0,-1.210385990E1,2.641330957E-1,1.227854954E1
1.113118261E0,2.333865166E0,-1.057120991E1,1.454460502E0,1.092304266E1
1.132466405E0,2.647922754E0,-9.146235466E0,2.450255394E0,9.832032832E0
1.151845068E0,3.476762772E0,-7.781469345E0,2.634361267E0,8.920706464E0
1.171223730E0,4.281366348E0,-6.834811211E0,3.257048368E0,8.697879406E0
1.190602392E0,3.649153709E0,-5.966244698E0,2.585782290E0,7.456451477E0
1.209981054E0,2.981862545E0,-4.490043640E0,1.625540495E0,5.629776019E0
1.229329198E0,2.974379301E0,-1.514919281E0,1.616297245E0,3.708682979E0
1.248707861E0,5.918395042E0,3.459773064E0,-1.382958412E0,6.993568724E0
1.268056005E0,6.717556000E0,2.647655106E1,-8.049335480E0,2.847674694E1
1.287434667E0,1.087637234E1,4.311376190E1,-9.254314423E0,4.541733453E1
1.306813329E0,1.508088684E1,2.770554352E1,6.152195930E-1,3.155009960E1
1.326161474E0,1.095700264E1,2.604957008E1,-1.643645048E0,2.830790662E1
1.345540136E0,8.233702660E0,2.157158089E1,-1.022605896E0,2.311217610E1
1.364918798E0,6.571249008E0,1.392418385E1,5.114777565E0,1.622421520E1
1.384266943E0,3.860335112E0,5.959073067E0,8.385278702E0,1.098752192E1
1.403645605E0,2.177026749E0,-1.796079636E0,4.865231991E0,5.624573748E0
1.422993749E0,2.047365665E0,-8.032002449E0,-1.985855579E0,8.523402601E0
1.442372411E0,1.694628000E0,-1.357378674E1,-3.159521580E0,1.403930294E1
1.461781591E0,5.062711239E-1,-1.818083763E1,1.568589091E0,1.825540027E1
1.481129736E0,1.895012379E0,-1.774216080E1,3.880144596E0,1.826008937E1
1.500508398E0,1.871272326E0,-1.362397480E1,2.606316805E0,1.399668663E1
1.519856542E0,2.289344788E0,-1.034172153E1,1.551668048E0,1.070513791E1
1.539235204E0,3.154434919E0,-7.912268639E0,2.378183842E0,8.843653829E0
1.558613866E0,3.876596928E0,-6.665876389E0,2.003799438E0,7.967253225E0
1.577962011E0,4.216785431E0,-6.679319382E0,1.398723602E0,8.021908407E0
1.597340673E0,4.390826225E0,-7.854559898E0,8.363217115E-1,9.037306022E0
1.616688818E0,4.265596390E0,-8.783514023E0,4.398796558E-1,9.774401530E0
1.636067480E0,4.165364265E0,-9.217121124E0,6.943378448E-1,1.013842623E1
1.655446142E0,3.967297077E0,-9.319705009E0,1.962574005E0,1.031736615E1
1.674794286E0,3.643384933E0,-9.157344818E0,2.403937340E0,1.014446315E1
1.694172948E0,3.321316719E0,-9.113834381E0,2.661499023E0,1.005866288E1
1.713521093E0,2.141381502E0,-8.186978340E0,2.596179962E0,8.851682296E0
1.732899755E0,1.862321138E0,-4.661519051E0,5.720698833E-2,5.020086904E0
1.752308935E0,4.151389122E0,7.524957657E-1,2.958880901E0,5.153179379E0
1.771657079E0,5.039455414E0,2.508995247E1,3.051900864E-1,2.559286945E1
1.791035741E0,7.368462563E0,6.463747406E1,-1.080072212E1,6.594659121E1
1.810383886E0,1.271546078E1,2.920550537E1,-1.907172680E0,3.191052796E1
1.829762548E0,1.347162056E1,1.773972130E1,-2.692582130E0,2.243729642E1
1.849141210E0,1.393687153E1,1.234159756E1,7.535743713E-1,1.863113772E1
1.868489355E0,8.211902618E0,7.518399239E0,3.964382172E0,1.181854465E1
1.887868017E0,2.044853449E0,3.102431297E0,4.814084053E0,6.081275430E0
1.907216161E0,-9.156866074E-1,-2.528410912E0,3.798123598E-1,2.715805797E0
1.926594823E0,-4.784955978E-1,-7.752868652E0,-2.840847015E0,8.270812665E0
1.945973486E0,9.160118103E-1,-1.325736237E1,1.697510600E0,1.339695028E1
1.965321630E0,3.876645327E0,-1.440664673E1,4.869253159E0,1.569361256E1
1.984700292E0,3.580149651E0,-1.393920040E1,1.319830418E0,1.445201480E1
2.004078954E0,2.649830103E0,-1.295831490E1,-5.204758644E-1,1.323670728E1
2.023457616E0,2.127447844E0,-1.087876701E1,3.759902120E-1,1.109121160E1
2.042836278E0,2.924924612E0,-9.349778175E0,9.216853976E-1,9.839869912E0
2.062184423E0,4.273892403E0,-8.486141205E0,1.221748114E0,9.579844324E0
2.081563085E0,4.457004547E0,-8.276923180E0,9.483028054E-1,9.448366264E0
2.100941747E0,4.070043564E0,-8.038411140E0,2.842423320E-1,9.014549461E0
2.120289892E0,4.734244347E0,-7.008657455E0,-2.557350993E-1,8.461663507E0
2.139668554E0,5.859873772E0,-4.060959816E0,2.541671991E-1,7.134011229E0
2.159016698E0,6.505524635E0,2.023873329E0,2.181684017E0,7.153856246E0
2.178395361E0,6.438655376E0,1.839619446E1,-5.356707573E0,2.021312864E1
2.197774023E0,7.670614243E0,4.625772858E1,-1.136019325E1,4.824593005E1
2.217122167E0,1.391670609E1,3.417170715E1,-1.012318897E1,3.826041339E1
2.236500829E0,1.736969185E1,2.472482872E1,-2.591169119E0,3.032717441E1
2.255848974E0,1.285307789E1,2.107932091E1,-9.066348076E-1,2.470549266E1
2.275227636E0,6.099342346E0,1.488182831E1,4.247109413E0,1.663456429E1
2.294606298E0,2.859573841E0,6.393218994E0,5.250720978E0,8.753312656E0
2.313984960E0,1.352369547E0,-8.794336319E-1,1.229594231E0,2.028351270E0
2.333363622E0,2.162330627E0,-6.766683578E0,-3.460211754E-1,7.112201561E0
2.352711767E0,3.482057333E0,-1.285007000E1,-4.529335976E0,1.406285557E1
2.372090429E0,2.839964867E0,-1.735517120E1,-2.990692854E-2,1.758602463E1
2.391469091E0,4.592795372E-1,-1.969551468E1,2.848482609E0,1.990573006E1
2.410817236E0,-6.424834728E-1,-1.624529266E1,3.531158566E-1,1.626182676E1
2.430195898E0,1.566980600E0,-1.050915146E1,5.265669227E-1,1.063837231E1
2.449574560E0,3.579891920E0,-7.695482254E0,2.028757572E0,8.726507352E0
2.468922704E0,3.547774076E0,-6.792389870E0,7.504329681E-1,7.699766924E0
2.488301366E0,3.713057995E0,-6.872348785E0,1.952925324E-1,7.813713373E0
2.507649511E0,4.619766712E0,-7.614999771E0,1.875888705E-1,8.908740403E0
2.527028173E0,5.018414974E0,-8.584203720E0,6.204709411E-1,9.962832255E0
2.546406835E0,4.943580627E0,-9.041715622E0,1.188817263E0,1.037327804E1
2.565754980E0,4.437208176E0,-9.215809822E0,1.593626022E0,1.035179265E1
2.585133642E0,3.699990273E0,-9.272927284E0,1.370115757E0,1.007741661E1
2.604512304E0,3.344529867E0,-9.252103806E0,3.462226391E-1,9.844144197E0
2.623890966E0,3.220489264E0,-8.781592369E0,9.815191031E-1,9.404854884E0
2.643269628E0,2.114660501E0,-6.860736847E0,1.280000806E0,7.292455086E0
2.662617773E0,3.690927982E0,-2.472182274E0,-4.383444190E-1,4.463942248E0
2.681996435E0,5.830025673E0,6.574396133E0,1.412905693E0,8.899898110E0
2.701344579E0,5.709610939E0,6.216822433E1,-9.344862938E0,6.312538505E1
2.720723241E0,1.291350651E1,5.123022079E1,3.869151354E0,5.297418716E1
2.740101903E0,1.214370537E1,8.210958481E0,-8.104414940E0,1.675025256E1
2.759450048E0,1.314239311E1,1.138904953E1,-6.442610264E0,1.854562409E1
2.778828710E0,1.444973469E1,1.166055679E1,2.865124226E0,1.878755849E1
2.798176855E0,6.517893791E0,5.222706795E0,1.213519669E1,1.473168708E1
2.817555517E0,2.401560307E0,-2.571668625E-1,2.295120955E0,3.331847370E0
2.836934179E0,5.235376358E-1,-5.731032372E0,-2.126819134E0,6.135322594E0
2.856282323E0,-1.330793858E0,-1.038055611E1,-3.975368738E0,1.119511116E1
2.875660986E0,-2.003933907E0,-1.430666828E1,8.810633421E-1,1.447317453E1
2.895039648E0,1.112486839E0,-1.437353516E1,4.504159451E0,1.510376086E1
2.914418310E0,1.472467661E0,-1.330909634E1,-7.413611412E-1,1.341080992E1
2.933796972E0,1.127328634E0,-1.212303734E1,-1.402549267E0,1.225585773E1
2.953145116E0,1.186468363E0,-9.830327034E0,-3.184993565E-1,9.906789521E0
2.972523778E0,1.873193026E0,-7.809040070E0,1.534339547E0,8.175827589E0
2.991871923E0,3.699600935E0,-6.940068245E0,2.068569422E0,8.132070694E0
3.011250585E0,4.415437698E0,-7.052234650E0,1.480951548E0,8.451231928E0
3.030629247E0,4.591817856E0,-7.360728264E0,2.013801336E-1,8.677883714E0
3.049977392E0,4.993806362E0,-6.158260345E0,-9.428099990E-1,7.984432551E0
3.069356054E0,5.527885914E0,-2.136457443E0,-1.412185431E0,6.092309970E0
3.088734716E0,6.313401222E0,5.409342766E0,3.665945530E-1,8.321923799E0
3.108082861E0,6.784195423E0,2.062743950E1,-8.289118767E0,2.324276356E1
3.127461523E0,1.034901047E1,3.504960632E1,-8.261495590E0,3.746770917E1
3.146809667E0,1.589378166E1,3.034450531E1,-4.765089989E0,3.458478539E1
3.166218847E0,1.776865196E1,2.167185974E1,-1.793654919E0,2.808223095E1
3.185597509E0,1.128190994E1,1.958161736E1,-1.771374702E0,2.266845823E1
3.204945653E0,5.630373001E0,1.500542927E1,1.626001716E0,1.610924856E1
3.224324316E0,3.259645700E0,7.716828346E0,2.704592705E0,8.802814977E0
3.243672460E0,2.669963598E0,2.628040314E-1,5.800524354E-1,2.744855625E0
3.263051122E0,2.860814571E0,-6.068614960E0,-7.270923853E-1,6.748408025E0
3.282429784E0,3.828606606E0,-1.064651108E1,-1.761188865E0,1.145024947E1
3.301777929E0,3.581649303E0,-1.626064682E1,-3.612364769E0,1.703778231E1
3.321156591E0,2.228443384E0,-1.920360374E1,-2.254063845E0,1.946343137E1
3.340504736E0,1.347458124E0,-1.623779678E1,8.936512470E-1,1.631809733E1
3.359883398E0,1.857490063E0,-1.136229134E1,-3.880509734E-1,1.151965786E1
3.379262060E0,1.964084864E0,-8.951708794E0,3.027645350E-1,9.169644815E0
3.398610204E0,3.757514000E0,-7.814214706E0,1.798362732E0,8.855222835E0
3.417988866E0,4.734926224E0,-7.307707787E0,1.043358564E0,8.769875514E0
3.437337011E0,4.663504601E0,-7.260134697E0,2.298775613E-1,8.631956596E0
3.456746191E0,4.077774525E0,-7.874255180E0,2.593685389E-1,8.871268892E0
3.476124853E0,3.349243402E0,-8.572774887E0,-2.643823624E-1,9.207594619E0
3.495472997E0,2.757444859E0,-9.251626968E0,-6.690281630E-1,9.676967624E0
3.514851659E0,3.138614178E0,-9.601791382E0,-7.631255388E-1,1.013053095E1
3.534199804E0,4.007066727E0,-9.594499588E0,-2.584639788E-1,1.040085620E1
3.553578466E0,4.095194817E0,-8.486127853E0,1.805412054E0,9.593982448E0
3.572957128E0,2.732724428E0,-5.866267204E0,3.075737476E0,7.165265852E0
3.592305273E0,4.768610954E0,-1.196570396E0,1.040571690E0,5.025357757E0
3.611683935E0,5.100433350E0,2.459912109E1,-4.436843872E0,2.551111057E1
3.631062597E0,7.359914780E0,8.020269012E1,-1.896144867E1,8.274162426E1
3.650410741E0,1.363869095E1,2.264037704E1,1.465559244E0,2.647165328E1
3.669789403E0,1.136329460E1,9.562273026E0,-1.350784302E-2,1.485132021E1
3.689137548E0,1.101308918E1,9.203659058E0,1.788226366E0,1.446351364E1
3.708516210E0,6.124734402E0,6.786943436E0,1.411298156E0,9.250228926E0
3.727894872E0,2.355729580E0,3.347701073E0,2.426054716E0,4.758393196E0
3.747273534E0,1.672883749E0,-2.883234024E0,5.083277822E-1,3.371939443E0
3.766652196E0,2.150184155E0,-8.099810600E0,-2.044458151E0,8.626125016E0
3.786000341E0,2.327773571E0,-1.053687954E1,7.910016179E-2,1.079122871E1
3.805379003E0,2.749047756E0,-1.313240623E1,5.867973566E-1,1.342988042E1
3.824757665E0,3.209525585E0,-1.622514725E1,-3.065495968E0,1.682122835E1
3.844105810E0,4.207354546E0,-1.668626785E1,-4.479570687E-1,1.721435542E1
3.863484472E0,4.424544334E0,-1.167723846E1,6.042231321E-1,1.250198290E1
3.882832616E0,3.414014816E0,-8.882924080E0,9.093745947E-1,9.559748926E0
3.902211278E0,3.400223732E0,-7.785610199E0,1.548611879E0,8.635707635E0
3.921589941E0,3.479170799E0,-6.468835831E0,2.334599972E0,7.707192970E0
3.940938085E0,3.746373653E0,-6.112559319E0,1.169510841E0,7.264052077E0
3.960316747E0,3.831734657E0,-6.146865845E0,7.586759329E-1,7.282975997E0
3.979664892E0,4.082722187E0,-4.578195572E0,3.455258012E-1,6.143930601E0
3.999043554E0,5.168740749E0,-3.198016167E0,-3.700796604E0,7.116114378E0
4.018422216E0,6.342022419E0,2.387424469E1,-7.914649963E0,2.593920762E1
4.037800878E0,1.093450260E1,6.081138611E1,-1.589413834E1,6.379821048E1
4.057179540E0,1.626570702E1,2.715797424E1,-8.331739426E0,3.273448750E1
4.076527685E0,1.506215858E1,1.824925613E1,-5.560552120E0,2.430686550E1
4.095906347E0,1.103243160E1,2.056632233E1,-3.555157185E-1,2.334126287E1
4.115285009E0,4.652789116E0,1.438856411E1,4.986317635E0,1.592302067E1
4.134633153E0,9.773349762E-2,6.753172874E0,8.150221825E0,1.058494268E1
4.154011816E0,-2.583570480E-1,-1.426602364E0,-5.582406521E-1,1.553568567E0
4.173390478E0,9.445199966E-1,-7.987385750E0,-1.479013681E0,8.177892798E0
4.192738622E0,2.529564857E0,-1.150735855E1,-6.184226871E-1,1.179832386E1
4.212117284E0,2.768732071E0,-1.312108517E1,-1.728904963E0,1.352101570E1
4.231465429E0,3.716958523E0,-1.695587730E1,-1.873992205E0,1.745936432E1
4.250844091E0,5.847603321E0,-1.860237503E1,4.082366228E-1,1.950408876E1
4.270222753E0,6.397731304E0,-1.336935234E1,4.512928724E-1,1.482815609E1
4.289570898E0,6.052555084E0,-8.562357903E0,1.700789928E-1,1.048695965E1
4.308949560E0,5.343139172E0,-6.489150047E0,2.823460400E-1,8.410584036E0
4.328328222E0,5.456278324E0,-5.717130661E0,-5.376973748E-1,7.921216738E0
4.347706884E0,5.563323498E0,-6.827306747E0,-6.803941727E-1,8.833211307E0
4.367085546E0,5.336405277E0,-8.310481071E0,-1.788241267E-1,9.877919568E0
4.386433691E0,4.355595589E0,-9.239102364E0,-3.583556712E-1,1.022059901E1
4.405812353E0,3.793927193E0,-9.623711586E0,-1.041710258E0,1.039686821E1
4.425160497E0,3.992503643E0,-9.434721947E0,-7.757470012E-3,1.024471199E1
4.444539159E0,4.362923622E0,-8.997162819E0,1.845621824E0,1.016810510E1
4.463917821E0,3.258308887E0,-7.084366798E0,3.608915091E0,8.592386041E0
4.483265966E0,1.678481102E0,-3.932790756E0,5.195333004E0,6.728716591E0
4.502644628E0,2.828020096E0,-2.806195259E0,-3.466051817E-2,3.984172542E0
4.521992773E0,-2.766284943E-1,2.354415894E1,-3.742244959E0,2.384131583E1
4.541371435E0,2.532428503E0,7.168589020E1,-1.747274399E1,7.382802198E1
4.560750097E0,1.562582016E1,2.979906654E1,-1.040521526E1,3.521958443E1
4.580098241E0,1.950452995E1,1.098415279E1,-7.885248661E-1,2.239866230E1
4.599507421E0,1.724941444E1,6.731875420E0,2.965079308E0,1.875239026E1
4.618855566E0,7.278304577E0,6.912170410E0,6.368421078E0,1.188732957E1
4.638234228E0,3.140755653E0,3.730964661E-1,3.109663010E0,4.435487694E0
4.657612890E0,2.216527224E0,-4.879797935E0,-8.316941857E-1,5.423756636E0
4.676961034E0,1.910449982E0,-8.873538971E0,-7.821922898E-1,9.110506999E0
4.696339696E0,1.852367163E0,-1.115791321E1,9.693269730E-1,1.135208730E1
4.715718359E0,1.778314590E0,-1.222609425E1,2.045248747E0,1.252289207E1
4.735066503E0,9.167861938E-1,-1.497334862E1,-4.534111977E0,1.567162522E1
4.754445165E0,6.483407021E-1,-1.648984528E1,-6.447261333E0,1.771729442E1
4.773793310E0,2.221087933E0,-1.353578186E1,-2.278516054E0,1.390475665E1
4.793171972E0,3.501304626E0,-1.003266048E1,4.813440144E-1,1.063696867E1
4.812550634E0,3.932118893E0,-8.821730614E0,1.097563148E0,9.720552190E0
4.831898778E0,4.620439053E0,-7.425827980E0,3.585275650E0,9.452279075E0
4.851277441E0,4.708666801E0,-5.841466904E0,3.095842361E0,8.116558295E0
4.870625585E0,4.246128559E0,-4.387655258E0,4.505957365E-1,6.122431128E0
4.890034765E0,3.710099936E0,-3.029298782E0,-1.854973912E0,5.136382079E0
4.909443945E0,2.513009548E0,2.191201973E1,-7.897455215E0,2.342694228E1
4.928761571E0,6.331177711E0,6.283583069E1,-1.491389656E1,6.489106056E1
4.948140234E0,1.670004463E1,3.402871323E1,-7.964120865E0,3.873334527E1
4.967488378E0,1.667330360E1,1.740353584E1,-2.359507322E0,2.421671711E1
4.986867040E0,1.464308929E1,1.612360001E1,-3.399217606E0,2.204416525E1
5.006245702E0,8.879837990E0,1.211461735E1,6.499022484E0,1.636620816E1
5.025593847E0,4.080009460E0,4.351349831E0,4.032876968E0,7.200334658E0
5.044972509E0,2.412631273E0,-3.783369064E0,-1.096571684E0,4.619214283E0
5.064320653E0,2.538451195E0,-8.634490013E0,-1.123200655E0,9.069715098E0
5.083699316E0,3.376397133E0,-1.092909431E1,2.611905336E-1,1.144173853E1
5.103077978E0,2.360856533E0,-1.294813442E1,-7.194498181E-1,1.318125323E1
5.122426122E0,2.839226723E-1,-1.791996956E1,-2.734707355E0,1.812965927E1
5.141804784E0,2.176913261E0,-1.954370117E1,-2.040001750E-1,1.966562541E1
5.161152929E0,4.323342323E0,-1.183516598E1,9.893580675E-1,1.263887938E1
5.180562109E0,5.649763584E0,-7.999015808E0,6.846184134E-1,9.816964135E0
5.199940771E0,5.481544018E0,-6.647794724E0,7.595568895E-1,8.649706710E0
5.219288915E0,5.193760872E0,-6.281274796E0,-2.756870091E-1,8.155094627E0
5.238667577E0,5.213977337E0,-7.025096893E0,-2.563692927E-1,8.752329475E0
5.258015722E0,4.607740402E0,-8.007904053E0,-2.631143332E-1,9.242674293E0
5.277394384E0,3.746886730E0,-8.553721428E0,-6.573495865E-1,9.361485935E0
5.296773046E0,2.983137131E0,-8.822151184E0,-8.681460619E-1,9.353242018E0
5.316121191E0,2.723839760E0,-8.969520569E0,-3.257561922E-1,9.379643883E0
5.335499853E0,2.914024830E0,-9.233088493E0,4.327146709E-2,9.682114245E0
5.354878515E0,2.467603207E0,-8.675816536E0,1.596596837E0,9.160129891E0
5.374226659E0,1.795445442E0,-5.937268257E0,9.425550699E-1,6.274008986E0
5.393605321E0,4.970756531E0,-4.104537964E0,4.432877541E0,7.823429918E0
5.412953466E0,4.405978203E0,2.417944908E0,-5.203069687E0,7.234019330E0
5.432332128E0,2.637135983E0,9.908410645E1,-1.542886543E1,1.003128333E2
5.451710790E0,1.726858139E1,3.948141098E1,2.240311146E0,4.315095260E1
5.471089452E0,1.389644527E1,5.724998474E0,-9.332471848E0,1.769129248E1
5.490468114E0,1.406222343E1,6.286364555E0,-2.277645588E0,1.557087591E1
5.509816259E0,1.055378914E1,5.312062263E0,1.006941891E1,1.552397075E1
5.529194921E0,5.435294151E0,8.544864655E-1,3.466353893E0,6.502936179E0
5.548573583E0,3.137322903E0,-4.338366508E0,-9.467832446E-1,5.436967672E0
5.567921728E0,5.912983418E-1,-8.255600929E0,-2.347630501E0,8.603252257E0
5.587300390E0,-1.852536201E0,-1.364122581E1,-4.378698826E0,1.444603529E1
5.606648534E0,-2.732091188E0,-1.621096230E1,-1.963236332E-1,1.644074706E1
5.626027196E0,-2.569644451E-1,-1.344859219E1,2.986961842E0,1.377870108E1
5.645405859E0,2.043425798E0,-1.166358852E1,4.737583399E-1,1.185071024E1
5.664754003E0,3.553180456E0,-1.039435768E1,-6.964462996E-2,1.098510871E1
5.684132665E0,3.179446936E0,-9.121991158E0,8.457347155E-1,9.697157970E0
5.703480810E0,3.429382801E0,-7.452288628E0,1.940487623E0,8.429873332E0
5.722859472E0,3.840317726E0,-7.173635483E0,1.341462374E0,8.246733146E0
5.742238134E0,3.581189394E0,-7.810461044E0,-6.341186166E-1,8.615702271E0
5.761616796E0,3.382215023E0,-7.055689812E0,-2.766963243E0,8.299290498E0
5.780995458E0,4.055747986E0,-4.786513329E0,-3.751922607E0,7.310042737E0
5.800374120E0,5.892125607E0,1.460952759E-1,-3.844904900E0,7.037171426E0
5.819722265E0,8.759370804E0,1.612292862E1,-1.149457574E0,1.838468539E1
5.839131445E0,1.024721718E1,4.728545761E1,-9.867903709E0,4.937909968E1
5.858449071E0,1.673147202E1,3.326765442E1,-6.211435318E0,3.775262792E1
5.877827734E0,1.762165451E1,2.432079697E1,-2.869714499E0,3.017050106E1
5.897206396E0,1.486277962E1,1.941094208E1,-4.039502740E-1,2.445097270E1
5.916554540E0,7.025668621E0,1.409217548E1,3.908724546E0,1.622428911E1
5.935933202E0,3.582547426E0,5.535246849E0,6.953411102E-1,6.630015309E0
5.955281347E0,1.926906347E0,-1.534565926E0,6.979900002E-1,2.560283323E0
5.974660009E0,7.703671455E-1,-7.770689011E0,5.167933106E-1,7.825864078E0
5.994038671E0,3.819057941E-1,-1.306334305E1,-3.336563587E0,1.348812219E1
6.013386816E0,2.947816849E-1,-1.702637100E1,-5.538207054E0,1.790686860E1
6.032795995E0,1.558863401E0,-1.847727203E1,-1.871084094E0,1.863707575E1
6.052144140E0,3.166353941E0,-1.497703934E1,-5.840996504E-1,1.531922573E1
6.071553320E0,4.119027138E0,-1.045413589E1,5.282711983E-1,1.124875159E1
6.090901464E0,4.138781071E0,-8.436381340E0,4.380781651E-1,9.407122373E0
6.110249609E0,3.853270531E0,-7.152720451E0,-5.234381557E-1,8.141442817E0
6.129628271E0,3.664901018E0,-6.665634155E0,-1.298484206E0,7.716750573E0
6.148976415E0,3.080122709E0,-7.339235306E0,-1.521179438E0,8.103426291E0
6.168355077E0,2.654244423E0,-8.516052246E0,-1.771461725E0,9.094296892E0
6.187733739E0,2.376681566E0,-9.563280106E0,-1.649158955E0,9.991229499E0
6.207081884E0,2.397341013E0,-1.024395561E1,-7.780267000E-1,1.054946425E1
6.226460546E0,2.606723547E0,-1.033793163E1,-3.004668355E-1,1.066574509E1
6.245808691E0,2.358486414E0,-9.904949188E0,-4.125356674E-2,1.018195357E1
6.265187353E0,1.718647242E0,-9.166983604E0,-8.501193523E-1,9.365363829E0
6.284566015E0,7.758626938E-1,-8.403291702E0,-8.583207726E-1,8.482569711E0
6.303914159E0,1.557466030E0,-4.558664322E0,-5.684152842E-1,4.850795478E0
6.323323339E0,5.261219025E0,2.808323860E0,1.700452447E0,6.201503612E0
6.342702001E0,4.383695602E0,5.598848724E1,-1.157151413E1,5.733957996E1
6.362050146E0,1.633650780E1,6.554085541E1,-5.591838360E0,6.777723711E1
6.381428808E0,1.726709557E1,9.829265594E0,-5.411717892E0,2.059256521E1
6.400776952E0,1.533220863E1,6.908363342E0,-7.831005573E0,1.855065373E1
6.420155614E0,1.266385555E1,1.151274204E1,6.224047542E-1,1.712611615E1
6.439503759E0,6.737299919E0,5.073760033E0,6.609873772E0,1.071562795E1
6.458882421E0,3.480892658E0,-4.503087997E-1,3.434618473E0,4.910803984E0
6.478261083E0,9.457159042E-1,-5.774888039E0,-2.367419958E0,6.312557935E0
6.497609228E0,-2.791037560E-1,-9.364610672E0,-2.623486996E0,9.729158029E0
6.516987890E0,-1.563753843E0,-1.507711601E1,-3.103909016E0,1.547252418E1
6.536397070E0,-1.817908525E0,-1.678320122E1,4.808278680E-1,1.688821571E1
6.555714696E0,-1.245722055E0,-1.442459869E1,-1.312111855E0,1.453762389E1
6.575093359E0,2.852635384E-1,-1.245351028E1,-2.128464460E0,1.263731200E1
6.594472021E0,1.745953321E0,-1.071716785E1,-9.512214065E-1,1.090003954E1
6.613850683E0,2.645786285E0,-8.918943405E0,1.831724405E0,9.481716660E0
6.633229345E0,4.070734978E0,-7.839607239E0,1.718104362E0,8.999011474E0
6.652577489E0,3.899570465E0,-7.334663391E0,-7.039337158E-1,8.336633586E0
6.671956152E0,4.420609474E0,-7.378488541E0,-2.799481153E0,9.045494790E0
6.691304296E0,4.856646061E0,-7.144152641E0,-1.402511716E0,8.751740800E0
6.710682958E0,4.894866943E0,-4.307959557E0,-1.330559254E-1,6.521958434E0
6.730061620E0,5.615092278E0,1.307204247E0,1.093353152E0,5.868003523E0
6.749409765E0,6.346010208E0,1.959803009E1,-9.505520821E0,2.268721127E1
6.768818945E0,7.312526703E0,4.907175064E1,-1.591458702E1,5.210358757E1
6.788136571E0,1.573680687E1,2.963401794E1,-8.393382072E0,3.458715040E1
6.807515234E0,1.898800659E1,1.896535492E1,-4.536521435E-2,2.683712242E1
6.826893896E0,1.269091606E1,2.086874771E1,-6.138139725E0,2.518413669E1
6.846242040E0,7.583248138E0,1.538042259E1,-2.062750340E0,1.727188439E1
6.865620702E0,4.159095764E0,7.942853928E0,4.411801338E0,9.992547080E0
6.884999364E0,2.669670105E0,6.756219864E-1,2.526830912E0,3.737442708E0
6.904378027E0,2.465724468E0,-5.467304230E0,-1.420098066E0,6.163431772E0
6.923756689E0,2.366160870E0,-9.226663589E0,-1.142437935E0,9.593497938E0
6.943104833E0,1.513962746E0,-1.465828896E1,-3.597310543E0,1.516898683E1
6.962483495E0,3.929889202E-1,-1.833016777E1,-2.327854395E0,1.848156911E1
6.981862157E0,3.148684502E-1,-1.715105438E1,-5.244597197E-1,1.716195987E1
7.001240820E0,9.305396080E-1,-1.253901482E1,-2.136944532E0,1.275379663E1
7.020588964E0,1.580400229E0,-9.522422791E0,-2.047292709E0,9.867401285E0
7.039937109E0,3.726778269E0,-8.398161888E0,1.314995289E-1,9.188867802E0
7.059315771E0,4.654247284E0,-7.516151428E0,-2.908281088E-1,8.845288636E0
7.078694433E0,4.852276802E0,-7.216583252E0,-1.465772152E0,8.818852079E0
7.098042577E0,4.944107056E0,-7.691007614E0,-1.601256609E0,9.282231166E0
7.117421239E0,4.057350636E0,-8.298487663E0,-1.285705566E0,9.326308513E0
7.136769384E0,2.140346289E0,-8.798508644E0,-1.151199341E0,9.127984253E0
7.156148046E0,1.409787893E0,-9.509892464E0,-6.025606394E-1,9.632685809E0
7.175557226E0,2.201688290E0,-1.030522251E1,-1.751718521E-1,1.053924701E1
7.194905370E0,2.357713461E0,-1.019073772E1,9.103811383E-1,1.049946389E1
7.214284032E0,1.705714941E0,-8.819787979E0,4.784616232E-1,8.995946253E0
7.233662695E0,2.678607225E0,-4.380250931E0,-6.455383897E-1,5.174770980E0
7.253010839E0,5.343107224E0,1.536788940E0,4.293201923E0,7.024393056E0
7.272389501E0,4.553407669E0,3.557300949E1,-9.415533066E0,3.707862981E1
7.291737646E0,9.040304184E0,5.227948761E1,-1.864280319E1,5.623545177E1
7.311116308E0,1.468858337E1,2.324404144E1,-7.075049877E0,2.839183465E1
7.330464452E0,1.821268654E1,1.781463242E1,3.394064188E0,2.570180443E1
7.349843114E0,1.411686134E1,1.307472420E1,-8.384119272E-1,1.925972797E1
7.369221777E0,6.611871719E0,7.741856575E0,-5.938240290E-1,1.019832427E1
7.388569921E0,3.014196157E0,3.090597153E0,3.036584377E0,5.278069147E0
7.407948583E0,1.529931307E0,-2.480419159E0,-4.574360549E-1,2.949985890E0
7.427327245E0,5.252459049E-1,-6.873844147E0,-1.031718016E0,6.970656976E0
7.446675390E0,7.778251171E-1,-1.059134007E1,-1.976066828E-2,1.061988167E1
7.466084570E0,1.699278831E0,-1.507999516E1,-3.790905952E0,1.564176366E1
7.485432714E0,3.050895452E0,-1.615496635E1,-4.060895920E0,1.693463246E1
7.504811376E0,2.878665447E0,-1.373079300E1,-6.201900840E-1,1.404300633E1
7.524190038E0,2.293504953E0,-1.093069935E1,-1.306980848E-2,1.116872974E1
7.543538183E0,2.135352850E0,-8.944957733E0,1.502243161E0,9.318193771E0
7.562916845E0,2.687504768E0,-8.209019661E0,2.250030041E0,8.925991310E0
7.582264989E0,3.543107986E0,-7.708353996E0,2.547899485E0,8.857997930E0
7.601643652E0,3.784370899E0,-7.521997452E0,1.624348402E0,8.575570914E0
7.621022314E0,3.814763546E0,-6.971727371E0,7.102403641E-1,7.978837310E0
7.640370458E0,3.489048958E0,-4.807507515E0,6.706149578E-1,5.977902271E0
7.659749120E0,5.306041241E0,-8.316411972E-1,-2.751803398E-2,5.370889868E0
7.679097265E0,6.124086380E0,6.975377083E0,-6.090773582E0,1.110215485E1
7.698506445E0,6.469695091E0,3.684005737E1,-1.225068569E1,3.935893903E1
7.717854589E0,1.251040077E1,4.909113693E1,-1.410238934E1,5.258637882E1
7.737202734E0,1.798008919E1,2.393865013E1,1.568911076E0,2.998006103E1
7.756611913E0,1.575561714E1,2.035666275E1,-3.358237267E0,2.595979483E1
7.775960058E0,1.012521458E1,1.527724361E1,3.642035961E0,1.868632036E1
7.795338720E0,5.116530418E0,8.570567131E0,4.370030880E0,1.089636060E1
7.814717382E0,2.535176516E0,4.484224319E-1,1.079622209E-1,2.576792286E0
7.834065527E0,1.168821335E0,-5.119588852E0,-1.394422412E0,5.433299843E0
7.853444189E0,3.145925999E-1,-1.103543472E1,-7.759702682E0,1.349417555E1
7.872792333E0,-9.631314278E-1,-1.679516792E1,-4.677762985E0,1.746100668E1
7.892170995E0,-4.393191338E-1,-1.914135361E1,3.564061403E0,1.947529083E1
7.911549657E0,2.099056244E0,-1.517045975E1,3.204908371E0,1.564673524E1
7.930928320E0,2.595776558E0,-1.045679951E1,-9.025154710E-1,1.081190298E1
7.950276464E0,3.511832952E0,-9.425352097E0,-9.755004644E-1,1.010553482E1
7.969655126E0,3.413517237E0,-8.038578987E0,6.012015343E-1,8.753987397E0
7.989003271E0,4.153777122E0,-7.252670288E0,1.660382748E-2,8.357952284E0
8.008381933E0,4.976127625E0,-7.658620834E0,-6.082362533E-1,9.153484067E0
8.027760595E0,5.312420845E0,-8.474722862E0,-4.473419487E-1,1.001213552E1
8.047139257E0,4.724932194E0,-9.363592148E0,2.014604807E-1,1.049011098E1
8.066517919E0,3.245587587E0,-9.608250618E0,1.173774526E-1,1.014229245E1
8.085866064E0,2.458480597E0,-9.534594536E0,-7.299413681E-1,9.873471234E0
8.105244726E0,2.768765688E0,-9.342546463E0,-1.414906383E-1,9.745217158E0
8.124592870E0,2.067888260E0,-8.236393929E0,1.002480626E0,8.550983230E0
8.143971532E0,5.077805519E-1,-5.847801208E0,2.951772511E-2,5.869880012E0
8.163350195E0,4.071631432E0,-1.318321228E0,4.510296822E0,6.217630641E0
8.182698339E0,5.204520226E0,1.215353966E1,-2.253104687E0,1.341163814E1
8.202077001E0,5.272484779E0,6.613871765E1,-1.454812050E1,6.792478839E1
8.221425146E0,1.352943802E1,3.129760742E1,-8.125773430E0,3.505159222E1
8.240803808E0,1.570159531E1,1.553292179E1,-1.310937405E-1,2.208684994E1
8.260182470E0,1.620718765E1,1.164407063E1,-4.532791376E-1,1.996153236E1
8.279530614E0,1.017446041E1,7.047167778E0,7.756023407E-1,1.240095873E1
8.298909277E0,3.543760538E0,4.698834419E0,6.619644642E0,8.857594416E0
8.318287939E0,1.561832190E0,-1.543254852E0,3.093515158E0,3.793519653E0
8.337666601E0,1.039028406E0,-6.378370285E0,-2.278221369E0,6.852260950E0
8.357045263E0,1.925659180E-1,-1.068365669E1,-1.689519137E-1,1.068672760E1
8.376393407E0,-2.493419647E-1,-1.552407932E1,2.077358514E-1,1.552747128E1
8.395772070E0,2.208141804E0,-1.580137730E1,-1.113320470E0,1.599371430E1
8.415120214E0,2.015403032E0,-1.321879673E1,-7.295012474E-1,1.339143788E1
8.434498876E0,1.490680695E0,-1.069517136E1,-1.256890059E0,1.087145767E1
8.453877538E0,1.865881205E0,-9.659680367E0,2.699663341E-1,9.841941845E0
8.473225683E0,2.667593718E0,-8.318412781E0,2.114094257E0,8.987849685E0
8.492604345E0,3.911875248E0,-6.776981354E0,2.565302849E0,8.234744861E0
8.511983007E0,3.890616894E0,-6.144071579E0,2.057104826E0,7.557658080E0
8.531331152E0,3.391880989E0,-5.823456764E0,8.336607814E-1,6.790618207E0
8.550709814E0,3.434992790E0,-5.201482773E0,-7.660812736E-1,6.280245140E0
8.570057958E0,5.401955128E0,-2.724620819E0,-9.253883362E-2,6.050887641E0
8.589436620E0,6.900582314E0,3.758748055E0,-1.021584034E0,7.924005120E0
8.608845800E0,5.945868969E0,2.051818085E1,-7.613699913E0,2.267856983E1
8.628193945E0,7.142522335E0,3.951232147E1,-9.001171112E0,4.114924367E1
8.647572607E0,1.395671844E1,3.177872086E1,-8.714202881E0,3.578567340E1
8.666920751E0,1.791171265E1,2.369945526E1,-1.562166214E-2,2.970679844E1
8.686299413E0,1.354103470E1,1.869432831E1,-1.589694977E0,2.313794852E1
8.705678075E0,8.308156967E0,1.383190918E1,-3.568096161E-1,1.613922231E1
8.725026220E0,5.097614288E0,7.491027832E0,1.327493429E0,9.157696666E0
8.744404882E0,2.314705610E0,1.176867485E0,3.001869678E0,3.969143573E0
8.763753027E0,1.449086905E0,-5.688838959E0,5.862258673E-1,5.899695104E0
8.783131689E0,1.057344437E0,-1.089943695E1,-3.863908648E-1,1.095741762E1
8.802510351E0,2.927272320E-1,-1.630076027E1,-1.291714430E0,1.635447953E1
8.821858495E0,7.803890705E-1,-1.883885002E1,1.585668683E0,1.892156501E1
8.841237157E0,1.858074427E0,-1.606621552E1,2.919799089E0,1.643474820E1
8.860615820E0,1.488157988E0,-1.104233170E1,1.260962725E0,1.121328366E1
8.879963964E0,2.202096939E0,-9.232443810E0,7.336775064E-1,9.519744340E0
8.899373144E0,2.959490776E0,-7.765322685E0,1.744847536E0,8.491367086E0
8.918721288E0,3.919228077E0,-6.788543701E0,1.652474284E0,8.010951602E0
8.938099950E0,4.504633904E0,-6.914824486E0,7.487230301E-1,8.286562040E0
8.957448095E0,4.506126404E0,-7.911681175E0,1.068009734E-1,9.105563169E0
8.976826757E0,4.088641167E0,-9.001850128E0,2.323031425E-2,9.886902041E0
8.996205419E0,3.630186081E0,-9.569002151E0,3.235177398E-1,1.023956624E1
9.015553564E0,3.113924503E0,-9.633355141E0,2.187120318E-1,1.012649456E1
9.034932226E0,2.932994366E0,-9.551271439E0,-1.676980257E-1,9.992865689E0
9.054310888E0,2.853670359E0,-9.631223679E0,-2.503416538E-1,1.004821253E1
9.073659032E0,2.110840321E0,-9.047949791E0,1.408053875E0,9.397002607E0
9.093029311E0,1.932963133E0,-7.138824463E0,3.953422785E0,8.386221610E0
9.112377455E0,4.976754665E0,-1.523617744E0,1.557815790E0,5.432889477E0
9.131756117E0,4.980443954E0,2.213961792E1,-2.163770676E0,2.279581995E1
9.151134779E0,7.262996674E0,6.134469986E1,-1.326194763E1,6.318071364E1
9.170513441E0,1.070073223E1,1.960285187E1,-4.920886517E0,2.286903137E1
9.189892103E0,1.357765961E1,1.841782379E1,2.022794247E0,2.297086786E1
9.209240248E0,1.751500702E1,1.678672409E1,6.200945377E-1,2.426837641E1
9.228618910E0,1.020180798E1,1.032625675E1,-2.705986500E0,1.476586697E1
9.247997572E0,3.533125639E0,6.433073997E0,3.991968393E0,8.354832703E0
9.267345717E0,2.170011282E0,-4.605321884E-1,3.910640240E0,4.496014451E0
9.286724379E0,1.886791229E0,-6.550847054E0,-9.161984921E-1,6.878444442E0
9.306072523E0,9.942355156E-1,-1.061614227E1,1.846674800E0,1.082133027E1
9.325451186E0,4.922356606E-1,-1.230085373E1,4.253620148E0,1.302484483E1
9.344829848E0,1.087232351E0,-1.338850880E1,-5.535774827E-1,1.344398341E1
9.364177992E0,2.045994282E0,-1.267078209E1,-2.856490135E0,1.314892951E1
9.383556654E0,1.962280989E0,-1.071198177E1,-2.061821222E-1,1.089218120E1
9.402904799E0,1.633420467E0,-9.110291481E0,1.536097288E0,9.382167563E0
9.422283461E0,1.977169752E0,-8.537633896E0,1.766601562E0,8.939869901E0
9.441662123E0,2.922447681E0,-8.403494835E0,1.996029377E0,9.118309008E0
9.461040785E0,3.329261303E0,-7.862175941E0,1.511737823E0,8.670821334E0
9.480419447E0,3.394675732E0,-6.825233459E0,1.093419790E0,7.700857221E0
9.499798109E0,4.340659142E0,-4.326413155E0,1.565579891E0,6.325362674E0
9.519146254E0,6.024692535E0,6.912393570E-1,-8.413896561E-1,6.122309086E0
9.538524916E0,6.456959248E0,1.600927734E1,-6.131131172E0,1.831884421E1
9.557873061E0,7.661114216E0,4.129273605E1,-8.851097107E0,4.291997952E1
9.577251723E0,1.312192631E1,3.260902405E1,-7.180539131E0,3.587608593E1
9.596630385E0,1.391775799E1,2.636643600E1,-6.971498489E0,3.061853566E1
9.615978529E0,1.408012390E1,2.116750717E1,-5.351644516E0,2.597986428E1
9.635357191E0,1.022051811E1,1.411663723E1,-8.923940659E-1,1.745092560E1
9.654705336E0,5.489167690E0,7.365305901E0,9.587890625E0,1.327803975E1
9.674083998E0,3.344753742E0,-5.208835602E-1,4.467936039E0,5.605457138E0
9.693462660E0,1.252169132E0,-7.039052963E0,1.027991176E0,7.223085214E0
9.712810805E0,-4.342994690E-1,-1.111190128E1,9.282091856E-1,1.115905634E1
9.732189467E0,-1.641817093E0,-1.673271561E1,1.237970114E0,1.685858550E1
9.751568129E0,-9.880695343E-1,-1.711264420E1,2.266038418E0,1.729028059E1
9.770946791E0,8.896374702E-1,-1.413111591E1,2.413655996E0,1.436334317E1
9.790325453E0,2.247920752E0,-1.201555634E1,-3.788291812E-1,1.222989179E1
9.809673598E0,3.228910208E0,-1.006217289E1,8.131136298E-1,1.059878947E1
9.829052260E0,3.817772150E0,-8.368961334E0,9.517802596E-1,9.247744788E0
9.848400404E0,4.446013451E0,-6.757948875E0,-2.361035943E-1,8.092753148E0
9.867779066E0,5.390465736E0,-5.829221725E0,-1.508819103E0,8.081675684E0
9.887157728E0,5.596179008E0,-6.611763000E0,-5.443495512E-1,8.679224960E0
9.906505873E0,4.884492874E0,-8.322536469E0,7.171905041E-1,9.676634029E0
9.925884535E0,3.879231691E0,-9.742094994E0,4.583968520E-1,1.049604597E1
9.945263197E0,3.085396290E0,-1.041180801E1,7.352584600E-2,1.085959587E1
9.964611342E0,2.813069105E0,-1.015417194E1,6.811818480E-1,1.055862559E1
9.983990004E0,2.618516207E0,-9.600844383E0,5.228499770E-1,9.965250227E0
1.000333815E1,1.871397734E0,-8.359998703E0,1.274006844E0,8.661108545E0
1.002271681E1,1.736085892E0,-5.401608467E0,1.883204937E0,5.978112502E0
1.004212599E1,4.780552864E0,7.507991791E-1,4.290935040E0,6.467573626E0
1.006147414E1,4.547187328E0,3.566215515E1,-8.410796165E0,3.692164290E1
1.008085280E1,1.153366280E1,6.564517212E1,-1.009350395E1,6.741062841E1
1.010020094E1,1.350805855E1,1.575020885E1,-3.673323154E0,2.107202002E1
1.011957960E1,1.251833916E1,1.960022163E1,-1.012977839E0,2.327882358E1
1.013895827E1,1.417436981E1,1.292117786E1,-2.119063616E0,1.929663254E1
1.015830641E1,9.860959053E0,4.471009254E0,1.632643700E0,1.094961016E1
1.017768507E1,3.758159399E0,2.212919235E0,5.061902523E0,6.681588940E0
1.019703322E1,1.593875647E0,-3.617633820E0,2.440827489E-1,3.960718422E0
1.021641188E1,1.209604263E0,-7.486958504E0,-8.694282770E-1,7.633714406E0
1.023579054E1,-9.310736656E-1,-1.228186417E1,-2.959978819E0,1.266777645E1
1.025513869E1,-8.253471851E-1,-1.630728912E1,2.531999350E0,1.652331375E1
1.027451735E1,2.061662912E0,-1.492609787E1,2.035329103E0,1.520465114E1
1.029386549E1,2.398754120E0,-1.217214584E1,5.646274686E-1,1.241909658E1
1.031324415E1,1.468573570E0,-1.027598667E1,-1.272401959E-1,1.038117529E1
1.033265333E1,1.617698193E0,-8.559412003E0,1.295384645E0,8.806730531E0
1.035200148E1,3.083097935E0,-7.675987244E0,2.164235830E0,8.550449682E0
1.037138014E1,3.504885912E0,-7.790569305E0,1.505627871E0,8.674336323E0
1.039072828E1,3.389626265E0,-8.134980202E0,-6.290754080E-1,8.835338418E0
1.041010695E1,3.677386284E0,-7.889636993E0,-3.352685452E0,9.327917319E0
1.042948561E1,4.682412148E0,-6.671457291E0,-3.350395441E0,8.812404638E0
1.044883375E1,6.461925507E0,-2.358677864E0,-2.249244153E-1,6.882618216E0
1.046821242E1,7.241268158E0,4.113600731E0,-5.629376411E0,1.005224126E1
1.048756056E1,6.343274117E0,3.284180450E1,-7.549982548E0,3.429028268E1
1.050693922E1,1.017995548E1,4.766458893E1,-1.143377876E1,5.006271894E1
1.052631789E1,1.723191452E1,2.385157013E1,-2.155076504E0,2.950390873E1
1.054566603E1,1.625264168E1,2.198313141E1,-3.436628819E0,2.755388985E1
1.056504469E1,1.516027451E1,1.935774422E1,-5.045373917E0,2.510003949E1
1.058442335E1,9.296094894E0,1.264621735E1,2.497879267E-1,1.569734332E1
1.060380202E1,3.158070326E0,5.821357727E0,2.941463470E0,7.246642072E0
1.062318068E1,5.166685581E-1,-1.650774956E0,1.623928666E0,2.372582700E0
1.064252882E1,5.754699707E-1,-8.000677109E0,-6.116027832E-1,8.044629131E0
1.066190748E1,1.468768597E0,-1.141060925E1,-2.345745325E0,1.174145671E1
1.068128615E1,1.560811520E0,-1.704905319E1,-1.292885661E0,1.716909726E1
1.070063429E1,2.610647202E0,-1.736374664E1,8.367885351E-1,1.757883362E1
1.072001295E1,1.476336718E0,-1.335487080E1,2.979294538E0,1.376257026E1
1.073936110E1,3.378140926E-1,-1.037234497E1,-2.578371525E0,1.069334645E1
1.075873976E1,1.869570017E0,-9.641385078E0,2.330008596E-1,9.823741023E0
1.077811842E1,3.698772192E0,-8.612007141E0,2.060696125E0,9.596564554E0
1.079746657E1,4.199419022E0,-7.987596512E0,7.748703957E-1,9.057441266E0
1.081684523E1,4.242631912E0,-7.485925674E0,-4.689866900E-1,8.617363707E0
1.083619337E1,4.064477921E0,-7.505037308E0,-8.020371199E-1,8.572562586E0
1.085557204E1,3.390556335E0,-8.320687294E0,-1.299931049E0,9.078520256E0
1.087495070E1,2.908975124E0,-9.264293671E0,-1.182779312E0,9.782036618E0
1.089432936E1,2.692722559E0,-9.445389748E0,-3.085543811E-1,9.826563391E0
1.091370802E1,2.789201736E0,-9.330118179E0,-2.737046778E-1,9.741953901E0
1.093308668E1,3.116795063E0,-9.440674782E0,1.981462389E-1,9.943843006E0
1.095243483E1,2.583348751E0,-8.288060188E0,4.626791477E0,9.837318325E0
1.097181349E1,3.666884184E0,-2.461589813E0,3.189374208E0,5.447712535E0
1.099116164E1,5.615904808E0,7.228116989E0,-1.072991371E0,9.216038873E0
1.101054030E1,3.557281494E0,5.138285828E1,-8.968600273E0,5.228085852E1
1.102991896E1,9.938301086E0,3.857361603E1,-8.511683464E0,4.073257219E1
1.104926710E1,1.166198826E1,1.875639725E1,-8.556272984E-1,2.210286194E1
1.106864577E1,1.403686619E1,1.546728992E1,-2.671476364E0,2.105724236E1
1.108799391E1,1.248609447E1,1.000275040E1,-5.938202858E0,1.706516405E1
1.110737257E1,6.701220512E0,7.315802574E0,-2.524148226E0,1.023712108E1
1.112675123E1,2.281444550E0,2.436442375E0,7.404901505E0,8.122426175E0
1.114609938E1,1.922942162E0,-4.130360603E0,1.295110226E0,4.736548930E0
1.116547804E1,1.977437258E0,-9.579517365E0,-1.390354633E0,9.879802480E0
1.118485670E1,1.427786350E0,-1.259135628E1,9.148681760E-1,1.270503091E1
1.120423536E1,1.618619680E0,-1.457612801E1,1.259963632E0,1.471974679E1
1.122361403E1,2.869079113E0,-1.292466259E1,-2.369307995E0,1.344961480E1
1.124296217E1,3.693644524E0,-1.062388992E1,-1.707826495E0,1.137658641E1
1.126234083E1,3.802392244E0,-9.457607269E0,1.113453507E0,1.025398950E1
1.128168898E1,3.638330936E0,-9.283936501E0,1.892367482E0,1.014938341E1
1.130106764E1,2.535714388E0,-8.578675270E0,2.200136900E0,9.212172340E0
1.132044630E1,1.536654234E0,-7.791641235E0,5.152123570E-1,7.958418382E0
1.133979445E1,2.340769529E0,-7.146903038E0,-2.957112551E0,8.080961556E0
1.135917311E1,5.016455650E0,-5.382046700E0,2.709108293E-1,7.362380501E0
1.137852125E1,6.958882332E0,-1.477971077E0,-1.003844261E0,7.184576892E0
1.139789992E1,7.440661430E0,7.341528893E0,-7.574521542E0,1.290871278E1
1.141727858E1,7.075184822E0,4.065129089E1,-7.889816284E0,4.200993802E1
1.143662672E1,1.370174503E1,3.749983978E1,-6.488928318E0,4.044851037E1
1.145600539E1,1.675270653E1,2.153874969E1,-8.710064888E0,2.864325653E1
1.147541456E1,1.404881763E1,2.173859406E1,-7.131630898E0,2.684764250E1
1.149476271E1,9.432031631E0,1.783386040E1,-1.926846981E0,2.026629065E1
1.151414137E1,5.378849030E0,1.134815311E1,1.517644525E0,1.264973679E1
1.153348952E1,1.870924473E0,4.461084366E0,4.705163956E0,6.748347942E0
1.155286818E1,1.166169643E-1,-2.593105316E0,2.386435986E0,3.526027710E0
1.157224684E1,5.888991356E-1,-9.067830086E0,-4.126595855E-1,9.096297741E0
1.159159498E1,7.657704353E-1,-1.455674267E1,-2.172596455E-1,1.457848974E1
1.161097365E1,6.642756462E-1,-1.769972229E1,-5.648518205E-1,1.772118757E1
1.163032179E1,1.509771585E0,-1.716515350E1,9.104811549E-1,1.725545945E1
1.164970045E1,3.034099817E0,-1.237207413E1,2.390675068E0,1.296106891E1
1.166907912E1,4.118642807E0,-1.021018505E1,2.732965946E0,1.134372955E1
1.168842726E1,4.319859505E0,-9.693371773E0,1.663711548E0,1.074200068E1
1.170780592E1,4.439357758E0,-8.379713058E0,-6.148267388E-1,9.502920612E0
1.172715407E1,4.844010830E0,-6.481799126E0,-1.854766607E0,8.301705848E0
1.174653273E1,4.441208839E0,-5.241727829E0,-7.575981617E-1,6.911873955E0
1.176594191E1,3.207067728E0,-6.182483673E0,9.453515410E-1,7.028661133E0
1.178529005E1,2.170455933E0,-7.988687515E0,6.089224815E-1,8.300650201E0
1.180466872E1,1.648920536E0,-9.251481056E0,8.294000626E-1,9.433808623E0
1.182401686E1,1.753604650E0,-1.040778637E1,3.758993447E-1,1.056117639E1
1.184339552E1,2.216646671E0,-1.099148750E1,6.134539843E-1,1.122954344E1
1.186277418E1,1.843791008E0,-1.051654625E1,1.267247498E-1,1.067770432E1
1.188212233E1,6.523411274E-1,-9.014245033E0,6.988877058E-1,9.064800411E0
1.190150099E1,2.048900127E-1,-5.262415886E0,4.545389175E0,6.956692003E0
1.192087965E1,4.193431854E0,2.558650970E0,-2.118723392E-1,4.916955907E0
1.194022780E1,3.103491068E0,3.391539383E1,-8.798868179E0,3.517535610E1
1.195960646E1,8.541110992E0,6.215547943E1,-1.124686432E1,6.373967491E1
1.197895460E1,1.507606125E1,2.030734634E1,5.338736534E0,2.584914014E1
1.199833327E1,1.475637627E1,1.274453259E1,7.050249577E-1,1.951078706E1
1.201771193E1,1.318692112E1,1.177700901E1,-3.675871849E0,1.805837378E1
1.203709059E1,7.017259121E0,9.801453590E0,-4.815732479E0,1.298082037E1
1.205646925E1,3.303085566E0,4.691418648E0,-7.663619518E-1,5.788531232E0
1.207581740E1,1.823720455E0,-1.554485321E0,5.209608555E0,5.734317937E0
1.209519606E1,2.109701395E0,-7.133713722E0,2.276771069E-1,7.442617034E0
1.211457472E1,1.520384789E0,-1.205070019E1,4.807534814E-1,1.215574222E1
1.213392286E1,2.175079823E0,-1.437355709E1,2.539007425E0,1.475725836E1
1.215330153E1,3.275205851E0,-1.259173965E1,-7.786909938E-1,1.303400324E1
1.217264967E1,3.211953402E0,-1.144655132E1,-1.393905401E0,1.197009416E1
1.219202833E1,3.000813961E0,-9.772397041E0,6.418183446E-3,1.022275254E1
1.221140700E1,2.798343897E0,-9.016647339E0,1.263927937E0,9.525133680E0
1.223075514E1,2.737066031E0,-8.068737984E0,2.041827679E0,8.761570828E0
1.225013380E1,2.897217989E0,-7.209110260E0,2.377859592E0,8.125229785E0
1.226948195E1,3.423065662E0,-6.853862762E0,1.328522921E0,7.775460530E0
1.228886061E1,4.337162971E0,-5.961219788E0,5.772173405E-3,7.372052449E0
1.230823927E1,5.083875656E0,-4.726137161E0,-1.021244228E-1,6.942088558E0
1.232761793E1,6.984631538E0,-1.101380348E0,-2.900269747E0,7.642622652E0
1.234699660E1,7.675040245E0,7.166084290E0,-4.644326687E0,1.148167136E1
1.236637526E1,5.315055847E0,2.880388641E1,-3.828404427E0,2.953930215E1
1.238572340E1,8.738996506E0,3.341670609E1,-1.317176151E1,3.696676354E1
1.240510206E1,1.469198227E1,2.747194481E1,-8.471002579E0,3.228498071E1
1.242445021E1,1.573906231E1,2.444039536E1,1.248903275E0,2.909657655E1
1.244382887E1,1.172636032E1,1.999594116E1,1.031089783E0,2.320362764E1
1.246320753E1,6.366897583E0,1.433862209E1,3.534497738E0,1.608185756E1
1.248255568E1,3.710379124E0,6.588067055E0,7.447417378E-1,7.597643122E0
1.250193434E1,9.511218071E-1,-1.553453445E0,-1.201694161E-1,1.825456378E0
1.252128248E1,-2.960209846E-1,-6.930814743E0,1.016693354E0,7.011240033E0
1.254066115E1,1.029443741E-2,-1.183889294E1,-2.737685204E0,1.215131319E1
1.256003981E1,-1.097236395E0,-1.712040329E1,-3.115225315E0,1.743607654E1
1.257938795E1,1.925315857E-1,-1.817583847E1,9.624793530E-1,1.820232235E1
1.259876662E1,1.799242735E0,-1.448027897E1,1.588806987E0,1.467787659E1
1.261814528E1,3.503945827E0,-1.128263092E1,-4.295379519E-1,1.182200912E1
1.263752394E1,4.667423248E0,-1.038484955E1,1.076408029E0,1.143628411E1
1.265690260E1,4.558584690E0,-8.896270752E0,1.027851939E0,1.004892070E1
1.267625075E1,4.934592247E0,-7.496728897E0,-5.849705935E-1,8.994072237E0
1.269562941E1,5.006015778E0,-6.413451195E0,-1.243193269E0,8.230314678E0
1.271497755E1,3.962481022E0,-6.823762894E0,-8.782273531E-1,7.939538977E0
1.273435622E1,3.259139299E0,-7.831939697E0,-1.026086092E0,8.544830078E0
1.275373488E1,2.834638357E0,-8.839521408E0,-8.679620028E-1,9.323393769E0
1.277308302E1,2.946888685E0,-9.467015266E0,-2.225824296E-1,9.917563910E0
1.279246168E1,2.943507910E0,-9.620475769E0,5.973781943E-1,1.007842515E1
1.281184035E1,2.569577932E0,-1.013706970E1,-3.559245467E-1,1.046372759E1
1.283118849E1,1.636772871E0,-1.077564907E1,-1.654180765E0,1.102406242E1
1.285056715E1,1.771728277E0,-9.663596153E0,-2.471340895E0,1.013072739E1
1.286991530E1,3.108101368E0,-1.534937859E0,-1.092366219E0,3.634500282E0
1.288929396E1,4.570823669E0,1.648800659E1,-2.042877913E0,1.723137083E1
1.290870314E1,7.968962193E0,6.790612030E1,-9.931900024E0,6.908971103E1
1.292805128E1,1.385770226E1,2.572473145E1,3.513590813E0,2.943030819E1
1.294742995E1,1.383233166E1,9.586489677E0,-7.327348232E0,1.835549551E1
1.296677809E1,1.393502617E1,1.686028862E1,-1.053005219E1,2.427624942E1
1.298615675E1,8.982827187E0,1.372223949E1,-3.493461609E0,1.676887936E1
1.300553541E1,3.898777485E0,6.632353783E0,8.440621376E0,1.142071240E1
1.302488356E1,3.051178455E0,1.263067245E0,4.322175026E0,5.439322181E0
1.304426222E1,3.033143997E0,-4.188667297E0,-1.074023128E0,5.281895674E0
1.306361036E1,2.309499979E0,-8.800283432E0,-7.205560803E-1,9.126772688E0
1.308298903E1,2.019632101E0,-1.208962345E1,2.635397434E0,1.253727357E1
1.310236769E1,2.659019947E0,-1.450616264E1,-9.702494144E-1,1.477973361E1
1.312171583E1,2.286033154E0,-1.441294861E1,-4.755175591E0,1.534831359E1
1.314109450E1,4.548828602E-1,-1.350097275E1,-3.159981251E0,1.387330765E1
1.316044264E1,3.008339405E-1,-1.204573727E1,-1.593628526E0,1.215442056E1
1.317985182E1,9.302284718E-1,-1.091597557E1,3.546364307E-1,1.096127797E1
1.319923048E1,1.469434500E0,-9.242823601E0,1.165351152E0,9.431175387E0
1.321857863E1,3.564189196E0,-6.847355843E0,-7.862824202E-2,7.719838668E0
1.323795729E1,6.007073402E0,-4.228429794E0,-1.288493514E0,7.458201185E0
1.325733595E1,6.972958088E0,-1.314686775E0,-4.082071781E-1,7.107543803E0
1.327668410E1,5.970031261E0,1.752079964E0,-3.660205841E0,7.218598497E0
1.329606276E1,6.117847443E0,1.061316872E1,-7.271568298E0,1.424581037E1
1.331541090E1,4.468548775E0,3.510417175E1,-6.835376740E0,3.604154794E1
1.333478956E1,8.416809082E0,3.577664185E1,-1.531636620E1,3.981710500E1
1.335416823E1,1.794341850E1,2.552031708E1,-6.615952015E0,3.189080859E1
1.337351637E1,2.058062363E1,2.085442734E1,-6.977772713E0,3.011907237E1
1.339289503E1,1.413264275E1,1.482162666E1,-3.154972315E0,2.072115002E1
1.341224318E1,5.922847271E0,8.609368324E0,7.719202518E0,1.299182167E1
1.343162184E1,1.765785217E0,1.161594391E-1,1.067048907E0,2.066418113E0
1.345100050E1,-3.743646145E-1,-6.689111710E0,-9.456643462E-1,6.765991826E0
1.347037916E1,-4.452776909E-2,-1.048823357E1,-6.246142387E-1,1.050691054E1
1.348975783E1,7.317380905E-1,-1.403936100E1,-2.741017818E0,1.432313781E1
1.350910597E1,1.213693619E-2,-1.821199608E1,-3.112388134E0,1.847603606E1
1.352848463E1,-4.335267544E-1,-1.681130028E1,-1.257239938E0,1.686381970E1
1.354786330E1,5.099916458E-1,-1.331609440E1,-2.189534426E0,1.350453711E1
1.356721144E1,2.276409388E0,-1.090404987E1,-1.661732197E0,1.126240193E1
1.358659010E1,3.515765667E0,-8.992168427E0,-6.386097670E-1,9.676131648E0
1.360593825E1,3.741936684E0,-7.286334038E0,-1.510429382E0,8.329114645E0
1.362531691E1,3.703858614E0,-6.610528946E0,-2.004286289E0,7.838037070E0
1.364469557E1,4.095472336E0,-6.733925819E0,-1.883374929E0,8.103440733E0
1.366404372E1,3.812243223E0,-7.291510582E0,-1.795836568E0,8.421659809E0
1.368342238E1,3.471128941E0,-8.253048897E0,-2.182089329E0,9.215371184E0
1.370277052E1,3.739197731E0,-9.424094200E0,-2.120059490E0,1.035807914E1
1.372214918E1,3.732701063E0,-9.810459137E0,-6.987596750E-1,1.051981135E1
1.374152785E1,2.954342365E0,-9.340003967E0,-1.260980010E0,9.876936950E0
1.376090651E1,2.098431587E0,-8.461785316E0,-5.798369646E-1,8.737358684E0
1.378028517E1,1.203845739E0,-5.220204353E0,6.417287350E0,8.359506862E0
1.379966383E1,4.915493965E0,-8.810243607E-1,-1.891220093E0,5.339943659E0
1.381901198E1,4.844012260E0,3.031783676E1,-9.193367004E0,3.204923833E1
1.383839064E1,1.028894615E1,5.934532928E1,-9.541306496E0,6.098169439E1
1.385773878E1,1.531131363E1,1.836195755E1,-6.471819282E-1,2.391686966E1
1.387711745E1,1.468191051E1,1.277776623E1,-5.946153641E0,2.035157363E1
1.389649611E1,1.440068436E1,1.389102268E1,-7.301404476E0,2.129907811E1
1.391584425E1,7.874439240E0,8.815258980E0,-1.755752861E-1,1.182143861E1
1.393522291E1,2.965050220E0,3.163045883E0,5.435941696E0,6.953117588E0
1.395457106E1,2.301533699E0,-2.958662987E0,-1.282233000E0,3.961674583E0
1.397394972E1,1.819193840E0,-7.750333786E0,-2.965620279E0,8.495413096E0
1.399332838E1,1.577669859E0,-1.085527802E1,-3.295147657E0,1.145356281E1
1.401267653E1,2.043015957E0,-1.116595936E1,9.457731247E-2,1.135171826E1
1.403205519E1,2.179165840E0,-1.158900452E1,-1.747214794E-2,1.179212003E1
1.405143385E1,1.397094011E0,-1.381457806E1,-4.106016159E0,1.447942703E1
1.407081251E1,1.900733948E0,-1.375040054E1,-4.133871078E0,1.448361815E1
1.409019118E1,1.997160435E0,-9.985291481E0,-6.439287663E-1,1.020339845E1
1.410953932E1,2.569469213E0,-9.255414963E0,5.563788414E-1,9.621560975E0
1.412891798E1,3.679661751E0,-8.635003090E0,-4.412860870E-1,9.396697418E0
1.414829664E1,4.623305321E0,-7.489427567E0,-1.470508218E0,8.923501094E0
1.416764479E1,5.816028595E0,-5.361787796E0,4.197648764E-1,7.921562948E0
1.418702345E1,5.360403538E0,-2.186449051E0,8.358215690E-1,5.849195093E0
1.420637160E1,3.867068052E0,-3.618335724E-1,-5.095034599E0,6.406599443E0
1.422575026E1,3.073381901E0,1.151135635E1,-8.345124245E0,1.454641193E1
1.424512892E1,5.829460144E0,3.845950317E1,-1.499418640E1,4.168862694E1
1.426447706E1,1.434788036E1,3.536885071E1,-8.342518806E0,3.906936001E1
1.428385573E1,2.201257706E1,2.253273201E1,2.191356421E0,3.157656732E1
1.430320387E1,1.980204201E1,1.766273117E1,-6.154966354E0,2.723924652E1
1.432258253E1,9.733472824E0,1.553039932E1,-8.702533841E-1,1.834914541E1
1.434199171E1,4.402983189E0,9.513730049E0,-2.016583443E0,1.067538895E1
1.436133986E1,1.042820930E0,2.268496513E0,1.892348409E0,3.132815734E0
1.438071852E1,-1.650619507E-2,-4.321452141E0,1.066629052E0,4.451170475E0
1.440006666E1,7.567031384E-1,-8.947753906E0,-1.255288124E0,9.067008761E0
1.441944533E1,9.359488487E-1,-1.314704227E1,-2.097233295E0,1.334612709E1
1.443882399E1,1.289029360E0,-1.696045685E1,-2.932531357E0,1.726031383E1
1.445817213E1,3.325599432E0,-1.554820824E1,-2.474571466E-1,1.590181203E1
1.447755080E1,3.155467987E0,-1.242804718E1,1.212656379E0,1.287959124E1
1.449689894E1,2.473106384E0,-1.101613617E1,-1.073680043E0,1.134126537E1
1.451627760E1,2.645087481E0,-1.036158943E1,-1.059941530E0,1.074627840E1
1.453565626E1,2.686792612E0,-8.701557159E0,-9.246857166E-1,9.153742143E0
1.455500441E1,2.641229868E0,-7.333820343E0,-1.267117381E0,7.897252845E0
1.457438307E1,2.704027414E0,-6.776290894E0,-1.653082848E0,7.480813153E0
1.459376173E1,2.753018856E0,-7.543652534E0,-1.779842019E0,8.225183524E0
1.461314039E1,2.577090502E0,-8.707953453E0,-1.427724361E0,9.192836649E0
1.463251906E1,2.937723160E0,-9.461631775E0,-1.443611622E0,1.001182839E1
1.465186720E1,3.582289934E0,-9.907451630E0,-1.118927717E0,1.059445129E1
1.467124586E1,4.038636684E0,-9.928807259E0,7.853162289E-2,1.071904693E1
1.469062452E1,2.922644615E0,-8.745379448E0,2.559463501E0,9.569449652E0
1.470997267E1,6.115419865E-1,-5.988669395E0,3.039169312E0,6.743492777E0
1.472935133E1,3.299722195E0,-1.574611664E-2,1.054873586E0,3.464270888E0
1.474869948E1,2.695515633E0,2.946420288E1,-7.766297817E0,3.058954785E1
1.476807814E1,7.332352638E0,5.621796799E1,-1.480000973E1,5.859405779E1
1.478745680E1,1.302664852E1,2.033185959E1,6.268255711E-1,2.415514430E1
1.480680495E1,1.490326405E1,1.240306759E1,-3.047435284E0,1.962728271E1
1.482618361E1,1.458331871E1,1.019916153E1,-5.098153591E0,1.851181381E1
1.484553175E1,7.585723877E0,1.068102741E1,-2.273397207E0,1.329646149E1
1.486491041E1,3.170711994E0,5.544851303E0,2.833090782E0,6.987502694E0
1.488428908E1,2.086701632E0,-5.837764740E-1,3.187514782E0,3.854266358E0
1.490366774E1,1.919142962E0,-6.147782326E0,-4.486346841E-1,6.455974776E0
1.492304640E1,1.532044172E0,-9.709999084E0,-7.004719973E-2,9.830368669E0
1.494239454E1,2.083439350E0,-1.154288864E1,2.994066238E0,1.210551240E1
1.496177321E1,3.403922796E0,-1.234731579E1,-6.181911826E-1,1.282283346E1
1.498115187E1,3.309974670E0,-1.292362976E1,-3.286417961E0,1.373960267E1
1.500050001E1,2.749852657E0,-1.166895103E1,-2.406955481E0,1.222781839E1
1.501987868E1,2.887860298E0,-9.810838699E0,-5.766314268E-1,1.024328057E1
1.503925734E1,2.195678234E0,-9.291326523E0,-4.253069311E-2,9.547332629E0
1.505860548E1,2.694090605E0,-8.882414818E0,1.948266745E0,9.484258563E0
1.507798414E1,3.167073250E0,-6.941698074E0,3.721471071E0,8.489220934E0
1.509733229E1,4.935952187E0,-3.788702011E0,-9.455299377E-2,6.223088235E0
1.511671095E1,7.100010872E0,7.561912537E-1,-3.489738703E0,7.947342688E0
1.513608961E1,8.517361641E0,9.158705711E0,-8.514831543E0,1.513042286E1
1.515543776E1,1.099621773E1,3.463248444E1,-8.049730301E0,3.721725326E1
1.517481642E1,1.892402458E1,3.322006226E1,-8.479692459E0,3.916115967E1
1.519419508E1,1.437893200E1,1.928647232E1,-7.789458275E0,2.528630776E1
1.521357374E1,1.175013924E1,2.046182251E1,-5.865489483E0,2.431369818E1
1.523295241E1,8.270056725E0,1.647717667E1,9.162064791E-1,1.845889009E1
1.525230055E1,4.471433640E0,9.841290474E0,2.772716522E0,1.115942086E1
1.527167921E1,1.404217482E0,4.384325981E0,3.716184378E0,5.916431980E0
1.529102736E1,6.596894264E-1,-2.306259155E0,2.494082928E0,3.460414871E0
1.531040602E1,1.440036535E0,-7.975524902E0,-5.631479621E-2,8.104682230E0
1.532978468E1,1.816392422E0,-1.223161221E1,-1.071287036E0,1.241206165E1
1.534913283E1,1.534068823E0,-1.815129280E1,-1.977529287E0,1.832302976E1
1.536851149E1,2.260048628E0,-1.731657028E1,6.870080233E-1,1.747693927E1
1.538785963E1,1.465763330E0,-1.252548409E1,3.009826660E0,1.296515600E1
1.540723830E1,9.527320862E-1,-9.418888092E0,-1.854564667E0,9.646893874E0
1.542661696E1,2.634389639E0,-8.641636848E0,-7.741446495E-1,9.067369857E0
1.544596510E1,4.455351830E0,-8.380435944E0,1.100046396E0,9.554683072E0
1.546534376E1,4.764915466E0,-7.932233810E0,3.367853165E-1,9.259491183E0
1.548475294E1,5.024413109E0,-7.994400024E0,-2.841847241E-1,9.446476581E0
1.550410109E1,4.924971581E0,-8.334602356E0,-2.247828990E-1,9.683566949E0
1.552347975E1,3.545698166E0,-8.512774467E0,4.191133380E-2,9.221771043E0
1.554282789E1,2.651018858E0,-9.020083427E0,-9.116826653E-1,9.445685327E0
1.556220656E1,2.761938095E0,-1.006720829E1,-6.129140854E-1,1.045718167E1
1.558158522E1,3.342075825E0,-9.521004677E0,9.476193190E-1,1.013493874E1
1.560093336E1,2.726080894E0,-7.353375435E0,2.764167786E0,8.315303415E0
1.562031202E1,2.955152273E0,-3.168052673E0,2.487940550E0,4.995931433E0
1.563966017E1,4.506355286E0,4.182627678E0,-1.939968824E0,6.447099448E0
1.565903883E1,3.349725723E0,4.433023453E1,-7.181597710E0,4.503294018E1
1.567841749E1,1.267903900E1,3.678544235E1,-1.039449883E1,4.027371854E1
1.569776564E1,1.530692673E1,1.742846680E1,-4.640339851E0,2.365557471E1
1.571714430E1,1.334590244E1,1.583065510E1,-3.771851063E-1,2.070905651E1
1.573649245E1,8.855009079E0,1.144237232E1,-2.478215456E0,1.467925822E1
1.575590163E1,4.721863747E0,7.985790253E0,-1.649231672E0,9.422781347E0
1.577528029E1,3.347964764E0,2.879803658E0,4.114435673E0,6.035786450E0
1.579462843E1,3.136757612E0,-2.223165512E0,2.223889828E0,4.441553690E0
1.581400709E1,2.778158426E0,-6.860488892E0,-5.055532455E-1,7.418898581E0
1.583338576E1,1.680798292E0,-1.034857559E1,-3.625581264E-1,1.049045033E1
1.585273390E1,1.696285963E0,-1.182258987E1,2.401146412E0,1.218263196E1
1.587211256E1,2.490676165E0,-1.250280094E1,7.590575814E-1,1.277104802E1
1.589146071E1,2.374022007E0,-1.367105007E1,-3.707855940E0,1.436251323E1
1.591083937E1,2.710131645E0,-1.121829510E1,-2.192163706E0,1.174736311E1
1.593021803E1,3.828663826E0,-9.516518593E0,2.781156540E0,1.062815245E1
1.594956618E1,3.583858490E0,-8.587472916E0,4.446344376E0,1.031303598E1
1.596894484E1,2.748418570E0,-7.410434723E0,2.833587646E0,8.396282890E0
1.598829298E1,2.713945389E0,-6.934832573E0,-3.820567131E-1,7.456766707E0
1.600767164E1,3.610877991E0,-6.463750839E0,-4.102828503E-1,7.415311645E0
1.602705031E1,5.165657043E0,-3.624453545E0,1.120535135E-1,6.311357396E0
1.604642897E1,6.094374657E0,3.174401283E0,-5.181606293E0,8.606234353E0
1.606580763E1,6.883676529E0,3.165176010E1,-8.582298279E0,3.350932354E1
1.608515578E1,1.352833939E1,3.912821579E1,-1.438215733E1,4.382784146E1
1.610453444E1,1.619798470E1,2.541687775E1,-2.436246634E0,3.023785178E1
1.612391310E1,1.161853981E1,2.132333183E1,-2.259372711E0,2.438810597E1
1.614326124E1,7.807703495E0,1.793435097E1,-1.348467350E0,1.960661987E1
1.616263991E1,6.029009819E0,1.241795540E1,-2.264800310E0,1.398870602E1
1.618198805E1,4.403503895E0,5.301230431E0,5.012481213E-1,6.909785837E0
1.620136671E1,2.575454473E0,-1.731401443E0,4.555768490E0,5.512326481E0
1.622074538E1,2.085666895E0,-7.401021004E0,8.484733105E-1,7.735956648E0
1.624009352E1,2.402015924E0,-1.107856655E1,5.936110020E-2,1.133612990E1
1.625947218E1,2.305874586E0,-1.394287491E1,1.251101494E0,1.418753232E1
1.627885084E1,1.632836103E0,-1.861215019E1,2.109572649E0,1.880235584E1
1.629819899E1,2.536010742E-2,-1.931871796E1,9.564816952E-1,1.934239809E1
1.631757765E1,-2.121973038E-2,-1.067486763E1,-2.119903564E-1,1.067699345E1
1.633695631E1,1.484751701E0,-8.967444420E0,7.038218975E-1,9.116738030E0
1.635633498E1,2.971117020E0,-8.588988304E0,3.715300083E0,9.818437306E0
1.637571364E1,3.661621332E0,-7.880020142E0,3.385640621E0,9.325489297E0
1.639506178E1,3.765695095E0,-7.733622551E0,1.913453817E0,8.811962484E0
1.641444044E1,3.661444426E0,-8.325778961E0,1.214846969E0,9.176089785E0
1.643378859E1,3.146809101E0,-8.763252258E0,6.513924599E-1,9.333879676E0
1.645316725E1,2.657714128E0,-9.182950020E0,2.252212763E-1,9.562465167E0
1.647254591E1,2.900716543E0,-9.469965935E0,8.308078051E-1,9.939046880E0
1.649189406E1,3.036613226E0,-8.897147179E0,1.786897540E0,9.569391340E0
1.651127272E1,1.835793018E0,-8.047421455E0,2.580729008E0,8.648195783E0
1.653062086E1,1.914644241E0,-5.957208633E0,7.469661236E-1,6.301758141E0
1.654999952E1,4.394999981E0,-3.260232925E0,6.844717026E0,8.763292459E0
1.656937819E1,4.384810448E0,3.616888428E1,-3.090119362E0,3.656451272E1
1.658872633E1,8.545047760E0,5.905635071E1,-1.376566410E1,6.123858186E1
1.660810499E1,1.056234741E1,1.990105057E1,-5.008764744E0,2.308035357E1
1.662748366E1,1.036369228E1,1.487918949E1,-1.620099783E0,1.820497517E1
1.664686232E1,1.048491669E1,1.229620934E1,-2.326867819E0,1.632619232E1
1.666624098E1,7.042033195E0,6.674619675E0,-8.837492466E-1,9.742781536E0
1.668558912E1,3.734652758E0,4.352331161E0,4.048080921E0,7.019784676E0
1.670496779E1,2.273865223E0,-6.875162125E-1,5.202770233E0,5.719437008E0
1.672434645E1,2.157032967E0,-6.255249977E0,2.029555321E0,6.920985356E0
1.674369459E1,1.736966610E0,-1.015563297E1,3.065403938E0,1.074944814E1
1.676307326E1,1.054290533E0,-1.233440113E1,2.968450308E0,1.273030546E1
1.678242140E1,4.718320370E-1,-1.337419033E1,-2.854018688E0,1.368345772E1
1.680180006E1,8.379857540E-1,-1.250900269E1,-3.358834267E0,1.297918087E1
1.682117872E1,2.739205360E0,-1.078390884E1,2.965567112E0,1.151479588E1
1.684052687E1,2.968517303E0,-9.625543594E0,5.546270370E0,1.149888253E1
1.685990553E1,2.623136997E0,-9.195186615E0,3.656372786E0,1.023725386E1
1.687925368E1,2.394668341E0,-8.714236259E0,1.107592106E0,9.104894855E0
1.689863234E1,3.018000603E0,-7.956426620E0,1.104885817E0,8.581015375E0
1.691804152E1,4.274842262E0,-6.015184402E0,1.038714409E0,7.452224325E0
1.693738966E1,5.297276497E0,-1.911995888E0,-1.949976087E0,5.959804804E0
1.695676832E1,5.808899403E0,9.842655182E0,-3.344045877E0,1.190814075E1
1.697611647E1,7.491779804E0,4.685996246E1,-8.123536110E0,4.814534957E1
1.699549513E1,1.399375534E1,3.201972580E1,-6.625677586E0,3.556666462E1
1.701490431E1,1.231486320E1,1.894178200E1,-7.722419262E0,2.387640510E1
1.703422194E1,1.340573120E1,1.978776932E1,-8.240421295E0,2.528189049E1
1.705360060E1,1.117626286E1,1.469055271E1,-1.126728296E0,1.849299075E1
1.707297926E1,5.897235870E0,8.816362381E0,6.424914360E0,1.240101452E1
1.709232741E1,3.392002821E0,1.400353432E0,5.402897358E0,6.531307123E0
1.711170607E1,1.898844004E0,-4.922474861E0,1.502637386E0,5.485825956E0
1.713105421E1,1.424434185E0,-9.253305435E0,1.553005934E0,9.490231907E0
1.715043288E1,1.565948963E0,-1.284006310E1,3.464289427E0,1.339106858E1
1.716981154E1,2.471508265E0,-1.628038406E1,1.387994528E0,1.652530748E1
1.718919020E1,3.197311640E0,-1.942376900E1,-1.195719123E0,1.972144386E1
1.720856886E1,3.352754116E-1,-1.478948593E1,-2.141073346E-1,1.479483510E1
1.722791701E1,-8.317704201E-1,-1.016102314E1,-6.587487459E-2,1.019522304E1
1.724732619E1,1.314802170E-1,-7.886111259E0,8.005325794E-1,7.927729199E0
1.726667433E1,2.834164858E0,-7.067237854E0,1.856987774E-1,7.616615086E0
1.728602248E1,4.519852638E0,-7.384029388E0,1.584579945E-1,8.658987632E0
1.730540114E1,5.356435299E0,-8.305073738E0,6.680283546E-1,9.905145672E0
1.732474928E1,4.500121117E0,-8.777330399E0,6.061171889E-1,9.882307273E0
1.734412794E1,3.491973400E0,-9.029833794E0,6.531215906E-1,9.703522267E0
1.736350660E1,2.786135912E0,-9.133004189E0,6.033937931E-1,9.567570376E0
1.738285475E1,2.267259121E0,-9.075282097E0,-1.044186354E-1,9.354790875E0
1.740223341E1,1.524881124E0,-8.942370415E0,-2.691814899E-1,9.075445430E0
1.742158156E1,4.985001087E-1,-8.281644821E0,-7.036043406E-1,8.326415938E0
1.744096022E1,3.085183382E0,-4.793309212E0,5.364730358E-1,5.725554385E0
1.746033888E1,5.429570198E0,1.033961010E1,8.257833481E0,1.430313194E1
1.747974806E1,8.496116638E0,7.314658356E1,-1.816525841E1,7.584578628E1
1.749909620E1,1.585449696E1,2.894919586E1,-3.211169481E0,3.316221682E1
1.751847487E1,1.444516945E1,1.483647442E1,-9.359672546E0,2.272415815E1
1.753782301E1,1.367839622E1,1.667436409E1,-3.194065332E0,2.180217866E1
1.755720167E1,1.049872398E1,8.224952698E0,7.701279640E0,1.540073895E1
1.757654982E1,5.152997017E0,2.828543663E0,3.798852205E0,6.998951035E0
1.759592848E1,2.888796568E0,-1.362627029E0,1.375774860E0,3.477736979E0
1.761530714E1,1.467496157E0,-5.192050934E0,-7.940012217E-1,5.453565422E0
1.763465529E1,7.831995487E-1,-9.086242676E0,1.491533279E0,9.241097284E0
1.765403395E1,5.448758602E-1,-1.279113483E1,1.057502925E-1,1.280317161E1
1.767338209E1,1.174349308E0,-1.525279140E1,-4.064373493E0,1.582864093E1
1.769276076E1,6.544454098E-1,-1.371656418E1,-3.116507053E0,1.408137237E1
1.771216994E1,5.762913227E-1,-1.187651634E1,-8.858468533E-1,1.192344232E1
1.773148756E1,1.011279583E0,-1.022306252E1,2.414797693E-1,1.027579710E1
1.775086622E1,1.866430998E0,-9.314094543E0,1.944709659E0,9.696278538E0
1.777024489E1,3.075531244E0,-8.383825302E0,1.703255177E0,9.091121896E0
1.778962355E1,4.520489693E0,-7.451581001E0,1.106082678E0,8.785459884E0
1.780900221E1,5.306127548E0,-6.541440010E0,1.271811843E0,8.518387895E0
1.782835036E1,5.201032639E0,-5.608527184E0,-1.714308709E-1,7.650863103E0
1.784772902E1,4.839902878E0,-3.800011635E0,-2.581511974E0,6.673001751E0
1.786710768E1,5.686629295E0,8.795375824E-1,-3.271928310E0,6.619430034E0
1.788645582E1,8.588179588E0,1.863561630E1,-6.018084526E0,2.138364714E1
1.790583449E1,1.031463528E1,4.729822159E1,-1.074599552E1,4.958820309E1
1.792518263E1,1.757720184E1,2.823760223E1,-5.715119839E0,3.374881923E1
1.794459181E1,1.800072861E1,1.859790039E1,-9.658691406E0,2.762604657E1
1.796393996E1,1.432890320E1,1.714996147E1,-2.641735077E0,2.250371990E1
1.798328810E1,7.692171097E0,1.402205849E1,1.109116077E0,1.603177342E1
1.800266676E1,3.480347872E0,6.766651154E0,2.719934940E0,8.080744720E0
1.802201491E1,2.439402342E0,9.262714386E-1,4.228774071E0,4.969023315E0
1.804139357E1,1.858199358E0,-5.244162560E0,1.770147562E0,5.838455977E0
1.806080275E1,1.359407663E0,-1.054770470E1,8.331947327E-1,1.066753378E1
1.808015089E1,7.723414898E-1,-1.337308788E1,1.132457614E0,1.344315629E1
1.809952956E1,-1.126047850E0,-1.681608582E1,-2.389862537E0,1.702234322E1
1.811887770E1,-3.078243017E0,-1.950739288E1,-4.524216175E0,2.026036745E1
1.813825636E1,-2.320926666E0,-1.502109432E1,-1.498886347E0,1.527306896E1
1.815763502E1,1.663535118E0,-1.032704830E1,1.751731396E0,1.060583983E1
1.817701369E1,3.826489210E0,-8.335871696E0,2.735911608E0,9.571519678E0
1.819636183E1,3.910366297E0,-6.593911171E0,1.097134352E0,7.744309710E0
1.821574049E1,3.651638031E0,-6.522535324E0,-5.191781521E-1,7.493161770E0
1.823508864E1,3.851036072E0,-7.785050392E0,-2.872813642E-1,8.690225487E0
1.825446730E1,3.910988331E0,-9.009286880E0,4.936857224E-1,9.833961837E0
1.827381544E1,3.592197180E0,-9.651057243E0,3.534248769E-1,1.030396504E1
1.829319410E1,2.928337336E0,-9.848717690E0,8.271455765E-2,1.027517598E1
1.831257277E1,2.602421045E0,-9.631450653E0,-4.874902368E-1,9.988747855E0
1.833195143E1,2.163037300E0,-8.731184006E0,-4.412157536E-1,9.005941142E0
1.835133009E1,2.591859818E0,-8.337354660E0,2.728462458E0,9.147334444E0
1.837067824E1,3.895308971E0,-4.984772682E0,3.537367105E0,7.248058824E0
1.839005690E1,5.289929390E0,1.213086605E1,-1.163095355E0,1.328510651E1
1.840943556E1,8.629236221E0,6.802919006E1,-1.027821541E1,6.934029226E1
1.842878370E1,1.831283951E1,3.205984879E1,-4.048590660E0,3.714276620E1
1.844816237E1,1.597116566E1,1.528704262E1,-5.507163048E0,2.278378040E1
1.846751051E1,1.043789291E1,1.390589905E1,1.089789867E0,1.742157509E1
1.848688917E1,4.917538643E0,1.075524139E1,-1.979972243E0,1.199073367E1
1.850626784E1,1.249968290E0,7.516205788E0,1.954696894E0,7.866168706E0
1.852561598E1,9.592573643E-1,1.474101067E0,5.011391640E-1,1.828739759E0
1.854499464E1,1.586404324E0,-5.335489273E0,-2.508875608E0,6.105618829E0
1.856434279E1,2.254893541E0,-9.996977806E0,-8.909195065E-1,1.028678024E1
1.858372145E1,3.433077097E0,-1.221743298E1,9.792597890E-1,1.272833990E1
1.860310011E1,3.969371080E0,-1.309187794E1,-1.141957879E0,1.372797299E1
1.862247877E1,3.915131330E0,-1.359974098E1,-2.679472208E0,1.440349886E1
1.864185744E1,3.727432251E0,-1.372444057E1,-6.996314526E-1,1.423880277E1
1.866123610E1,3.289808035E0,-1.165594959E1,1.770753264E0,1.224008027E1
1.868058424E1,2.723760128E0,-9.218848228E0,1.452014327E0,9.721850518E0
1.869996290E1,2.613493443E0,-8.800434113E0,6.664171219E-1,9.204460893E0
1.871931105E1,3.028697729E0,-8.834970474E0,-4.780051112E-1,9.351909008E0
1.873868971E1,3.564413071E0,-8.657536507E0,1.569826603E-1,9.363899960E0
1.875806837E1,3.776024103E0,-7.820513725E0,1.154689193E-1,8.685167012E0
1.877741652E1,3.503021717E0,-5.511655807E0,-2.611935139E-2,6.530711532E0
1.879679518E1,5.003825188E0,-2.673782349E0,1.099262118E0,5.778906104E0
1.881614332E1,7.829393864E0,4.662690163E0,-3.472176790E0,9.751722898E0
1.883552199E1,1.033223724E1,3.956737137E1,-9.576449394E0,4.200048079E1
1.885490065E1,1.530699158E1,3.922551727E1,-1.026436043E1,4.333938499E1
1.887427931E1,1.416854477E1,2.212187576E1,-3.212373972E0,2.646591005E1
1.889362746E1,9.396390915E0,2.324030304E1,-2.677250624E0,2.521054380E1
1.891300612E1,6.869490623E0,1.978630257E1,-3.089758873E0,2.117154412E1
1.893238478E1,5.096279144E0,1.217867947E1,-3.840808868E-1,1.320756650E1
1.895176344E1,2.861486912E0,4.549033165E0,6.779699326E0,8.651365963E0
1.897111159E1,2.032673359E0,-2.697501183E0,2.545333385E0,4.229302030E0
1.899049025E1,2.158918619E0,-8.480267525E0,-4.315950871E-1,8.761400642E0
1.900986891E1,2.668830156E0,-1.188736820E1,7.730710506E-2,1.218351975E1
1.902921706E1,1.518417120E0,-1.676045609E1,-3.747557402E-1,1.683326827E1
1.904859572E1,1.043431759E0,-1.995586205E1,-2.084892392E-1,1.998420996E1
1.906794386E1,1.963984251E0,-1.372960854E1,3.507582903E0,1.430603098E1
1.908732772E1,2.020451069E0,-9.755909920E0,1.956677794E0,1.015325509E1
1.910670638E1,1.795037746E0,-8.873932838E0,-2.144649029E-1,9.056204488E0
1.912605452E1,2.305747271E0,-8.299328804E0,1.109201550E0,8.684794595E0
1.914543319E1,3.224721432E0,-7.685352325E0,1.128927708E0,8.410585381E0
1.916478133E1,4.225286484E0,-7.472279549E0,8.351240158E-1,8.624699394E0
1.918415999E1,3.848100662E0,-7.765972137E0,1.150618076E0,8.743118660E0
1.920356917E1,2.306903601E0,-8.634877205E0,9.154803753E-1,8.984487347E0
1.922291732E1,1.249403477E0,-9.477812767E0,3.176174164E-1,9.565083623E0
1.924229598E1,1.276138544E0,-9.877417564E0,6.837444305E-1,9.982956164E0
1.926164412E1,1.916565657E0,-9.509164810E0,2.954768658E0,1.014041898E1
1.928102279E1,1.046138048E0,-7.337976456E0,6.512073517E0,9.866478843E0
1.930040145E1,2.905136108E0,-3.768104553E0,2.718558311E0,5.479871077E0
1.931974959E1,5.476065636E0,6.308817863E0,-1.374125957E0,8.466209295E0
1.933912826E1,4.755839348E0,5.046067810E1,-8.324527740E0,5.136337026E1
1.935850692E1,1.289374542E1,4.027984619E1,-2.037328482E0,4.234224117E1
1.937785506E1,1.368813133E1,1.874896622E1,9.473872185E-2,2.321416914E1
1.939723372E1,1.215091228E1,1.378690434E1,-3.219430447E0,1.865712017E1
1.941658187E1,7.763180733E0,1.003590107E1,-2.694272757E0,1.297094411E1
1.943596053E1,2.934272051E0,5.886385918E0,3.852873802E0,7.622606390E0
1.945533919E1,7.945294380E-1,9.529991150E-1,6.512876034E0,6.630010450E0
1.947471786E1,1.030778646E0,-4.363454819E0,2.249523401E0,5.016233458E0
1.949409652E1,1.173728943E0,-8.835350990E0,2.790343761E-1,8.917338557E0
1.951344466E1,1.458852768E0,-1.071569252E1,8.417599201E-1,1.084725206E1
1.953282332E1,2.409549236E0,-1.079778385E1,3.412473440E0,1.157769574E1
1.955220199E1,3.114109516E0,-1.168273735E1,2.001831770E0,1.225525848E1
1.957155013E1,3.628685951E0,-1.322394085E1,-2.275700092E0,1.390031598E1
1.959092879E1,3.223374844E0,-1.049689484E1,-8.740758896E-1,1.101539628E1
1.961027694E1,2.698354721E0,-8.474954605E0,3.039458275E0,9.399163812E0
1.962965560E1,1.622474670E0,-7.692081451E0,5.141757011E0,9.393519376E0
1.964903426E1,9.682140350E-1,-7.062884331E0,4.007497787E0,8.178130104E0
1.966838241E1,1.801847458E0,-6.961446762E0,2.798194647E0,7.716105790E0
1.968776107E1,3.571513176E0,-5.745967865E0,2.764585018E0,7.308541810E0
1.970713973E1,4.807802200E0,-2.530406952E0,3.803885221E0,6.632304586E0
1.972648788E1,5.025467873E0,3.430366516E-3,2.478075027E-1,5.031575068E0
1.974586654E1,3.465738058E0,2.200031281E1,-4.828329563E0,2.278898572E1
1.976524520E1,6.644344330E0,3.820372772E1,-8.047266006E0,3.960341669E1
1.978462386E1,1.161650944E1,2.802498627E1,-4.346204281E0,3.064690259E1
1.980400252E1,1.290235329E1,2.302517700E1,-8.626818657E-1,2.640783437E1
1.982335067E1,9.771447182E0,2.250096512E1,-5.325922966E0,2.510259084E1
1.984272933E1,7.378169060E0,1.761858559E1,-6.576647758E-1,1.911241638E1
1.986207747E1,5.517606258E0,1.046144390E1,5.603342056E0,1.308752190E1
1.988145614E1,2.919822693E0,3.993695259E0,7.765540123E0,9.207528430E0
1.990083480E1,1.137191534E0,-3.009038925E0,3.241338730E0,4.566595734E0
1.992018294E1,2.623612881E-1,-7.970035553E0,1.204854012E0,8.064860405E0
1.993956160E1,3.867471218E-1,-1.087822723E1,2.105213642E0,1.108680863E1
1.995890975E1,4.270076752E-3,-1.476958847E1,-2.134554386E-1,1.477113147E1
1.997828841E1,7.820816040E-1,-1.972403717E1,4.633307457E-1,1.974497327E1
1.999766707E1,1.682673931E0,-1.620653152E1,3.951189995E0,1.676588673E1
2.001701522E1,2.059398174E0,-9.412954330E0,3.629036665E0,1.029634582E1
2.003639388E1,1.840493441E0,-8.565649033E0,4.257313251E0,9.740763603E0
2.005580306E1,2.088919401E0,-7.266612053E0,3.666847229E0,8.403154384E0
2.007515120E1,3.036644459E0,-6.712956429E0,2.464911699E0,7.769220248E0
2.009452987E1,3.783168554E0,-7.293673515E0,1.984977722E0,8.452820489E0
2.011387801E1,3.718376637E0,-8.455437660E0,1.993476868E0,9.449587338E0
2.013325667E1,3.259451151E0,-9.469717979E0,2.034083605E0,1.021944600E1
2.015263534E1,2.972403765E0,-9.995833397E0,1.981777191E0,1.061505112E1
2.017198348E1,2.639625549E0,-9.738466263E0,2.155250311E0,1.031748284E1
2.019136214E1,2.182925224E0,-9.240797043E0,1.590074301E0,9.627347963E0
2.021071029E1,1.870633364E0,-9.146849632E0,2.201043606E0,9.592117615E0
2.023008895E1,6.045536995E-1,-7.971251488E0,5.949568748E0,9.965124372E0
2.024946761E1,1.847851038E0,-4.823831558E0,2.153214216E0,5.596448501E0
2.026881576E1,1.862348318E0,9.262833595E0,9.180941582E-1,9.492698476E0
2.028819442E1,1.309404373E-1,6.817864990E1,-5.564859867E0,6.840550499E1
2.030754256E1,1.006733894E1,3.186942482E1,-1.718726635E0,3.346588671E1
2.032692122E1,1.323307323E1,1.312901211E1,-5.280011177E0,1.937430526E1
2.034633040E1,1.300723362E1,1.543287659E1,-5.947709560E0,2.104131781E1
2.036567855E1,8.160811424E0,1.277427769E1,-4.013593197E-1,1.516384195E1
2.038505721E1,3.541571617E0,8.264529228E0,1.587055779E1,1.824060792E1
2.040440536E1,2.846968412E0,1.402318001E0,4.401574135E0,5.426378146E0
2.042378402E1,1.912225008E0,-4.340914726E0,1.440722942E-1,4.745619240E0
2.044316268E1,9.686598778E-1,-8.129640579E0,4.054663181E-1,8.197180054E0
2.046251082E1,8.303873539E-1,-1.105965042E1,3.026723146E0,1.149636741E1
2.048188949E1,1.668064833E0,-1.321754551E1,3.049525023E0,1.366695110E1
2.050126815E1,1.630772352E0,-1.353223610E1,-2.619719744E0,1.387961685E1
2.052061629E1,5.554890633E-1,-1.143969822E1,-1.007217526E0,1.149738016E1
2.053999496E1,3.878545761E-2,-9.395067215E0,2.080041170E0,9.622648469E0
2.055934310E1,4.279813766E-1,-8.785372734E0,2.360938311E0,9.107138510E0
2.057872176E1,2.504585266E0,-9.310487747E0,3.874409676E0,1.039082190E1
2.059810042E1,3.847602367E0,-8.680689812E0,5.927302837E0,1.119336136E1
2.061747909E1,2.492663145E0,-7.410508156E0,2.821854115E0,8.312151426E0
2.063685775E1,1.860977411E0,-6.559490204E0,1.165628433E-3,6.818368575E0
2.065620589E1,2.541673422E0,-4.297859192E0,1.225872040E0,5.141445290E0
2.067558455E1,3.725430489E0,1.684112549E0,-2.080571890E0,4.587357277E0
2.069496322E1,4.086798668E0,2.535455322E1,-6.601772785E0,2.651676255E1
2.071431136E1,9.607797623E0,3.767374039E1,-1.031844807E1,4.022550013E1
2.073369002E1,1.764096642E1,2.343574142E1,-3.487075806E0,2.953975914E1
2.075306869E1,1.714527702E1,2.410519409E1,-3.760600567E0,2.981883671E1
2.077241683E1,1.093950653E1,2.256722260E1,-6.152956486E-1,2.508646901E1
2.079179549E1,5.910691261E0,1.681055069E1,2.792346478E-1,1.782158404E1
2.081114364E1,3.552224636E0,9.046490669E0,9.122390747E-1,9.761632723E0
2.083052230E1,1.911683798E0,1.695857048E0,3.538821220E0,4.365056895E0
2.084990096E1,1.085926533E0,-5.629676819E0,2.695058823E0,6.335285280E0
2.086924910E1,1.621151686E0,-9.531161308E0,6.414346695E-1,9.689303747E0
2.088862777E1,2.455129147E0,-1.144453144E1,2.310661316E0,1.193080528E1
2.090800643E1,2.438066483E0,-1.337909508E1,4.827241898E0,1.443075250E1
2.092738509E1,1.630574226E0,-1.857130814E1,1.759799838E0,1.872562826E1
2.094676375E1,7.458353043E-1,-1.949665070E1,9.138007164E-1,1.953229865E1
2.096611190E1,1.036418915E0,-9.909498215E0,9.256813526E-1,1.000645816E1
2.098549056E1,2.520230770E0,-8.479927063E0,2.103559732E0,9.093167197E0
2.100483870E1,3.314671516E0,-7.678561211E0,2.278625250E0,8.668303326E0
2.102421737E1,3.657472610E0,-6.732367516E0,1.903329730E0,7.894589433E0
2.104359603E1,3.797797441E0,-7.438074112E0,1.719990969E0,8.526815398E0
2.106294417E1,3.087517500E0,-8.597991943E0,1.162179232E0,9.209174248E0
2.108232284E1,2.440365076E0,-9.240525246E0,8.790292740E-1,9.597675812E0
2.110170150E1,1.686632633E0,-9.677859306E0,1.191055179E0,9.895670914E0
2.112104964E1,1.270293474E0,-9.965435982E0,1.630140662E0,1.017747112E1
2.114042830E1,7.770442963E-1,-1.000365829E1,1.966470599E0,1.022467524E1
2.115977645E1,2.820386887E-1,-9.824135780E0,3.007374763E0,1.027801015E1
2.117915511E1,-4.415202141E-1,-9.097052574E0,6.792111397E-1,9.133051703E0
2.119856429E1,2.868383408E0,-5.259326935E0,7.248455286E-1,6.034363614E0
2.121791244E1,4.091335297E0,-2.676558495E0,8.656660080E0,9.941868719E0
2.123729110E1,3.116602659E0,6.442539978E1,-1.165595341E1,6.554545445E1
2.125663924E1,1.308538055E1,5.424534988E1,-1.842674637E1,5.876504190E1
2.127601790E1,1.601230812E1,1.420415115E1,-3.604054451E0,2.170578563E1
2.129539657E1,1.610441780E1,1.021912003E1,-4.847329140E0,1.967941276E1
2.131474471E1,1.175138283E1,1.230101776E1,-2.109642267E0,1.714236351E1
2.133412337E1,5.863659859E0,9.078032494E0,7.685826302E0,1.326141421E1
2.135347152E1,2.669630527E0,2.499713898E0,6.193014145E0,7.192282039E0
2.137285018E1,1.657526731E0,-2.487046242E0,-3.650481701E-1,3.010988881E0
2.139222884E1,1.215358734E0,-6.572992325E0,-2.389698029E-1,6.688679356E0
2.141157699E1,1.141981125E0,-1.082084370E1,4.749310493E0,1.187226724E1
2.143095565E1,2.002270222E0,-1.517533302E1,1.452504396E0,1.537561665E1
2.145030379E1,2.461324215E0,-1.547468472E1,-3.124471664E0,1.597768153E1
2.146968246E1,-2.059648037E-1,-1.313720703E1,-1.029623270E0,1.317910293E1
2.148909163E1,-1.702963829E0,-1.086486626E1,-6.912169456E-1,1.101921891E1
2.150843978E1,-4.934399128E-1,-9.574460983E0,6.921576262E-1,9.612120903E0
2.152781844E1,2.063994408E0,-8.436656952E0,2.276653528E0,8.978886608E0
2.154719710E1,4.647457123E0,-8.048715591E0,2.011555433E0,9.509313100E0
2.156654525E1,5.367479324E0,-7.610428810E0,1.817958355E0,9.488594920E0
2.158592391E1,5.208637238E0,-6.391561508E0,8.449301720E-1,8.288297013E0
2.160527205E1,5.499328136E0,-4.696249962E0,-1.580465078E0,7.402380936E0
2.162465072E1,6.444192886E0,-1.937211990E0,-4.418590546E0,8.050115196E0
2.164402938E1,7.606392384E0,4.363990784E0,-4.816254139E0,1.000489503E1
2.166337752E1,8.893230438E0,2.201073456E1,-1.966782331E0,2.382079378E1
2.168275619E1,8.965390205E0,3.668191147E1,-1.023714733E1,3.912467298E1
2.170210433E1,1.276189423E1,3.002969360E1,-1.071530914E1,3.434335878E1
2.172148299E1,1.719865417E1,2.349711227E1,-1.165159941E0,2.914216170E1
2.174086165E1,1.447224617E1,1.915607643E1,-3.626362562E0,2.428068530E1
2.176024032E1,6.883765221E0,1.390441704E1,-8.834691048E-1,1.554025593E1
2.177961898E1,2.671173573E0,6.356663704E0,1.402448177E0,7.036277609E0
2.179899764E1,7.641389370E-1,-1.372883797E0,1.282359958E0,2.028094006E0
2.181834578E1,3.508090973E-1,-8.032589912E0,-2.174303234E-1,8.043186164E0
2.183772445E1,-2.065422535E-1,-1.260707092E1,-1.616967916E0,1.271202117E1
2.185707259E1,-1.549276829E0,-1.748443985E1,-2.810842991E0,1.777657824E1
2.187645125E1,-6.647841930E-1,-1.919694901E1,-1.577686906E0,1.927313895E1
2.189582992E1,1.623223782E0,-1.543836498E1,2.217490911E0,1.568104699E1
2.191517806E1,2.810440063E0,-1.115633583E1,9.049553871E-1,1.154042230E1
2.193455672E1,2.558784723E0,-9.849739075E0,4.801822007E-1,1.018799853E1
2.195390487E1,1.879829645E0,-8.387870789E0,1.483548522E0,8.723018519E0
2.197328353E1,2.809366941E0,-7.063211441E0,4.215547442E-1,7.613094435E0
2.199266219E1,4.000458717E0,-6.672134399E0,-9.199836254E-1,7.833735843E0
2.201201034E1,4.562205791E0,-7.147732735E0,-1.588300467E0,8.627079651E0
2.203138900E1,3.832531452E0,-8.078874588E0,-1.615065455E0,9.086525649E0
2.205076766E1,3.358961582E0,-9.526511192E0,-5.615518093E-1,1.011693525E1
2.207014632E1,3.104925394E0,-9.972672462E0,6.608645618E-2,1.044505266E1
2.208952498E1,2.641436338E0,-9.940664291E0,5.097767115E-1,1.029824571E1
2.210887313E1,1.949685812E0,-9.400432587E0,1.139532447E0,9.667881970E0
2.212825179E1,-2.396028042E-1,-8.162825584E0,3.783927262E-1,8.175103185E0
2.214763045E1,-8.789572716E-1,-2.937572479E0,-1.098273993E0,3.257008400E0
2.216697860E1,4.168022633E0,4.818986893E0,2.948932171E0,7.020772627E0
2.218635726E1,7.123548508E0,3.248912048E1,3.320158243E0,3.342620744E1
2.220570540E1,8.167084694E0,4.790876007E1,-1.084876919E1,4.979604760E1
2.222508407E1,1.211089802E1,1.828782463E1,-1.149610233E1,2.476446546E1
2.224446273E1,1.412799835E1,2.118710709E1,-7.968323231E-1,2.547800592E1
2.226381087E1,1.218179512E1,1.856369972E1,2.920368910E-1,2.220568318E1
2.228318954E1,4.204056740E0,1.109754753E1,-1.148071289E-1,1.186772240E1
2.230253768E1,2.692548275E0,5.881883621E0,2.037729502E0,6.782235079E0
2.232191634E1,-6.369705200E-1,-1.134729385E-1,-7.381840348E-1,9.815921864E-1
2.234132552E1,2.532284260E-1,-7.246198654E0,-2.309822559E0,7.609651755E0
2.236067367E1,3.388430357E0,-1.179441166E1,-7.226196527E-1,1.229275339E1
2.238005233E1,3.835582972E0,-1.290934944E1,1.666374803E-1,1.346813899E1
2.239940047E1,3.196578503E0,-1.380166435E1,-7.002368569E-2,1.416717884E1
2.241877913E1,2.689955235E0,-1.295946980E1,1.859724969E-1,1.323700504E1
2.243815780E1,3.285739183E0,-1.082981873E1,6.959405541E-1,1.133866786E1
2.245750594E1,3.405714512E0,-9.270573616E0,6.111851931E-1,9.895250065E0
2.247688460E1,3.078543186E0,-8.936399460E0,7.108329535E-1,9.478499193E0
2.249626327E1,2.593456745E0,-9.432384491E0,5.470119119E-1,9.797709789E0
2.251561141E1,2.184705973E0,-1.001930237E1,-7.684737444E-1,1.028347762E1
2.253499007E1,2.382565975E0,-1.021089649E1,-1.435785055E0,1.058302918E1
2.255433822E1,2.731545448E0,-9.919701576E0,-2.076054096E0,1.049627651E1
2.257371688E1,3.110223293E0,-7.747690201E0,-1.799795866E0,8.540460031E0
2.259309554E1,4.479899883E0,-1.976013184E0,2.148165226E0,5.346844387E0
2.261244369E1,6.914050102E0,6.384050369E0,-1.380461574E0,9.511354377E0
2.263185287E1,7.545329571E0,3.751795197E1,-9.513590813E0,3.943395907E1
2.265120101E1,1.057376957E1,3.988468552E1,-9.224539757E0,4.228102264E1
2.267057967E1,1.261608124E1,1.944460106E1,-7.714964867E0,2.442905440E1
2.268995833E1,1.369403172E1,2.470483971E1,-8.097957611E0,2.938422242E1
2.270930648E1,8.409241676E0,1.974670601E1,-1.254694343E0,2.149934887E1
2.272868514E1,5.016715527E0,1.333256340E1,1.185595274E0,1.429441561E1
2.274803328E1,3.503537655E0,6.187664032E0,1.930974483E0,7.368217201E0
2.276741195E1,1.796804905E0,-1.107194901E0,7.948682308E-1,2.255261386E0
2.278679061E1,1.637217760E0,-7.462863922E0,-5.730596781E-1,7.661802484E0
2.280613875E1,1.563903570E0,-1.194756603E1,-7.712402344E-1,1.207414345E1
2.282551742E1,6.451570988E-1,-1.546840096E1,-4.194364548E-1,1.548752991E1
2.284489608E1,6.600952148E-1,-1.793940926E1,-9.760466218E-1,1.797806433E1
2.286424422E1,1.523921251E0,-1.667042160E1,1.368885756E0,1.679580723E1
2.288362288E1,1.366786957E0,-1.106129551E1,5.725096464E-1,1.116011345E1
2.290297103E1,2.506709337E0,-8.962687492E0,-2.413277864E0,9.614430240E0
2.292238021E1,3.800430775E0,-8.714980125E0,-1.266659260E0,9.591588937E0
2.294175887E1,4.048148632E0,-8.014890671E0,-4.908083081E-1,8.992600992E0
2.296110702E1,4.340626717E0,-7.596226692E0,-7.120173573E-1,8.777851045E0
2.298048568E1,3.663684130E0,-7.847235680E0,-3.536420465E-1,8.667568974E0
2.299983382E1,3.043447495E0,-8.880589485E0,-8.698312044E-1,9.427833716E0
2.301921248E1,2.312477112E0,-9.691796303E0,-1.078742266E0,1.002208316E1
2.303859115E1,1.443986177E0,-9.436606407E0,-8.456073999E-1,9.583824312E0
2.305793929E1,9.167170525E-1,-8.713525772E0,-1.147599459E0,8.836452119E0
2.307731795E1,1.612850428E0,-8.780731201E0,-1.420732021E0,9.039967168E0
2.309669662E1,2.513962984E0,-7.204757690E0,1.468454599E0,7.770772302E0
2.311604476E1,4.341405869E0,1.083055496E0,3.687387228E0,5.798071981E0
2.313542342E1,6.179983139E0,3.011118317E1,-7.670773506E0,3.168148212E1
2.315477157E1,1.026644707E1,5.808827972E1,-1.729797935E1,6.147250008E1
2.317415023E1,1.104274178E1,1.864078903E1,-2.969895124E0,2.186873199E1
2.319352889E1,1.323627853E1,1.329112434E1,-3.155767679E0,1.902135446E1
2.321290755E1,1.473760223E1,1.658080292E1,-8.798496246E0,2.386490061E1
2.323228621E1,9.363268852E0,7.416398048E0,3.687083244E0,1.250073384E1
2.325163436E1,3.411569834E0,3.147898674E0,3.860195398E0,6.037315902E0
2.327101302E1,2.184861898E0,-1.849242210E0,-1.547322512E0,3.253847757E0
2.329039168E1,1.333058834E0,-6.962127686E0,-7.992698550E-1,7.133519473E0
2.330973983E1,6.577789783E-1,-1.161377048E1,-3.248715401E-2,1.163242853E1
2.332911849E1,1.243802547E0,-1.413166618E1,-2.387295008E0,1.438576419E1
2.334846663E1,1.887869835E-2,-1.387104893E1,-4.372612000E0,1.454393655E1
2.336784530E1,-2.691862583E-1,-1.280316925E1,-3.127006531E0,1.318225223E1
2.338722396E1,2.860021591E-2,-1.085206509E1,-1.529407859E0,1.095934410E1
2.340657210E1,1.141710043E0,-9.406558037E0,9.033993483E-1,9.518559046E0
2.342595077E1,2.661524057E0,-9.113625526E0,8.175805807E-1,9.529444819E0
2.344532943E1,2.655954361E0,-8.415508270E0,-3.356744051E-1,8.831056014E0
2.346467757E1,2.226481676E0,-7.869983673E0,-1.843173981E0,8.383981989E0
2.348405623E1,2.262087584E0,-7.240653038E0,-1.601223707E0,7.752935832E0
2.350343490E1,3.347906828E0,-6.952379227E0,-7.755357623E-1,7.755353813E0
2.352281356E1,4.188464165E0,-4.850586891E0,-5.630291700E-1,6.433383798E0
2.354219222E1,5.936603546E0,-7.378292084E-2,-5.288945198E0,7.951204116E0
2.356154037E1,7.352567673E0,9.052944183E0,-9.261195183E0,1.489247414E1
2.358091903E1,8.848171234E0,3.053762817E1,-1.214688301E1,3.403503541E1
2.360026717E1,1.538916779E1,3.201201248E1,-1.031044674E1,3.698514215E1
2.361964583E1,1.520732212E1,2.414438629E1,-5.086643696E0,2.898427124E1
2.363902450E1,9.479972839E0,2.187783051E1,-4.395968437E0,2.424528596E1
2.365837264E1,7.053010941E0,1.880672073E1,-5.121251583E0,2.072836042E1
2.367775130E1,5.660746574E0,1.353110600E1,-4.910490990E0,1.546763728E1
2.369709945E1,3.881740093E0,7.175818443E0,-7.874106765E-1,8.196358463E0
2.371647811E1,2.398977041E0,1.187686920E0,6.119270325E0,6.679158657E0
2.373585677E1,2.053378344E0,-5.735524178E0,2.783682942E-1,6.098367742E0
2.375520492E1,9.174752235E-2,-1.164105320E1,-5.181167603E0,1.274233240E1
2.377461410E1,1.812590599E0,-1.528320312E1,-3.633687496E-1,1.539460358E1
2.379399276E1,2.886555195E0,-1.702549362E1,1.626264095E0,1.734486578E1
2.381334090E1,9.819891453E-1,-1.650513077E1,4.843405485E-1,1.654140956E1
2.383271956E1,-8.259868622E-1,-1.169902611E1,-4.269226789E-1,1.173591620E1
2.385206771E1,4.069304466E-2,-9.162901878E0,-1.065711498E0,9.224758412E0
2.387144637E1,2.193600655E0,-8.285944939E0,1.335047483E-1,8.572432028E0
2.389082503E1,3.326583147E0,-7.871754646E0,-1.249645352E-1,8.546712396E0
2.391017318E1,3.804450035E0,-8.150497437E0,-1.332450271E0,9.092847313E0
2.392955184E1,3.919526339E0,-8.340803146E0,-1.969332695E0,9.423903390E0
2.394889998E1,3.518011332E0,-8.641343117E0,-1.442486525E0,9.440867649E0
2.396827865E1,2.663117409E0,-9.022417068E0,-8.300235271E-1,9.443788601E0
2.398765731E1,2.074303627E0,-9.433135033E0,-4.512808919E-1,9.669044758E0
2.400700545E1,1.580362558E0,-9.586149216E0,-2.863864899E-1,9.719764391E0
2.402638412E1,6.695432663E-1,-9.533517838E0,-1.768584728E0,9.719266561E0
2.404573226E1,6.750221252E-1,-9.513302803E0,-2.065130949E0,9.758245279E0
2.406514144E1,2.172810793E0,-9.267123222E0,6.613781929E0,1.159063376E1
2.408452010E1,5.425088882E0,-3.460932732E0,-1.401811838E-3,6.435032768E0
2.410386825E1,6.499103069E0,9.054308891E0,-3.605124712E0,1.171391371E1
2.412324691E1,7.841443539E0,6.141662598E1,-1.470983887E1,6.363858533E1
2.414262557E1,1.087023449E1,3.218472290E1,-1.099036884E1,3.570443381E1
2.416197371E1,1.311461258E1,1.572124767E1,7.860729694E-1,2.048825523E1
2.418135238E1,1.418534279E1,1.752050972E1,-4.198422909E0,2.293074281E1
2.420070052E1,8.724966049E0,1.419794369E1,-6.853320122E0,1.801873009E1
2.422007918E1,4.217583179E0,1.029976463E1,-9.373080134E-1,1.116923031E1
2.423945784E1,3.123508692E0,3.436985016E0,3.338197231E0,5.719504638E0
2.425880599E1,2.980062962E0,-2.785725594E0,-1.592963934E0,4.379335159E0
2.427818465E1,1.938880444E0,-8.466238022E0,-1.521348715E0,8.817649660E0
2.429753280E1,-5.614571571E-1,-1.285473061E1,-1.096655726E0,1.291363570E1
2.431691146E1,8.880639076E-2,-1.446600056E1,-4.093673706E0,1.503433481E1
2.433629012E1,7.165658474E-1,-1.370600033E1,-3.355491638E0,1.412895027E1
2.435566878E1,1.213724375E0,-1.220725918E1,-9.672418237E-1,1.230552153E1
2.437504744E1,2.472904205E0,-1.030505180E1,1.838522553E-1,1.059920514E1
2.439442611E1,3.286041260E0,-9.757510185E0,1.194658995E0,1.036505100E1
2.441377425E1,3.154057980E0,-9.391992569E0,1.276821375E0,9.989388318E0
2.443315291E1,2.547077656E0,-9.273873329E0,-1.819990873E-1,9.619015271E0
2.445250106E1,1.832991600E0,-8.972090721E0,-2.194815397E0,9.416766151E0
2.447187972E1,1.883484125E0,-7.934635162E0,-2.118255138E0,8.425731567E0
2.449125838E1,2.970936298E0,-6.727858543E0,-1.238784552E0,7.458225676E0
2.451060653E1,4.533540726E0,-4.584271431E0,-7.520140409E-1,6.491075503E0
2.452998519E1,5.725566864E0,-3.590698242E-1,-3.488305092E0,6.714113454E0
2.454933333E1,7.077448368E0,1.607809639E1,-8.040893555E0,1.931971605E1
2.456871200E1,1.188133526E1,4.619137192E1,-1.249007034E1,4.930325369E1
2.458809066E1,1.803015709E1,3.033067703E1,-7.998643398E0,3.618030998E1
2.460743880E1,1.263471317E1,2.147397614E1,-5.584694862E0,2.553343778E1
2.462684798E1,6.357886314E0,1.807038879E1,-2.366167068E0,1.930182417E1
2.464619613E1,4.208323479E0,1.283450031E1,-1.698506117E0,1.361320344E1
2.466557479E1,3.344166994E0,6.558358192E0,2.948949337E-1,7.367664358E0
2.468495345E1,2.576909065E0,-3.500728607E-1,9.368116856E-1,2.764168496E0
2.470430160E1,2.586744070E0,-6.194623947E0,-1.450542331E0,6.867946111E0
2.472368026E1,2.524605751E0,-1.017377377E1,-6.280300617E-1,1.050112987E1
2.474305892E1,1.740434885E0,-1.390355682E1,7.523640990E-1,1.403225063E1
2.476240706E1,3.740906715E-2,-1.905086517E1,1.088817835E0,1.908199118E1
2.478178573E1,4.835658073E-1,-1.693577957E1,8.836020827E-1,1.696570712E1
2.480113387E1,6.788492203E-3,-9.648756027E0,1.042779684E-1,9.649321886E0
2.482051253E1,1.194797516E0,-8.802922249E0,-1.651689649E0,9.035876267E0
2.483989120E1,2.691090584E0,-9.157807350E0,-4.240076542E-1,9.554432819E0
2.485923934E1,3.301937580E0,-8.795713425E0,3.344899416E-1,9.401023878E0
2.487861800E1,3.385318041E0,-8.603233337E0,-3.117632866E-2,9.245375820E0
2.489796615E1,3.411355734E0,-8.823404312E0,-3.504226208E-1,9.466393591E0
2.491737533E1,3.071696758E0,-8.961999893E0,-1.532332063E0,9.596916412E0
2.493678451E1,2.533431768E0,-9.343834877E0,-2.208019257E0,9.929797368E0
2.495610213E1,2.126988411E0,-9.738345146E0,-1.517228127E0,1.008272915E1
2.497548080E1,1.690886259E0,-9.538090706E0,-1.073949575E0,9.746160185E0
2.499485946E1,4.372475147E-1,-8.906278610E0,-1.314316511E0,9.013346324E0
2.501420760E1,-4.340469837E-1,-7.137611389E0,-1.627509832E0,7.333667662E0
2.503358626E1,1.930896759E0,-3.469852448E0,1.776215911E0,4.350078305E0
2.505293441E1,3.076225281E0,2.673530769E1,-2.397680521E0,2.701830327E1
2.507231307E1,8.336247444E0,6.892018890E1,-1.706307983E1,7.148869948E1
2.509169173E1,1.759750748E1,2.187437820E1,-3.931967974E0,2.834821094E1
2.511103988E1,1.798606682E1,1.058533192E1,-4.397295475E0,2.132801113E1
2.513041854E1,1.166250610E1,1.357954025E1,2.473518133E0,1.807031417E1
2.514976668E1,5.624884605E0,8.820030212E0,1.259038687E0,1.053648130E1
2.516914534E1,2.776119947E0,3.194823265E0,6.765954494E-1,4.286201006E0
2.518852401E1,2.107527018E0,-2.274869919E0,-1.142422557E0,3.304819598E0
2.520790267E1,1.452135086E0,-6.731840134E0,-1.883658648E0,7.139645495E0
2.522728133E1,4.963226318E-1,-1.055253410E1,1.493268907E-1,1.056525488E1
2.524662948E1,2.136142254E-1,-1.348130035E1,3.151698112E-1,1.348667573E1
2.526600814E1,1.262934446E0,-1.525418282E1,-1.245109320E0,1.535693309E1
2.528538680E1,2.250890017E0,-1.576401806E1,-3.547994614E0,1.631438129E1
2.530473494E1,1.969815016E0,-1.249811268E1,-1.875041723E0,1.279057361E1
2.532411361E1,2.178702593E0,-1.038177776E1,3.515614271E-1,1.061374816E1
2.534349227E1,2.292571545E0,-9.420478821E0,1.310343623E0,9.783573269E0
2.536284041E1,2.694516897E0,-9.182837486E0,1.477147937E-1,9.571141273E0
2.538221908E1,3.178441286E0,-9.005942345E0,-1.698424459E0,9.700212996E0
2.540156722E1,3.590317249E0,-7.680407524E0,-2.228624344E0,8.766173861E0
2.542094588E1,3.969213724E0,-5.390624046E0,3.415008634E-2,6.694374610E0
2.544032455E1,4.300811291E0,-2.812450409E0,1.656463146E0,5.399141155E0
2.545967269E1,6.321469784E0,5.402956009E0,-5.349718571E0,9.887992852E0
2.547905135E1,8.174906731E0,3.674404907E1,-8.004601479E0,3.848412513E1
2.549843001E1,1.326071835E1,3.550361252E1,-1.197867870E1,3.974722501E1
2.551780868E1,1.711470604E1,2.260396194E1,-1.163115692E1,3.064532705E1
2.553718734E1,1.583974171E1,2.171185875E1,-8.964254379E0,2.833125631E1
2.555653548E1,9.444525719E0,1.801152802E1,-3.486471415E0,2.063418742E1
2.557591414E1,4.704161644E0,1.274502087E1,3.262767792E-1,1.358937637E1
2.559529281E1,9.652206898E-1,6.870840073E0,5.525908470E0,8.869935665E0
2.561464095E1,4.612607956E-1,-3.040847778E-1,2.206379414E0,2.274497569E0
2.563405013E1,1.608228207E0,-6.799863815E0,3.284003735E-1,6.995169239E0
2.565336776E1,2.396640539E0,-1.148255348E1,2.661144137E-1,1.173301910E1
2.567274642E1,6.875538826E-1,-1.603483582E1,-2.277195454E0,1.621031490E1
2.569212508E1,-8.054807186E-1,-1.871201897E1,-1.014223576E0,1.875678817E1
2.571147323E1,9.346542358E-1,-1.578047180E1,7.680830956E-1,1.582677543E1
2.573085189E1,2.553018332E0,-1.276734161E1,-9.923067689E-1,1.305785538E1
2.575020003E1,2.466113567E0,-1.127258110E1,-1.410273790E0,1.162504507E1
2.576960921E1,2.203225613E0,-9.094628334E0,-1.200389624E0,9.434373476E0
2.578898788E1,2.625252724E0,-6.744457245E0,-1.877517462E0,7.476946383E0
2.580833602E1,3.096313715E0,-6.145682335E0,-1.969439983E0,7.157881239E0
2.582771468E1,3.003291845E0,-7.419105530E0,-1.170010090E0,8.088993286E0
2.584706283E1,2.390603781E0,-9.149044991E0,-5.553504825E-1,9.472508899E0
2.586647201E1,1.844215393E0,-9.986868858E0,-4.409761727E-1,1.016529094E1
2.588582015E1,1.753287077E0,-9.993461609E0,-7.477655411E-1,1.017361508E1
2.590516830E1,2.121991396E0,-9.876631737E0,-3.020524085E-1,1.010652945E1
2.592454696E1,2.341807842E0,-8.891873360E0,1.270622492E0,9.282454273E0
2.594392562E1,5.942544937E-1,-7.940345764E0,1.036080599E0,8.029675726E0
2.596327376E1,-2.884724140E-1,-3.581874847E0,-1.952530503E0,4.089672251E0
2.598265242E1,2.674173117E0,3.235757828E0,6.899697781E0,8.076333329E0
2.600200057E1,4.187988281E0,3.561437988E1,-1.011988544E1,3.726037281E1
2.602137923E1,1.182044601E1,5.343199921E1,-1.786717796E1,5.756680929E1
2.604075789E1,1.802221680E1,1.464009380E1,-4.149622917E0,2.358711545E1
2.606013656E1,1.614296913E1,1.491574287E1,-6.045590639E-1,2.198727654E1
2.607951522E1,1.003757572E1,1.514986324E1,-3.910774231E0,1.858939046E1
2.609889388E1,4.720308781E0,9.208395958E0,-1.881652117E0,1.051743723E1
2.611824202E1,2.207499981E0,3.646064758E0,2.536786079E0,4.960053226E0
2.613762069E1,1.868098021E0,-2.572499275E0,-7.076236606E-2,3.180023592E0
2.615696883E1,1.423518181E0,-7.362936974E0,-1.907295704E0,7.738024411E0
2.617634749E1,6.016728878E-1,-9.988282204E0,-2.088172674E0,1.022194975E1
2.619569564E1,1.153043270E0,-1.231590176E1,-2.058163643E0,1.253981589E1
2.621507430E1,2.449731827E0,-1.356270695E1,-2.976165295E0,1.409984984E1
2.623445296E1,2.648442268E0,-1.285905647E1,-9.154403806E-1,1.316083625E1
2.625380111E1,2.251920462E0,-1.164847755E1,1.059506893E0,1.191136978E1
2.627317977E1,1.162581205E0,-1.052539349E1,1.039197564E0,1.064027418E1
2.629255843E1,8.707220554E-1,-9.674796104E0,-2.502313852E-1,9.717121606E0
2.631190658E1,1.392709970E0,-9.548098564E0,-1.467073202E0,9.760027205E0
2.633131576E1,2.151610136E0,-9.733292580E0,-1.767678618E0,1.012378873E1
2.635066390E1,3.457592487E0,-8.858113289E0,-1.873271465E0,9.691762628E0
2.637004256E1,4.164059162E0,-6.403597832E0,-8.981950283E-1,7.691047276E0
2.638942122E1,4.280533791E0,-2.413671494E0,-3.067027330E-1,4.923702487E0
2.640876937E1,6.109991074E0,4.688683510E0,-4.584631324E-1,7.715305076E0
2.642814803E1,7.674865723E0,2.656233978E1,-1.291311932E1,3.051573543E1
2.644749618E1,8.716750145E0,3.555334473E1,-1.132412434E1,3.831785284E1
2.646687484E1,1.275372314E1,2.263383865E1,-1.003582764E1,2.785077993E1
2.648625350E1,1.686668015E1,2.380239487E1,-1.069676018E1,3.107184544E1
2.650560164E1,1.525158596E1,2.000682449E1,-8.449977875E0,2.653838779E1
2.652498031E1,9.035999298E0,1.371619892E1,-1.014929295E0,1.645641144E1
2.654435897E1,3.752550125E0,6.762729645E0,4.852620602E0,9.130392729E0
2.656373763E1,1.296836853E0,-1.342506409E-1,1.107625961E0,1.710743794E0
2.658308578E1,6.756875515E-1,-5.687419891E0,-1.171205759E0,5.845940610E0
2.660243392E1,6.705093384E-1,-9.708959579E0,3.801348209E-1,9.739506218E0
2.662181258E1,-1.293320656E-1,-1.364474392E1,-5.611540079E-1,1.365689047E1
2.664122176E1,-1.627605915E0,-1.804915237E1,-2.191969395E0,1.825447157E1
2.666056991E1,-1.782151461E0,-1.836789513E1,-4.674944878E-1,1.846007005E1
2.667994857E1,3.671600819E-1,-1.106732368E1,-1.499836445E0,1.117452323E1
2.669929671E1,3.209650517E0,-9.788745880E0,-6.896758080E-2,1.030175514E1
2.671867538E1,4.626854897E0,-9.006949425E0,1.007207036E0,1.017582381E1
2.673805404E1,3.665523767E0,-7.601880074E0,-8.516130447E-1,8.482328096E0
2.675740218E1,2.828563929E0,-6.960902214E0,-2.491595268E0,7.915995232E0
2.677678084E1,2.503661156E0,-7.497099876E0,-2.185032845E0,8.200560607E0
2.679615951E1,2.081458092E0,-8.834196091E0,-1.506929278E0,9.200343700E0
2.681550765E1,2.194200993E0,-9.908535004E0,-1.277242064E0,1.022863291E1
2.683488631E1,2.313979387E0,-1.045476437E1,-1.176111937E0,1.077217888E1
2.685423446E1,2.436417103E0,-1.078034210E1,-1.167126656E0,1.111368925E1
2.687361312E1,1.912129641E0,-1.046553421E1,-8.501437306E-1,1.067269368E1
2.689299178E1,1.076174259E0,-9.472697258E0,8.170381188E-1,9.568578560E0
2.691237044E1,2.390019894E-1,-6.845036507E0,2.162222147E0,7.182398718E0
2.693174910E1,3.292638302E0,-4.069837570E0,-1.555772781E0,5.461270345E0
2.695109725E1,3.654308558E0,2.232332420E1,-7.560577393E0,2.385051582E1
2.697047591E1,7.745538712E0,6.323041916E1,-2.012188339E1,6.680545987E1
2.698985457E1,1.573315716E1,2.481504059E1,-9.984584808E0,3.103240898E1
2.700920272E1,1.924875259E1,1.444077301E1,3.113689423E0,2.426407763E1
2.702858138E1,1.572675133E1,1.456890774E1,-3.972258091E0,2.180281207E1
2.704792952E1,7.643711090E0,1.211483002E1,-3.801374435E0,1.482045455E1
2.706730819E1,2.727969646E0,6.124624252E0,2.400426865E0,7.121438742E0
2.708668685E1,1.731836915E0,-8.841876984E-1,-7.895046473E-2,1.946093565E0
2.710603499E1,1.478111267E0,-5.861389160E0,-2.009037971E0,6.370002306E0
2.712541366E1,8.612873554E-1,-1.011384201E1,-1.177096844E0,1.021847215E1
2.714479232E1,9.059321880E-1,-1.157812309E1,8.057858944E-1,1.164143197E1
2.716414046E1,6.683545113E-1,-1.284296131E1,-2.097352982E0,1.303024338E1
2.718351912E1,2.229461670E-1,-1.526966953E1,-4.305979729E0,1.586675689E1
2.720289779E1,7.237696648E-1,-1.541534519E1,-1.732586861E0,1.552928096E1
2.722227645E1,1.738867521E0,-1.198188877E1,-2.103793621E-1,1.210923525E1
2.724165511E1,2.279720306E0,-9.654542923E0,1.765988231E0,1.007601301E1
2.726100326E1,2.853608847E0,-8.441838264E0,1.437923670E0,9.026369215E0
2.728038192E1,3.005458117E0,-8.053843498E0,9.895601273E-1,8.653115210E0
2.729973006E1,2.918866873E0,-8.504608154E0,1.392723918E-1,8.992638127E0
2.731910872E1,2.556570053E0,-7.894119263E0,1.077790260E-1,8.298480927E0
2.733848739E1,2.209594727E0,-6.007376671E0,-2.050521612E0,6.721273853E0
2.735783553E1,2.996030569E0,-4.484478951E0,-2.393794060E0,5.900593244E0
2.737721419E1,4.929306030E0,2.087084770E0,-2.150589943E0,5.768796918E0
2.739659286E1,3.890826464E0,5.227557755E1,-1.206215477E1,5.379005592E1
2.741594100E1,1.145779610E1,3.760229111E1,-1.616172028E1,4.250193631E1
2.743531966E1,1.483387852E1,2.133525467E1,-8.861600876E0,2.745478125E1
2.745466781E1,1.390143490E1,2.191167068E1,-4.088434219E0,2.626949750E1
2.747404647E1,9.657135010E0,1.668218613E1,-3.542057514E0,1.959851428E1
2.749345565E1,6.794871807E0,1.041034985E1,-1.167428017E0,1.248633473E1
2.751280379E1,4.103773117E0,3.131109238E0,1.113756895E0,5.280648945E0
2.753218246E1,1.655808926E0,-4.171465874E0,4.501021504E-1,4.510590059E0
2.755153060E1,-2.596545219E-1,-9.948596954E0,-2.508281708E0,1.026320997E1
2.757090926E1,6.236393452E-1,-1.386567497E1,-1.814267397E0,1.399776535E1
2.759028792E1,-4.041886330E-1,-1.721399307E1,1.095499039E0,1.725355164E1
2.760963607E1,-4.796478748E-1,-1.856315994E1,9.276714325E-1,1.859251310E1
2.762901473E1,9.061291218E-1,-1.323647308E1,7.768011093E-2,1.326767967E1
2.764836288E1,2.369503260E0,-1.066191006E1,-1.448277831E0,1.101763951E1
2.766774154E1,3.128231764E0,-9.746965408E0,-1.220942497E0,1.030921283E1
2.768712020E1,3.341483116E0,-8.445119858E0,-1.209681630E0,9.162362603E0
2.770646834E1,3.646643877E0,-7.348950386E0,-1.467139482E0,8.334121526E0
2.772584701E1,3.321048975E0,-7.317907333E0,-1.174763441E0,8.121650274E0
2.774522567E1,2.524133444E0,-8.043643951E0,-1.124179006E0,8.505012410E0
2.776457381E1,1.965902090E0,-8.966881752E0,-1.032490253E0,9.237736493E0
2.778398299E1,1.845861912E0,-9.832412720E0,-1.314169168E0,1.009012322E1
2.780333114E1,1.996206284E0,-1.029277229E1,-1.581062794E0,1.060310146E1
2.782270980E1,2.232247591E0,-1.023436642E1,-1.506027222E0,1.058268885E1
2.784208846E1,1.754592419E0,-9.361949921E0,-6.157942414E-1,9.544836479E0
2.786143660E1,9.375336170E-1,-7.345515251E0,-1.138839722E0,7.492163873E0
2.788081527E1,2.641098976E0,-7.100391388E-1,-1.869957447E0,3.313049990E0
2.790016341E1,5.903088093E0,1.262167835E1,4.867825985E0,1.475970675E1
2.791954207E1,9.565731049E0,6.213655472E1,-1.567580795E1,6.479340705E1
2.793892074E1,1.340896130E1,2.687672043E1,-6.146914482E0,3.065848825E1
2.795826888E1,1.397285080E1,6.810894966E0,-8.182660103E0,1.756658123E1
2.797764754E1,1.530599594E1,1.231413555E1,2.823605061E0,1.984651586E1
2.799702620E1,7.526230335E0,1.306288719E1,-2.635669231E0,1.530457177E1
2.801637435E1,2.737581968E0,8.220893860E0,5.212645531E-1,8.680389831E0
2.803575301E1,1.471857667E0,3.728933334E0,-1.126096845E0,4.164060867E0
2.805513167E1,1.161303043E0,-1.223006248E0,-2.733673155E-2,1.686747266E0
2.807451034E1,1.125665426E0,-5.393736839E0,6.678464413E-1,5.550273742E0
2.809388900E1,2.096720219E0,-8.580794334E0,-1.014650583E0,8.891331896E0
2.811323714E1,2.771787882E0,-1.111994267E1,-3.154036283E0,1.188628949E1
2.813261580E1,2.148359537E0,-1.411216068E1,-4.196228981E0,1.487873871E1
2.815196395E1,5.731511116E-1,-1.416781139E1,-3.297526360E0,1.455778355E1
2.817134261E1,4.524157047E-1,-1.205426598E1,-3.041222095E-1,1.206658603E1
2.819072127E1,1.064650536E0,-1.045154762E1,1.429295659E0,1.060241551E1
2.821006942E1,1.539943695E0,-9.697933197E0,2.405318022E-1,9.822382116E0
2.822944808E1,2.121474504E0,-9.785559654E0,-1.473878384E0,1.012077810E1
2.824882674E1,2.502762318E0,-9.359923363E0,-1.961331367E0,9.885282257E0
2.826817489E1,3.316005945E0,-8.010772705E0,-3.291511297E0,9.273749047E0
2.828755355E1,4.154815674E0,-5.895406723E0,-2.826131821E0,7.746311043E0
2.830690169E1,5.098992348E0,-1.290065765E0,-2.545803487E-1,5.265814637E0
2.832628036E1,7.181412697E0,1.446139812E1,-6.023700237E0,1.723338877E1
2.834565902E1,8.776500702E0,5.330849838E1,-9.980221748E0,5.494022015E1
2.836503768E1,1.397136688E1,3.165302277E1,-1.194758892E1,3.660406841E1
2.838441634E1,1.371443939E1,2.288347626E1,-1.139197159E1,2.900890122E1
2.840376449E1,1.092496395E1,1.962047195E1,-4.626540661E0,2.292864225E1
2.842314315E1,7.086203575E0,1.235722828E1,-3.808613122E-1,1.424992727E1
2.844252181E1,3.134209394E0,4.423597336E0,5.517323017E0,7.735136404E0
2.846186996E1,2.042293310E0,-2.830946922E0,-1.021974802E0,3.637259262E0
2.848124862E1,1.827537537E0,-8.419571877E0,-3.018808365E0,9.129199745E0
2.850059676E1,3.644454479E-1,-1.330965137E1,-1.248542666E0,1.337305122E1
2.851997542E1,-3.884160519E0,-1.900251007E1,-4.686210632E0,1.995351252E1
2.853935409E1,-2.771794081E0,-1.673040390E1,-7.738864422E-1,1.697610548E1
2.855870223E1,1.597239733E0,-1.241483879E1,9.959548712E-1,1.255672422E1
2.857808089E1,4.885822296E0,-1.078739166E1,3.510481358E0,1.235162166E1
2.859745955E1,5.354810238E0,-9.360752106E0,2.816644907E0,1.114590334E1
2.861680770E1,4.267422199E0,-7.822883606E0,-7.271311283E-1,8.940756110E0
2.863621688E1,3.528892040E0,-6.846008301E0,-2.384281158E0,8.062611570E0
2.865556502E1,2.113014698E0,-7.138832092E0,-2.819052696E0,7.960829910E0
2.867494369E1,1.385311842E0,-8.701205254E0,-3.350671053E0,9.426402191E0
2.869432235E1,1.342883348E0,-9.976454735E0,-2.354102612E0,1.033802611E1
2.871367049E1,1.610913634E0,-1.060311222E1,-1.047577500E0,1.077582712E1
2.873304915E1,1.782512426E0,-1.038124847E1,2.654838562E-2,1.053320347E1
2.875239730E1,8.307888508E-1,-9.881656647E0,-1.517792702E0,1.003200094E1
2.877177596E1,-2.687039375E-1,-9.508646965E0,-2.872125626E0,9.936582638E0
2.879115462E1,-9.229371548E-1,-9.176219940E0,-1.890586853E0,9.414305287E0
2.881050277E1,-1.564723015E0,-7.492785454E0,-2.594931602E0,8.082317860E0
2.882988143E1,9.693444967E-1,-3.283930779E0,-2.927887678E0,4.505147763E0
2.884922957E1,4.970442772E0,1.158135414E1,2.220373631E0,1.279699668E1
2.886860824E1,6.795533180E0,6.925093079E1,-1.531810379E1,7.124966659E1
2.888798690E1,1.776601028E1,3.602357483E1,-2.674902439E0,4.025523777E1
2.890733504E1,2.094830894E1,1.027381039E1,-1.432053947E1,2.737627948E1
2.892674422E1,1.832528877E1,1.197214794E1,-6.768232346E0,2.291195112E1
2.894612288E1,9.709585190E0,1.185014915E1,4.860841751E0,1.607264328E1
2.896547103E1,4.542749405E0,6.490634918E0,4.689087272E-1,7.936295684E0
2.898484969E1,2.671594143E0,2.525129318E0,6.690523624E-1,3.736485568E0
2.900419784E1,6.795508862E-1,-1.512203217E0,-2.364511967E0,2.887813155E0
2.902357650E1,-6.313295364E-1,-5.523144722E0,-2.852657080E0,6.248308332E0
2.904295516E1,-6.901304722E-1,-8.715262413E0,-1.516351581E0,8.873071684E0
2.906230330E1,1.914772987E-1,-1.041742420E1,1.368620396E-1,1.042008262E1
2.908169678E1,7.028394938E-1,-1.205361366E1,-2.047225475E0,1.224641653E1
2.910107544E1,-7.294547558E-2,-1.319157505E1,-5.221062660E0,1.418740528E1
2.912042359E1,-2.242201567E-1,-1.293323040E1,-5.158181190E0,1.392571565E1
2.913980225E1,3.167656660E-1,-1.224536133E1,-3.867602110E0,1.284552687E1
2.915915039E1,7.297395468E-1,-1.143332767E1,-2.737133503E0,1.177902379E1
2.917852906E1,1.131387472E0,-1.110878372E1,-1.834433794E0,1.131592951E1
2.919790772E1,1.891154528E0,-1.104158115E1,4.775624275E-1,1.121253966E1
2.921728638E1,3.007314205E0,-9.846246719E0,3.049770594E0,1.073748638E1
2.923666504E1,2.439388990E0,-8.127279282E0,1.191075087E0,8.568660749E0
2.925601319E1,1.925911427E0,-7.987855911E0,-8.507403135E-1,8.260674062E0
2.927539185E1,2.000839233E0,-7.542760849E0,-3.256708145E0,8.455929683E0
2.929477051E1,5.467104435E0,1.491375828E1,-3.302521229E0,1.622393489E1
2.931411866E1,7.855426311E0,4.673675919E1,-3.203084469E0,4.750044349E1
2.933349732E1,1.006614304E1,2.111501312E1,3.282182455E0,2.362083268E1
2.935284546E1,1.077238274E1,4.462143898E0,-1.301216698E1,1.747201899E1
2.937222412E1,9.188387871E0,-1.998112679E0,-8.478396416E0,1.266104781E1
2.939160279E1,6.850454807E0,3.253917694E0,-9.109102249E0,1.185295133E1
2.941095093E1,7.523826599E0,3.617893219E0,1.016448593E1,1.315347453E1
2.943032959E1,3.257778406E0,-3.349302292E0,3.297088861E0,5.718543604E0
2.944970826E1,1.071603060E0,-3.093778610E0,1.201065421E0,3.487457147E0
2.946905640E1,9.201813936E-1,-2.274176598E0,3.005580902E-1,2.471628645E0
2.948843506E1,6.191610098E-1,-2.098064423E0,-2.473610640E0,3.302118150E0
2.950781372E1,1.158806324E0,-2.969916344E0,-3.317236900E0,4.600792958E0
2.952719239E1,2.587322712E0,-2.616078377E0,-3.947175741E0,5.396137621E0
2.954657105E1,1.892108679E0,-6.939439774E0,-1.532053947E0,7.354120540E0
2.956591919E1,6.292136908E-1,-7.151685715E0,-1.895542502E0,7.425334996E0
2.958529786E1,2.316649914E0,-6.514703751E0,-8.286979795E-1,6.963833149E0
2.960464600E1,3.770727158E0,-4.685192108E0,-2.491212130E0,6.509650241E0
2.962402466E1,5.608840942E0,-1.940535545E0,2.673462868E0,6.509391571E0
2.964340332E1,3.955906868E0,1.473287582E0,2.799494505E0,5.065268496E0
2.966275147E1,2.208660841E0,2.157907486E0,1.268502235E0,3.338239858E0
2.968213013E1,1.556544662E0,3.680877686E-1,-1.353854418E0,2.095528972E0
2.970150879E1,1.713884354E0,-1.276677132E0,-3.602289200E0,4.188530954E0
2.972085694E1,2.401313782E0,-2.063083649E-1,-7.740156651E0,8.106719188E0
2.974023560E1,4.761818886E0,-8.625354767E-1,-9.069544792E0,1.027986037E1
2.975958374E1,8.112220764E0,-1.631278992E0,-1.507017612E-1,8.275983802E0
2.977899292E1,9.565651894E0,-4.777509689E0,3.331032276E0,1.119919957E1
2.979837158E1,6.007033825E0,-6.232647896E0,-6.244537830E0,1.067354711E1
2.981771973E1,3.170286894E0,-4.604252815E0,-6.981101036E0,8.943468827E0
2.983709839E1,2.044733286E0,-2.210378647E0,-2.390373945E0,3.844554015E0
2.985644654E1,4.179153919E0,1.090479851E0,4.575570107E0,6.292083565E0
2.987582520E1,5.829792023E0,8.722944260E-1,1.549452186E0,6.094930243E0
2.989520386E1,6.851677895E0,1.328997612E0,3.506427407E-1,6.988181091E0
2.991455200E1,5.949887276E0,3.426487923E0,1.357216120E0,6.998858026E0
2.993393067E1,5.228580952E0,3.116843224E0,5.931609869E-1,6.115930870E0
2.995330933E1,3.336940050E0,1.148170471E0,-4.238437653E0,5.515235087E0
2.997265747E1,2.519748926E0,-4.335190773E0,-2.323323727E0,5.526377369E0
2.999203614E1,2.208944559E0,-5.066883087E0,-1.158235192E0,5.647499362E0
