"Time (s)","Linear Acceleration x (m/s^2)","Linear Acceleration y (m/s^2)","Linear Acceleration z (m/s^2)","Absolute acceleration (m/s^2)"
1.650553280E-1,1.031035900E0,-1.592973614E1,3.230159760E0,1.628660371E1
1.844034720E-1,1.238944292E0,-5.946015358E0,3.913802862E0,7.225505826E0
2.037821340E-1,6.992799640E-1,3.786808968E0,8.266025782E-1,3.938551313E0
2.231607960E-1,-7.678532600E-2,9.364874840E0,-1.664938927E0,9.512034398E0
2.425089410E-1,-7.694903612E-1,1.201456356E1,-3.239347458E0,1.246736640E1
2.618876030E-1,-7.106412649E-1,1.418270302E1,-3.609282970E0,1.465199643E1
2.812662650E-1,-9.148052335E-1,1.571275520E1,-3.847812891E0,1.620287656E1
3.006144100E-1,-1.569444656E0,1.649880219E1,-3.624445438E0,1.696497082E1
3.199930720E-1,-1.263299108E0,1.691317368E1,-3.152343750E0,1.725075765E1
3.393717340E-1,-1.411630511E-1,1.661100960E1,-2.471979141E0,1.679453029E1
3.587198780E-1,1.736415267E0,1.386087608E1,-1.170021772E0,1.401813022E1
3.780985410E-1,3.121957302E0,1.077742672E1,-2.300379276E-1,1.122285443E1
3.974466850E-1,3.409614563E0,8.406407356E0,-1.393177986E0,9.177913761E0
4.168253470E-1,3.179708958E0,6.770286560E0,-4.861687660E0,8.920949281E0
4.362040090E-1,2.572863340E0,6.358463287E0,-6.833201408E0,9.682061900E0
4.555826710E-1,2.016705513E0,7.062498093E0,-6.058524132E0,9.521118374E0
4.749613340E-1,1.921649933E0,7.905210495E0,-4.801899433E0,9.446868772E0
4.943399960E-1,2.096706867E0,8.853251457E0,-4.010367393E0,9.942800797E0
5.136881400E-1,2.502747536E0,9.568709373E0,-3.497794628E0,1.049087754E1
5.330668020E-1,2.811109543E0,9.967680931E0,-2.827783346E0,1.073561170E1
5.524454640E-1,3.053045988E0,1.019209480E1,-2.256843328E0,1.087626903E1
5.717936090E-1,3.218016863E0,1.007050991E1,-1.742944717E0,1.071488025E1
5.911722710E-1,3.129974127E0,9.347372055E0,-1.680223942E0,9.999662738E0
6.105204160E-1,2.884819984E0,8.873052597E0,-2.095994949E0,9.562763385E0
6.298990780E-1,2.756146431E0,8.429293633E0,-2.511997461E0,9.217345905E0
6.492777400E-1,2.723315239E0,7.995589256E0,-2.590357542E0,8.834921937E0
6.686258840E-1,4.023983955E0,1.576931953E0,-2.244899511E0,4.870188402E0
6.880045460E-1,1.785268974E1,-5.067105865E1,9.190168381E0,5.450443937E1
7.073832090E-1,-3.937705278E0,-1.042822113E2,3.237192631E-1,1.043570310E2
7.267618710E-1,-3.214302540E0,-2.476697922E1,-2.903170586E0,2.514285982E1
7.461405330E-1,-1.316239119E0,-7.437763214E0,-4.858198166E-1,7.568938363E0
7.655191950E-1,-2.100921631E0,-4.442100525E0,-1.143381596E-1,4.915201114E0
7.848673390E-1,-2.495714426E0,-5.159818649E0,7.403307915E0,9.362760654E0
8.042460020E-1,-3.233163834E0,-2.885179520E0,1.215559959E1,1.290489096E1
8.235941460E-1,-2.184921503E0,6.182136536E-1,4.809718132E0,5.318783564E0
8.429728080E-1,-1.544265747E0,3.200155258E0,-2.500116825E-1,3.562057862E0
8.623514700E-1,-1.438468575E0,5.333672523E0,-2.849052906E0,6.215654181E0
8.816996150E-1,-1.895069242E0,7.581569672E0,-4.457780838E0,8.996849233E0
9.010782770E-1,-2.461698055E0,9.430007935E0,-5.518158436E0,1.119978033E1
9.204569390E-1,-2.651503801E0,1.041371727E1,-5.666695595E0,1.214855624E1
9.398050840E-1,-2.483301163E0,1.061542225E1,-5.132094860E0,1.204957974E1
9.591837460E-1,-1.940843582E0,1.029636383E1,-4.173731804E0,1.127838726E1
9.785624080E-1,-1.245262623E0,9.838662148E0,-3.148540497E0,1.040496320E1
9.979105520E-1,-5.501950383E-1,9.549719810E0,-2.356219292E0,9.851478691E0
1.017319732E0,2.877069116E-1,9.468472481E0,-1.767633080E0,9.636351648E0
1.036667877E0,1.184753895E0,9.403546333E0,-7.665537596E-1,9.508834319E0
1.056046539E0,1.494165659E0,9.681207657E0,4.328495264E-1,9.805389917E0
1.075425201E0,2.023549318E0,9.513811111E0,1.675852656E0,9.869946091E0
1.094773345E0,3.229738951E0,7.083209038E0,1.727563262E0,7.974179506E0
1.114152007E0,5.411757469E0,-2.532434464E-1,2.254197836E0,5.867934818E0
1.133530669E0,9.174913406E0,-1.502966213E1,4.643523216E0,1.821076845E1
1.152878814E0,1.187849140E1,-3.732999039E1,4.443006039E0,3.942546186E1
1.172257476E0,6.142815113E0,-5.046220779E1,3.640160561E-1,5.083602168E1
1.191636138E0,-7.823926210E-1,-3.876379776E1,-5.127825737E0,3.910931797E1
1.210984283E0,-1.035026312E-1,-2.862278366E1,-2.422384977E0,2.872529210E1
1.230362945E0,-3.176059484E0,-2.002544212E1,3.486475945E0,2.057331283E1
1.249711089E0,-4.041593552E0,-9.877398491E0,8.465881348E0,1.362235759E1
1.269089752E0,-2.754583597E0,-7.051496506E-1,4.627962112E0,5.431666424E0
1.288468414E0,-1.824034333E0,6.082710266E0,-1.614427567E-2,6.350332753E0
1.307847076E0,-2.189001322E0,9.963041306E0,-3.190132380E0,1.068788396E1
1.327225738E0,-2.979342461E0,1.182400703E1,-6.211778641E0,1.368465629E1
1.346604400E0,-3.111482859E0,1.270233631E1,-7.140003681E0,1.490001094E1
1.365952544E0,-2.862785816E0,1.508530903E1,-7.702135086E0,1.717803761E1
1.385331207E0,-3.172076225E0,1.712171555E1,-6.907292366E0,1.873301627E1
1.404709869E0,-1.548106074E0,1.820368195E1,-3.708994389E0,1.864208433E1
1.424058013E0,2.021098137E0,1.574053192E1,5.821321011E-1,1.588043011E1
1.443436675E0,6.017758369E0,1.169915962E1,2.603399754E0,1.341124312E1
1.462784820E0,1.096202278E1,6.830949783E0,-1.631197929E-1,1.291721435E1
1.482163482E0,9.753447533E0,4.095974922E0,-4.084247589E0,1.133965730E1
1.501542144E0,6.271501541E0,5.230147362E0,-6.036930084E0,1.015532854E1
1.520890289E0,4.285608292E0,7.035127640E0,-5.513706207E0,9.912639178E0
1.540268951E0,3.430525541E0,8.382265091E0,-4.492465019E0,1.011005022E1
1.559647613E0,3.140954018E0,9.248592377E0,-3.764098883E0,1.046759254E1
1.579026275E0,3.056646824E0,9.553327560E0,-2.900735140E0,1.044142814E1
1.598404937E0,2.976832390E0,9.630213737E0,-2.335732698E0,1.034689301E1
1.617783599E0,2.914879322E0,9.458261490E0,-2.035761833E0,1.010443260E1
1.637131744E0,2.896474600E0,9.141153336E0,-2.150263071E0,9.827201061E0
1.656510406E0,3.015282154E0,8.697455406E0,-2.855051517E0,9.637892725E0
1.675858550E0,3.284912348E0,7.982735634E0,-3.952232361E0,9.493937959E0
1.695237212E0,3.465418100E0,7.334625244E0,-4.507276535E0,9.280161197E0
1.714615875E0,3.707238436E0,6.647115707E0,-4.053489685E0,8.623139954E0
1.733964019E0,5.376760006E0,3.951940536E-1,-2.538661957E0,5.959071323E0
1.753342681E0,1.870701599E1,-6.276552200E1,1.364753819E1,6.690081089E1
1.772721343E0,-1.361750221E1,-1.184892120E2,4.619750977E0,1.193585851E2
1.792069488E0,-2.870482683E0,-2.524998665E1,7.841190100E-1,2.542471906E1
1.811448150E0,-2.414080381E0,-3.777593613E0,2.101030827E0,4.950992640E0
1.830826812E0,-4.765580177E0,2.778588295E0,3.488897324E0,6.527151896E0
1.850174957E0,-3.899873257E0,1.543715477E0,6.127895355E0,7.425844758E0
1.869553619E0,-2.935229778E0,3.411836624E0,5.562663078E0,7.155377245E0
1.888932281E0,-2.442548990E0,7.076784134E0,9.417567253E-1,7.545450615E0
1.908341461E0,-2.003449440E0,8.509083748E0,-1.808466911E0,8.926862184E0
1.927689605E0,-1.804523945E0,9.631986618E0,-3.118756056E0,1.028387632E1
1.947037750E0,-1.792326808E0,1.055233288E1,-3.619143724E0,1.129877718E1
1.966416412E0,-1.670425415E0,1.074656200E1,-3.694403887E0,1.148597127E1
1.985795074E0,-1.448958516E0,1.062281227E1,-3.254785061E0,1.120434055E1
2.005143218E0,-9.357299805E-1,1.036181355E1,-2.656183243E0,1.073769435E1
2.024521880E0,-6.194565296E-1,1.048549271E1,-2.242522717E0,1.074049309E1
2.043900543E0,-2.584418952E-1,1.085867405E1,-1.792285919E0,1.100862767E1
2.063248687E0,8.025837690E-2,1.159886837E1,-1.362910986E0,1.167894324E1
2.082627349E0,4.834988117E-1,1.265221691E1,-5.086481571E-1,1.267166472E1
2.101975494E0,1.126667857E0,1.323518467E1,3.910291791E-1,1.328880723E1
2.121354156E0,2.139872313E0,1.232971859E1,7.734584808E-1,1.253791259E1
2.140763336E0,2.142454386E0,1.062730885E1,1.080406904E0,1.089481910E1
2.160111480E0,2.134350777E0,9.033014297E0,5.651707053E-1,9.298936416E0
2.179490142E0,3.393423080E0,6.723853111E0,-2.383099198E-1,7.535403936E0
2.198868804E0,6.209502697E0,-7.998104095E0,8.521490097E-1,1.016138528E1
2.218216949E0,7.952094078E0,-6.379720688E1,2.206467152E0,6.432874865E1
2.237595611E0,-8.103855133E0,-7.211115265E1,-3.603954077E0,7.265452009E1
2.256974273E0,3.101950884E-1,-3.116667557E1,-1.513155103E-1,3.116858648E1
2.276322418E0,4.593990147E-1,-2.032911110E1,3.110676050E0,2.057085587E1
2.295701080E0,-2.722631931E0,-1.644303703E1,4.330610275E0,1.722034776E1
2.315049224E0,-2.949583769E0,-1.229376888E1,5.651106358E0,1.384816958E1
2.334427886E0,-2.462902546E0,-6.597837448E0,4.991160393E0,8.631861329E0
2.353806548E0,-1.207112670E0,-1.829204559E-1,9.564135075E-1,1.550905441E0
2.373185211E0,-1.212472677E0,5.654199600E0,-2.619772911E0,6.348485900E0
2.392533355E0,-2.264321804E0,1.009584522E1,-4.900111198E0,1.144833323E1
2.411912017E0,-2.713011026E0,1.193035507E1,-6.137798309E0,1.368818356E1
2.431260162E0,-1.990926743E0,1.190651894E1,-6.465689659E0,1.369430996E1
2.450669341E0,-8.903821707E-1,1.162555599E1,-6.307621002E0,1.325641035E1
2.470048003E0,8.166968822E-2,1.302072334E1,-4.940789223E0,1.392685551E1
2.489396148E0,4.969333410E-1,1.572076893E1,-2.928469896E0,1.599892041E1
2.508774810E0,1.256528974E0,1.752148056E1,-3.794469833E-1,1.757057558E1
2.528122955E0,3.710114717E0,1.524089050E1,1.464831829E0,1.575421933E1
2.547501617E0,5.462523460E0,1.126211452E1,2.714753151E-2,1.251699337E1
2.566880279E0,5.169206142E0,8.588633537E0,-3.219725132E0,1.052862518E1
2.586228423E0,4.304703712E0,7.570747375E0,-5.228113174E0,1.015774863E1
2.605607086E0,3.515726089E0,7.720998764E0,-4.814936161E0,9.754884012E0
2.624985748E0,2.815323353E0,8.647325516E0,-3.801296234E0,9.856578373E0
2.644333892E0,2.514438391E0,1.013828087E1,-3.073575258E0,1.088825074E1
2.663712554E0,2.606684923E0,1.087214756E1,-2.509227037E0,1.145838641E1
2.683091216E0,2.885332346E0,1.035523319E1,-2.391356945E0,1.101247408E1
2.702439361E0,3.413177967E0,9.286824226E0,-2.955878258E0,1.032628221E1
2.721818023E0,3.581853867E0,8.762588501E0,-3.445471525E0,1.007392219E1
2.741196685E0,3.232799053E0,8.432380676E0,-3.670539618E0,9.748276498E0
2.760575347E0,2.974154234E0,7.838417053E0,-3.920680285E0,9.255166622E0
2.779954009E0,3.054138899E0,7.009982109E0,-3.900736332E0,8.583901066E0
2.799302154E0,3.415833712E0,5.746190071E0,-3.397389174E0,7.498591433E0
2.818680816E0,7.712052345E0,-1.072059155E1,-1.036913872E0,1.324696285E1
2.838059478E0,1.199810982E1,-1.149962387E2,1.105088520E1,1.161473703E2
2.857407623E0,-1.012625980E1,-7.216431427E1,-1.602069736E0,7.288892933E1
2.876786285E0,-9.266725183E-2,-1.307166100E1,2.836075306E0,1.337610674E1
2.896164947E0,-3.100499392E0,4.524946213E-1,7.063071251E0,7.726889630E0
2.915513091E0,-3.342091799E0,2.654994011E0,8.321455002E0,9.352282296E0
2.934891753E0,-1.596203208E0,5.262672424E0,4.758728981E0,7.272488380E0
2.954270416E0,-8.114229441E-1,7.307055473E0,8.240048885E-1,7.398003173E0
2.973618560E0,-8.279367685E-1,9.385039330E0,-1.388856411E0,9.523306392E0
2.992997222E0,-8.818987012E-1,1.072137260E1,-2.866009712E0,1.113281579E1
3.012375884E0,-9.048748612E-1,1.100558186E1,-3.758378029E0,1.166477758E1
3.031754546E0,-8.741573691E-1,1.152649117E1,-3.713464260E0,1.214141534E1
3.051133209E0,-9.254000187E-1,1.200518227E1,-3.687477589E0,1.259278593E1
3.070481353E0,-8.306599855E-1,1.238326836E1,-3.588579178E0,1.291949038E1
3.089860015E0,-6.897357702E-1,1.294885826E1,-3.381620169E0,1.340089626E1
3.109238677E0,-2.880118489E-1,1.312873936E1,-2.618471622E0,1.339041230E1
3.128586822E0,6.324039102E-1,1.259834766E1,-1.963134408E0,1.276605637E1
3.147965484E0,1.871492147E0,1.151684380E1,-1.426146150E0,1.175474656E1
3.167344146E0,2.724271297E0,1.050485420E1,-1.314966559E0,1.093173147E1
3.186692291E0,3.051398993E0,9.269843102E0,-1.706690907E0,9.907261014E0
3.206070953E0,3.167084694E0,7.950565338E0,-2.216193914E0,8.840442869E0
3.225419097E0,3.384279728E0,7.201664925E0,-2.064907789E0,8.220776797E0
3.244797759E0,3.540873528E0,5.880352974E0,-1.990375280E0,7.146882551E0
3.264176421E0,5.051077366E0,-5.516017914E0,-1.083021998E0,7.557299308E0
3.283524566E0,8.511442184E0,-3.369289398E1,-2.312040329E-2,3.475134943E1
3.302933746E0,1.295571208E0,-4.939791107E1,-3.734622478E0,4.955582234E1
3.322312408E0,-1.420654058E0,-3.455324554E1,4.810776114E-1,3.458578424E1
3.341660552E0,2.316110849E0,-3.201334381E1,5.357331276E0,3.254104408E1
3.361039214E0,-1.750125885E-1,-2.696790504E1,6.698865891E0,2.778800706E1
3.380417877E0,-3.028647423E0,-2.029132080E1,5.555371761E0,2.125494202E1
3.399766021E0,-3.470139742E0,-1.458949947E1,1.775788307E0,1.510128434E1
3.419144683E0,-2.591184855E0,-6.776976585E0,-5.981620550E-1,7.280072007E0
3.438492828E0,-1.795228243E0,8.292675018E-1,-2.040451765E0,2.841473639E0
3.457871490E0,-1.472569346E0,6.545898438E0,-3.074605942E0,7.380409781E0
3.477250152E0,-1.545644999E0,1.017805290E1,-3.698023081E0,1.093879125E1
3.496598296E0,-1.219130635E0,1.146270466E1,-3.956380844E0,1.218740444E1
3.515976959E0,-2.945302129E-1,1.153083134E1,-3.535040379E0,1.206413403E1
3.535355621E0,3.558023572E-1,1.252123642E1,-3.955052853E0,1.313584409E1
3.554703765E0,1.944527626E-1,1.509723854E1,-4.777226448E0,1.583623427E1
3.574082427E0,-4.222990274E-1,1.723752403E1,-3.860689640E0,1.766962070E1
3.593491607E0,1.160068274E0,1.756052017E1,-3.036856651E-2,1.759882239E1
3.612839752E0,3.895929337E0,1.364757347E1,3.154095650E0,1.453901119E1
3.632218414E0,5.099289894E0,1.000845528E1,7.997109890E-1,1.126105999E1
3.651566558E0,5.024700642E0,7.695568085E0,-3.623558760E0,9.879249099E0
3.670945220E0,4.589155197E0,7.210731506E0,-5.005824566E0,9.905214478E0
3.690323882E0,3.931343794E0,7.721061707E0,-4.130924225E0,9.598687038E0
3.709672027E0,3.748228073E0,8.341338158E0,-3.220097542E0,9.695161893E0
3.729050689E0,3.941783190E0,9.651022911E0,-2.234090090E0,1.066166293E1
3.748429351E0,3.950012684E0,1.048104286E1,-1.477136135E0,1.129764537E1
3.767777496E0,3.597054005E0,1.076337051E1,-1.277976513E0,1.142025246E1
3.787156158E0,3.337205172E0,9.782632828E0,-2.063624620E0,1.054017979E1
3.806534820E0,3.117355824E0,8.965536118E0,-3.367349863E0,1.007163295E1
3.825882964E0,2.869334698E0,8.329897881E0,-4.262284756E0,9.787101289E0
3.845261627E0,2.872300863E0,7.659851074E0,-4.412782669E0,9.294949253E0
3.864609771E0,3.051516533E0,6.907846451E0,-4.022104263E0,8.556133382E0
3.884018951E0,3.990861893E0,5.389785767E0,-2.660790920E0,7.215024434E0
3.903397613E0,1.214512062E1,-2.750778961E1,3.360818863E0,3.025685951E1
3.922745757E0,6.218087673E-1,-1.263466568E2,6.460114002E0,1.265132302E2
3.942124419E0,-7.161506653E0,-3.939017105E1,7.408639789E-1,4.004274756E1
3.961503082E0,-1.816495180E0,-5.975208282E0,3.359244347E0,7.091353280E0
3.980851226E0,-2.234810829E0,1.792813301E0,6.145107269E0,6.780184535E0
4.000229888E0,-3.210417926E-1,1.262638092E0,1.026124954E1,1.034362436E1
4.019608550E0,3.935672641E-1,3.849830627E0,7.448556900E0,8.393872226E0
4.038956695E0,6.794474125E-1,5.418998718E0,1.814097643E0,5.754836762E0
4.058335357E0,4.856303334E-1,6.843003273E0,-6.708909273E-1,6.892940247E0
4.077683502E0,1.282059252E-1,8.643058777E0,-1.877261639E0,8.845508071E0
4.097062164E0,-1.087711602E-1,1.041272449E1,-2.609906197E0,1.073537484E1
4.116440826E0,-1.647996157E-2,1.155110073E1,-2.755662680E0,1.187526322E1
4.135788970E0,1.976922601E-1,1.195313740E1,-2.068037987E0,1.213232694E1
4.155167632E0,2.303479761E-1,1.214882374E1,-2.212950230E0,1.235087556E1
4.174576812E0,2.765211761E-1,1.234885502E1,-2.445396900E0,1.259168973E1
4.193924957E0,4.557160139E-1,1.225789547E1,-1.831704736E0,1.240237157E1
4.213303619E0,9.737069607E-1,1.173009491E1,-1.038039207E0,1.181612277E1
4.232682281E0,1.750355601E0,1.093127823E1,-4.274933934E-1,1.107877877E1
4.252030425E0,2.429160357E0,1.003084850E1,-3.281570077E-1,1.032600740E1
4.271409087E0,2.367336750E0,8.988837242E0,-8.409463167E-1,9.333309647E0
4.290757232E0,2.241681576E0,8.332043648E0,-1.548062205E0,8.766104279E0
4.310135894E0,2.244989157E0,7.197377205E0,-2.407406569E0,7.914405937E0
4.329514556E0,3.203337431E0,-3.805392265E0,-3.066295624E0,5.843333795E0
4.348862701E0,5.409634113E0,-4.444944763E1,-6.201964617E-1,4.478171702E1
4.368241363E0,-5.470312595E0,-7.929969025E1,3.290988207E0,7.955624298E1
4.387620025E0,-3.780864954E0,-3.873577881E1,3.175920248E0,3.904922495E1
4.406968169E0,-5.477805138E0,-2.483441925E1,3.918845177E0,2.573153855E1
4.426346832E0,-5.931557655E0,-2.056514931E1,1.497324347E0,2.145578529E1
4.445725494E0,-2.797075748E0,-1.244853115E1,2.729097605E-1,1.276181963E1
4.465104156E0,-3.637286425E-1,-2.760437965E0,8.478035927E-1,2.910513222E0
4.484513336E0,-1.341882199E-1,5.332242012E0,-2.027235031E-1,5.337781203E0
4.503830962E0,-1.015442491E0,1.024079418E1,-2.263259411E0,1.053695080E1
4.523209625E0,-1.464194298E0,1.172583199E1,-3.078479528E0,1.221130775E1
4.542588287E0,-5.833827257E-1,1.290177727E1,-3.130302429E0,1.328890460E1
4.561936431E0,9.141670167E-2,1.645204163E1,-4.779306412E0,1.713241957E1
4.581315093E0,-5.043356419E-1,1.973420334E1,-4.710315704E0,2.029483210E1
4.600693755E0,3.534909487E-1,2.094129944E1,-3.460866928E0,2.122829663E1
4.620041900E0,2.088032246E0,1.833108330E1,-3.474652767E-2,1.844965314E1
4.639420562E0,4.821331978E0,1.250288868E1,3.005787849E0,1.373325264E1
4.658799224E0,5.585525513E0,8.551872253E0,3.136969566E0,1.068518565E1
4.678147369E0,4.117283344E0,6.816766739E0,-1.059427500E0,8.033848240E0
4.697526031E0,2.639489412E0,7.080885887E0,-4.924180031E0,9.019611870E0
4.716874175E0,1.685355186E0,8.058098793E0,-5.783150673E0,1.006072612E1
4.736283355E0,1.488770962E0,8.938254356E0,-4.627434731E0,1.017457528E1
4.755662017E0,1.681533813E0,9.598233223E0,-3.045618534E0,1.020928152E1
4.775010162E0,2.335113764E0,1.012655735E1,-2.172855854E0,1.061702513E1
4.794388824E0,3.048763275E0,1.033795929E1,-1.492787838E0,1.088102823E1
4.813767486E0,3.537562847E0,1.013462830E1,-7.906724215E-1,1.076337328E1
4.833115630E0,3.690321922E0,9.765046120E0,-3.898184299E-1,1.044636588E1
4.852494293E0,3.682038307E0,9.197427750E0,-4.191437960E-1,9.915934894E0
4.871872955E0,3.570800781E0,8.490997314E0,-1.470024824E0,9.327841476E0
4.891221099E0,3.390198469E0,7.738075256E0,-2.482119799E0,8.805235546E0
4.910599761E0,3.455389023E0,7.058553696E0,-1.918619752E0,8.089746308E0
4.929947906E0,4.586049557E0,3.042647362E0,-1.422883749E0,5.684553779E0
4.949357086E0,1.913283348E1,-5.257310104E1,8.012449265E0,5.651721520E1
4.968705230E0,-4.133783817E0,-1.293450012E2,1.345916629E0,1.294180397E2
4.988053375E0,-3.293908596E0,-3.079719162E1,-1.038516164E-1,3.097301456E1
5.007432037E0,-1.579519510E0,-6.826616287E0,4.077269554E0,8.106892058E0
5.026841216E0,-3.576016426E0,1.093168259E-1,5.566152573E0,6.616789109E0
5.046189361E0,-4.102251053E0,2.938318253E0,4.028326035E0,6.456747517E0
5.065568023E0,-3.734364033E0,6.581072807E0,3.367002964E0,8.282071177E0
5.084946685E0,-3.856698513E0,9.526047707E0,1.089314461E0,1.033471404E1
5.104294830E0,-3.775941372E0,1.136875534E1,-1.325263739E0,1.205249581E1
5.123673492E0,-3.226125240E0,1.223216057E1,-2.536628246E0,1.290225248E1
5.143021636E0,-2.465177059E0,1.189886665E1,-2.908460379E0,1.249476960E1
5.162400298E0,-1.631646991E0,1.107320118E1,-2.812993050E0,1.154083992E1
5.181778961E0,-9.936527610E-1,1.053603077E1,-1.812777162E0,1.073692001E1
5.201127105E0,-5.450093746E-1,1.039511204E1,-7.778255939E-1,1.043840994E1
5.220505767E0,-3.455430865E-1,1.038734436E1,-9.145128727E-2,1.039349249E1
5.239884429E0,-2.558210194E-1,1.050596142E1,4.379974902E-1,1.051819906E1
5.259232574E0,3.727342188E-2,1.090118694E1,1.147877932E0,1.096151859E1
5.278611236E0,4.262720346E-1,1.146818638E1,1.824859858E0,1.162028916E1
5.297989898E0,8.928197622E-1,1.154420853E1,2.090557337E0,1.176589595E1
5.317368560E0,1.145205259E0,1.108492374E1,1.876368999E0,1.130078715E1
5.336747222E0,1.322730064E0,1.005705070E1,1.345488906E0,1.023250820E1
5.356095367E0,1.628179312E0,8.683543205E0,5.418740511E-1,8.851469819E0
5.375474029E0,2.456312895E0,6.688840866E0,-1.010588050E0,7.196898872E0
5.394852691E0,3.684029818E0,-1.837385178E0,-1.918915391E0,4.542058593E0
5.414200836E0,8.668915749E0,-3.385737610E1,4.256660119E-2,3.494958982E1
5.433579498E0,1.067496657E0,-5.004934692E1,-3.659371614E0,5.019429925E1
5.452958160E0,-4.864538908E-1,-2.980428314E1,-1.604573488E0,2.985140846E1
5.472306304E0,4.354376793E0,-2.867533493E1,1.562160373E0,2.904609743E1
5.491684966E0,2.701021671E0,-2.857606506E1,1.022158146E0,2.872162634E1
5.511033111E0,5.968366861E-1,-2.661071396E1,-5.567340255E-1,2.662322791E1
5.530411773E0,1.268157363E0,-2.139514542E1,-9.304010868E-1,2.145288131E1
5.549790435E0,1.276563644E0,-1.116209412E1,-1.204632819E-1,1.123550049E1
5.569138580E0,1.005548686E-1,-3.366231918E-1,1.025894582E-1,3.659932401E-1
5.588517242E0,-1.084130764E0,6.987685204E0,-9.896516204E-1,7.140202682E0
5.607926421E0,-1.763941526E0,1.079018974E1,-1.872379541E0,1.109258714E1
5.627274566E0,-1.834235191E0,1.186319733E1,-2.926903248E0,1.235583393E1
5.646653228E0,-1.077519536E0,1.239356995E1,-3.602276325E0,1.295137132E1
5.666031890E0,-2.909650803E-1,1.458874321E1,-3.747351170E0,1.506514951E1
5.685380035E0,-5.683985949E-1,1.708063889E1,-3.922397137E0,1.753443757E1
5.704758697E0,-1.117360830E0,1.987979317E1,-2.334898472E0,2.004760391E1
5.724106841E0,2.623287439E-1,1.953488159E1,-7.823582888E-1,1.955230165E1
5.743485503E0,3.168160439E0,1.460149193E1,1.515116692E-1,1.494201335E1
5.762864166E0,3.984560013E0,1.062725925E1,-1.501851320E0,1.144862067E1
5.782212310E0,3.153910160E0,9.038228035E0,-4.487174988E0,1.057220198E1
5.801590972E0,2.260161161E0,8.834708214E0,-5.517352104E0,1.065840382E1
5.820969634E0,1.881304502E0,8.798748970E0,-4.677043915E0,1.014061289E1
5.840317779E0,1.850762129E0,8.709091187E0,-3.250263214E0,9.478280472E0
5.859696441E0,1.963286877E0,8.617364883E0,-2.072870493E0,9.078009968E0
5.879075103E0,2.250524521E0,8.689337730E0,-1.194820285E0,9.055222047E0
5.898453765E0,2.703983545E0,9.373302460E0,-1.078451276E0,9.814957115E0
5.917832427E0,3.019940376E0,9.632375717E0,-1.440315604E0,1.019692164E1
5.937180572E0,3.079450369E0,9.317557335E0,-1.587117672E0,9.940766156E0
5.956559234E0,2.998502970E0,9.108712196E0,-1.693959355E0,9.738026301E0
5.975937896E0,2.788514853E0,8.779448509E0,-2.157252073E0,9.460880917E0
5.995286041E0,2.716965675E0,8.471196175E0,-1.965908766E0,9.110865183E0
6.014664703E0,2.674805164E0,8.122770309E0,-1.018818498E0,8.612315095E0
6.034043365E0,2.833636522E0,7.214818001E0,-8.008347750E-1,7.792588213E0
6.053391509E0,1.223231983E1,-2.828094482E1,5.448922157E0,3.129108885E1
6.072770171E0,7.704743743E-1,-1.355673218E2,6.873799324E0,1.357436609E2
6.092148834E0,-7.441845894E0,-4.283686066E1,-3.897876501E0,4.365284805E1
6.111496978E0,-6.947748065E-1,-7.589008331E0,1.639479280E0,7.795104348E0
6.130875640E0,-1.964696288E0,1.519146919E0,3.162504435E0,4.021103476E0
6.150223785E0,-2.864730120E0,5.938474655E0,2.855219126E0,7.185014693E0
6.169632964E0,-2.948874474E0,8.095173836E0,5.671825409E0,1.031490686E1
6.189011627E0,-2.761642694E0,8.991821289E0,3.637482166E0,1.008517709E1
6.208359771E0,-2.478783131E0,1.010856342E1,5.079146624E-1,1.042043174E1
6.227738433E0,-2.202167511E0,1.087432003E1,-1.646592379E0,1.121657899E1
6.247117095E0,-1.907330632E0,1.115057087E1,-2.615424395E0,1.161092527E1
6.266465240E0,-1.398208261E0,1.094521618E1,-2.474143744E0,1.130814445E1
6.285843902E0,-8.814361095E-1,1.053990746E1,-1.916324854E0,1.074890133E1
6.305222564E0,-5.846207142E-1,1.028790665E1,-1.432788134E0,1.040363813E1
6.324570709E0,-4.668324292E-1,1.017589855E1,-1.238403320E0,1.026160254E1
6.343949371E0,-4.929133654E-1,1.014762402E1,-1.171938181E0,1.022695829E1
6.363297515E0,-3.909071386E-1,9.992233276E0,-9.790955782E-1,1.004769438E1
6.382676177E0,-2.251338065E-1,9.711622238E0,-7.283887267E-1,9.741501007E0
6.402054839E0,-1.701280475E-3,9.479977608E0,-5.172618032E-1,9.494079108E0
6.421402984E0,3.072681427E-1,9.180262566E0,-3.853390813E-1,9.193482512E0
6.440781646E0,7.424628139E-1,8.493731499E0,-2.038424164E-1,8.528556591E0
6.460190826E0,1.675992608E0,5.498137474E0,3.120635748E-1,5.756374778E0
6.479538970E0,3.976855278E0,-2.396562576E0,1.506411672E0,4.881410268E0
6.498917632E0,8.615106583E0,-1.845514297E1,3.065632343E0,2.059637020E1
6.518296294E0,1.119804573E1,-3.874407578E1,2.308569193E0,4.039590484E1
6.537644439E0,7.570924282E0,-3.953609848E1,-7.752635479E-1,4.026193005E1
6.557023101E0,5.431899548E0,-2.970509338E1,-2.234376192E0,3.028020050E1
6.576371246E0,3.648290038E-1,-2.567612839E1,-2.588316202E0,2.580883666E1
6.595749908E0,-2.278634071E0,-2.300796700E1,-1.799957871E0,2.319048440E1
6.615128570E0,-1.452814102E0,-1.844795799E1,3.460804820E-1,1.850831150E1
6.634476714E0,-6.276271939E-1,-9.086390495E0,3.010542870E0,9.592693912E0
6.653855377E0,-8.346083164E-1,3.706312180E-1,2.691600800E0,2.842297206E0
6.673234039E0,-1.501352668E0,7.296030998E0,1.144200325E0,7.536267149E0
6.692582183E0,-2.144037247E0,1.095090199E1,-2.069543600E-1,1.116073385E1
6.711960845E0,-2.315427303E0,1.228374386E1,-1.631982327E0,1.260614664E1
6.731339507E0,-1.650707960E0,1.360502434E1,-1.956990123E0,1.384381936E1
6.750718169E0,-1.278316617E0,1.570982456E1,-2.448229551E0,1.595075262E1
6.770096832E0,-1.780501604E0,1.729973602E1,-2.187299252E0,1.752812969E1
6.789444976E0,-1.540054917E0,1.814430237E1,-7.596225739E-1,1.822538077E1
6.808823638E0,-1.907549500E-1,1.717771530E1,7.453419566E-1,1.719493603E1
6.828202300E0,2.303939342E0,1.312977695E1,1.982984543E0,1.347706968E1
6.847550445E0,3.398432016E0,1.006710720E1,2.084763765E0,1.082784501E1
6.866929107E0,3.385496140E0,8.702832222E0,2.815175056E-1,9.342383256E0
6.886307769E0,3.081412077E0,8.019856453E0,-2.042773247E0,8.830975057E0
6.905655914E0,2.954360962E0,7.753491402E0,-4.143975735E0,9.274557267E0
6.925034576E0,2.968360901E0,7.828194618E0,-4.628856182E0,9.566509655E0
6.944413238E0,3.020413876E0,8.780694008E0,-3.372121334E0,9.879002456E0
6.963761382E0,3.089833736E0,1.035491276E1,-2.184321404E0,1.102463381E1
6.983140044E0,3.187239408E0,1.102125645E1,-9.660339355E-1,1.151346213E1
7.002488189E0,3.242447138E0,1.098473358E1,-2.233873606E-1,1.145546757E1
7.021897369E0,3.153696775E0,9.796709061E0,-9.022388458E-1,1.033128001E1
7.041276031E0,3.013880253E0,8.767285347E0,-2.401691675E0,9.576893517E0
7.060624175E0,2.893935442E0,7.903183937E0,-3.147569656E0,8.985676014E0
7.080002837E0,2.928435087E0,7.182438850E0,-2.901426315E0,8.281390859E0
7.099381500E0,4.247021675E0,3.578640938E0,-2.701980591E0,6.176128495E0
7.118729644E0,1.879990768E1,-5.222558975E1,4.239973068E0,5.566799912E1
7.138108306E0,-2.696289122E-2,-1.229966583E2,-4.475921631E0,1.230780751E2
7.157486968E0,-6.002406478E-1,-2.760877037E1,-3.112082720E0,2.779009804E1
7.176835113E0,7.568788528E-2,-4.351729393E0,2.069425583E0,4.819315264E0
7.196213775E0,-2.157850266E0,2.656665802E0,4.126277924E0,5.361003680E0
7.215561919E0,-3.308218479E0,3.183474541E0,3.951245070E0,6.057322615E0
7.234940582E0,-3.642600775E0,4.304843903E0,5.197482109E0,7.669031341E0
7.254319244E0,-3.539417744E0,6.702204704E0,4.924878120E0,9.038885460E0
7.273667388E0,-3.233500481E0,8.895337105E0,2.158534765E0,9.707822614E0
7.293046050E0,-3.052505493E0,1.057002354E1,3.989577293E-3,1.100196361E1
7.312455230E0,-2.827367544E0,1.139585686E1,-1.003439784E0,1.178416107E1
7.331803375E0,-2.418497562E0,1.142990208E1,-1.434415936E0,1.177069841E1
7.351182037E0,-1.969303966E0,1.103270912E1,-1.319441795E0,1.128449181E1
7.370560699E0,-1.617240310E0,1.062836170E1,-1.055188179E0,1.080235904E1
7.389908843E0,-1.425489426E0,1.039967537E1,-9.065371752E-1,1.053598963E1
7.409287505E0,-1.192806005E0,1.022856808E1,-6.686332226E-1,1.031956692E1
7.428635650E0,-9.208298922E-1,9.571577072E0,-6.229703426E-1,9.635927946E0
7.448014312E0,-7.449645996E-1,9.149688721E0,-8.161919117E-1,9.216178448E0
7.467392974E0,-6.552430391E-1,8.927082062E0,-1.287945867E0,9.043281602E0
7.486741119E0,-5.173931122E-1,8.332439423E0,-1.772975683E0,8.534675456E0
7.506119781E0,2.573302984E-1,5.708359718E0,-1.331208110E0,5.867171771E0
7.525528961E0,2.263058186E0,-8.561382294E-1,-3.558287621E-1,2.445612219E0
7.544846587E0,5.142818928E0,-1.436101532E1,1.442788839E0,1.532217306E1
7.564225250E0,7.137194633E0,-3.441501617E1,4.153148651E0,3.539182857E1
7.583603912E0,5.575395584E0,-3.768533325E1,8.352525830E-1,3.810468508E1
7.602982574E0,6.336737633E0,-2.950527000E1,-2.742120266E0,3.030238316E1
7.622361236E0,5.885384083E0,-3.081863785E1,-2.462015629E0,3.147201464E1
7.641709380E0,4.456273556E0,-2.564341354E1,4.570690989E-1,2.603174878E1
7.661088043E0,2.816030025E0,-1.680611801E1,3.218705416E0,1.734173268E1
7.680466705E0,9.161160588E-1,-6.791775703E0,4.428664207E0,8.159690711E0
7.699814849E0,-5.097041130E-1,2.337302208E0,3.105463982E0,3.920036535E0
7.719193511E0,-1.278998494E0,8.251933098E0,4.470853209E-1,8.362423230E0
7.738572173E0,-2.025271416E0,1.116703987E1,-1.842498779E0,1.149779568E1
7.757950836E0,-2.897950888E0,1.272410011E1,-3.805851221E0,1.359357740E1
7.777298980E0,-2.890597343E0,1.386686039E1,-4.684077740E0,1.491931481E1
7.796677642E0,-2.171982288E0,1.502617645E1,-4.994088173E0,1.598262815E1
7.816025787E0,-1.415942192E0,1.536447144E1,-3.768889189E0,1.588321128E1
7.835404449E0,-3.151961565E-1,1.520607090E1,-1.819947004E0,1.531783757E1
7.854752593E0,1.562390924E0,1.385474682E1,1.047857523E0,1.398188400E1
7.874131255E0,3.840547562E0,1.146199036E1,2.844119072E0,1.241837517E1
7.893540435E0,4.812555790E0,9.777112961E0,1.712520003E0,1.103110855E1
7.912888580E0,4.707671165E0,8.716271400E0,-6.151283979E-1,9.925418776E0
7.932267242E0,4.836979866E0,8.132098198E0,-2.524539471E0,9.792890016E0
7.951645904E0,5.199801445E0,7.591767311E0,-4.437567234E0,1.021591254E1
7.970994048E0,4.518785477E0,8.314089775E0,-5.007824898E0,1.070615810E1
7.990372711E0,3.705932856E0,9.799315453E0,-3.675567150E0,1.110271658E1
8.009720855E0,3.425177574E0,1.007379818E1,-2.172023296E0,1.085960112E1
8.029099517E0,3.261730194E0,9.586525917E0,-1.257295609E0,1.020397742E1
8.048478179E0,3.034246683E0,9.092151642E0,-1.185377359E0,9.658105088E0
8.067826324E0,2.790112019E0,8.901998520E0,-1.343826413E0,9.425294274E0
8.087204986E0,2.666157246E0,8.627194405E0,-1.589328527E0,9.168579111E0
8.106583648E0,2.854262590E0,8.184102058E0,-1.710087419E0,8.834633010E0
8.125931793E0,3.035442114E0,7.971942902E0,-1.305489063E0,8.629605098E0
8.145310455E0,3.277571678E0,7.288096428E0,-1.350399613E0,8.104468197E0
8.164689117E0,1.181205082E1,-2.719229889E1,6.319701672E0,3.031310431E1
8.184067779E0,-4.937391281E0,-1.258177338E2,6.751261234E0,1.260954380E2
8.203446441E0,-8.262577057E0,-4.230269623E1,-3.453851342E-1,4.310345205E1
8.222794586E0,-4.571905136E-1,-9.814442635E0,4.184405804E-1,9.833992064E0
8.242173248E0,-2.533173084E0,-1.273147583E0,1.484403133E0,3.200206760E0
8.261551910E0,-4.053375244E0,1.234109879E0,1.122790456E0,4.383324819E0
8.280900054E0,-4.422979355E0,2.439074516E0,4.563891411E0,6.807417695E0
8.300278716E0,-4.116058350E0,4.760154724E0,5.913262367E0,8.635258025E0
8.319657378E0,-2.827630758E0,6.535315514E0,2.900306940E0,7.688798665E0
8.339005523E0,-1.800623536E0,8.331209183E0,-1.915900111E-1,8.525725676E0
8.358384185E0,-1.370269775E0,9.880346298E0,-2.152083397E0,1.020442772E1
8.377762847E0,-1.013892651E0,1.081045628E1,-2.879613638E0,1.123325945E1
8.397110992E0,-5.634788871E-1,1.095860577E1,-2.801636696E0,1.132509236E1
8.416489654E0,-2.997561693E-1,1.065837669E1,-2.119507790E0,1.087120788E1
8.435837798E0,3.938463330E-2,1.043272972E1,-1.048030019E0,1.048531199E1
8.455246978E0,2.746944726E-1,1.052259922E1,-3.763434887E-1,1.053290966E1
8.474625640E0,4.371469617E-1,1.077283764E1,9.541806579E-2,1.078212562E1
8.493973785E0,7.120100260E-1,1.130611324E1,6.632200480E-1,1.134790799E1
8.513352447E0,1.037244916E0,1.215372944E1,1.298261523E0,1.226680477E1
8.532731109E0,1.527231574E0,1.221447372E1,1.311689973E0,1.237927038E1
8.552079253E0,2.123894215E0,1.143715763E1,9.179993272E-1,1.166885702E1
8.571457916E0,2.598174095E0,9.713356018E0,4.638907313E-1,1.006553468E1
8.590836578E0,3.570378304E0,6.979958534E0,-5.875536203E-1,7.862101604E0
8.610184722E0,5.542160988E0,-3.775758743E-1,-9.666656256E-1,5.638488662E0
8.629563384E0,1.376176262E1,-4.110518265E1,6.049319267E0,4.376775542E1
8.648911529E0,1.621144295E0,-9.320288086E1,1.918660402E0,9.323672220E1
8.668290191E0,-2.927335501E0,-4.229243088E1,-1.287109494E0,4.241315425E1
8.687668853E0,-1.595731974E0,-1.935066795E1,1.613969207E0,1.948331613E1
8.707016998E0,-5.802226067E0,-1.711762047E1,2.343558311E0,1.822555962E1
8.726395660E0,-5.199202538E0,-1.305955887E1,3.513323545E0,1.448886563E1
8.745804839E0,-3.178508997E0,-3.780908585E0,4.566822529E0,6.727113584E0
8.765152984E0,-1.590527415E0,4.480815887E0,2.306181192E0,5.284501885E0
8.784531646E0,-1.920121908E0,9.934943199E0,-1.599973559E0,1.024450486E1
8.803910308E0,-2.606838465E0,1.240012264E1,-3.903610229E0,1.325883936E1
8.823258453E0,-1.954056740E0,1.218046474E1,-4.342285633E0,1.307813074E1
8.842637115E0,-7.556163073E-1,1.244504261E1,-3.842339277E0,1.304659391E1
8.861985259E0,-5.558073521E-2,1.635964966E1,-3.670664072E0,1.676648445E1
8.881363921E0,-4.330170751E-1,2.111131477E1,-1.556928754E0,2.117307588E1
8.900742584E0,2.005523443E0,2.240864182E1,3.173068464E-1,2.250044524E1
8.920090728E0,5.214180946E0,1.670359802E1,1.041554928E0,1.752948107E1
8.939469390E0,6.294984341E0,1.081645584E1,1.488919020E0,1.260315138E1
8.958848052E0,6.002342224E0,7.154808044E0,-1.078257561E0,9.401171719E0
8.978196197E0,4.522520065E0,5.637678146E0,-4.146982193E0,8.332710479E0
8.997574859E0,2.846714735E0,6.086567879E0,-4.809028149E0,8.262980398E0
9.016988567E0,2.119746447E0,7.253149986E0,-4.079506397E0,8.587425817E0
9.036367229E0,1.895178795E0,8.241606712E0,-3.204842329E0,9.043605377E0
9.055745891E0,1.902608156E0,9.179848671E0,-2.262432575E0,9.644072821E0
9.075094036E0,2.045589209E0,1.008946037E1,-1.142637134E0,1.035795663E1
9.094472698E0,2.411004782E0,1.030179691E1,2.052314281E-1,1.058215874E1
9.113851360E0,2.877925396E0,1.009119987E1,1.208010197E0,1.056286221E1
9.133199505E0,3.095159054E0,9.637324333E0,1.031389594E0,1.017456605E1
9.152578167E0,2.926574945E0,9.056377411E0,-3.623728752E-1,9.524396402E0
9.171956829E0,2.767677069E0,8.502990723E0,-1.796300888E0,9.120722804E0
9.191304973E0,2.785172224E0,8.018904686E0,-2.830397129E0,8.948249247E0
9.210683635E0,3.157014132E0,7.134493828E0,-3.323925495E0,8.480343218E0
9.230031780E0,9.833750725E0,-1.421153164E1,-2.100855112E-1,1.728335676E1
9.249410442E0,1.518235493E1,-1.165222168E2,5.055373669E0,1.176158480E2
9.268789104E0,-9.474770546E0,-6.724267578E1,-1.878966689E0,6.793290248E1
9.288137249E0,3.721899688E-1,-1.158750248E1,1.755023599E0,1.172556382E1
9.307515911E0,-7.797031403E-1,-1.731321335E0,5.887758732E0,6.186365123E0
9.326925090E0,-2.319913626E0,3.615236282E-1,5.741159916E0,6.202710355E0
9.346273235E0,-2.261969566E0,2.377982140E0,8.304243088E0,8.929264171E0
9.365651897E0,-1.528231025E0,4.972046852E0,5.301593304E0,7.427222329E0
9.385030559E0,-1.350754499E0,7.164096832E0,1.847840905E0,7.520860134E0
9.404378704E0,-1.843967438E0,9.719003677E0,-3.154730201E-1,9.897412370E0
9.423757366E0,-2.520961046E0,1.148766232E1,-1.607150793E0,1.187032282E1
9.443105510E0,-2.747318745E0,1.195532799E1,-2.334862947E0,1.248716191E1
9.462484173E0,-2.546827555E0,1.174798489E1,-2.242231369E0,1.222820841E1
9.481862835E0,-2.042709112E0,1.115911007E1,-1.632693291E0,1.146141725E1
9.501210979E0,-1.519959211E0,1.067115116E1,-8.084989190E-1,1.080913566E1
9.520589641E0,-1.101335764E0,1.040709496E1,-3.731198311E-1,1.047185677E1
9.539968303E0,-7.889517546E-1,1.046972084E1,-8.653783798E-2,1.049976134E1
9.559316448E0,-3.496352434E-1,1.071727180E1,5.245715976E-1,1.073579690E1
9.578695110E0,2.287209630E-1,1.092777443E1,1.240514517E0,1.100033834E1
9.598073772E0,6.739175320E-1,1.064548206E1,1.664799094E0,1.079592558E1
9.617452434E0,1.013100505E0,9.988708496E0,1.380372167E0,1.013440168E1
9.636831096E0,1.511794686E0,8.878648758E0,4.607236683E-1,9.018214526E0
9.656179241E0,2.128379107E0,7.107871056E0,-3.507907689E-1,7.427979720E0
9.675557903E0,4.929980755E0,-8.631071091E0,1.143789768E0,1.000541621E1
9.694936565E0,1.101251411E1,-6.403305054E1,5.944694996E0,6.524451262E1
9.714284710E0,5.346408486E-1,-6.397039795E1,2.792076766E-2,6.397263817E1
9.733663372E0,2.906242371E0,-2.424051476E1,-2.547357976E-1,2.441543960E1
9.753042034E0,1.376432657E0,-2.137287140E1,3.167716265E-1,2.141948979E1
9.772390178E0,-2.786834836E-1,-2.233465576E1,2.312306166E0,2.245576256E1
9.791768840E0,-4.117919505E-2,-1.549373627E1,3.646141529E0,1.591703199E1
9.811147503E0,-1.786519885E-1,-6.579102516E0,3.712506533E0,7.556402001E0
9.830495647E0,-6.401013136E-1,2.473289490E0,9.482723475E-1,2.725089180E0
9.849874309E0,-2.021786213E0,9.015253067E0,-2.294632435E0,9.519860575E0
9.869222454E0,-3.715975285E0,1.231461525E1,-4.520940781E0,1.363440965E1
9.888631633E0,-4.183560848E0,1.322771645E1,-5.800811768E0,1.503742268E1
9.908010296E0,-2.674883366E0,1.434996605E1,-5.442377090E0,1.557870325E1
9.927358440E0,-1.581266522E0,1.674643326E1,-4.769667625E0,1.748408305E1
9.946737102E0,-9.443501234E-1,1.956958389E1,-2.020495892E0,1.969626397E1
9.966115764E0,1.269957662E0,2.009061432E1,3.087559938E-1,2.013307990E1
9.985463909E0,4.729263306E0,1.486529446E1,1.343092918E0,1.565716479E1
1.000484257E1,6.330667496E0,1.028481007E1,-9.143602848E-2,1.207737677E1
1.002422123E1,6.072789192E0,7.672304153E0,-3.179496288E0,1.028845062E1
1.004356938E1,5.339732170E0,6.615316391E0,-4.525229931E0,9.630828445E0
1.006294804E1,4.151921749E0,7.171605110E0,-3.538641930E0,9.010680372E0
1.008229618E1,3.514010906E0,7.993763924E0,-2.163701773E0,8.996118034E0
1.010167485E1,3.281668425E0,8.582029343E0,-1.426793933E0,9.298188867E0
1.012105351E1,3.227884769E0,9.691664696E0,-1.069932103E0,1.027094735E1
1.014040165E1,3.016935349E0,9.998019218E0,-6.503491402E-1,1.046351954E1
1.015978032E1,2.678095818E0,9.119640350E0,-6.171914339E-1,9.524755251E0
1.017918950E1,2.475854158E0,8.756422043E0,-1.276955247E0,9.188873462E0
1.019853764E1,2.361534595E0,8.612038612E0,-1.826474547E0,9.114826602E0
1.021791630E1,2.436426163E0,8.332585335E0,-2.074560165E0,8.925914557E0
1.023729496E1,2.711353779E0,7.901046753E0,-2.254150152E0,8.652119510E0
1.025664311E1,2.833892822E0,7.650135994E0,-1.822821736E0,8.359318653E0
1.027602177E1,2.836065054E0,7.755312920E0,-1.190702081E0,8.343015936E0
1.029536992E1,5.779647350E0,-4.552063942E0,1.194925308E-1,7.357981251E0
1.031474858E1,2.078256226E1,-9.928439331E1,1.326050186E1,1.022992989E2
1.033415776E1,-1.233589840E1,-9.023876190E1,-1.105995297E0,9.108475045E1
1.035347538E1,3.908214569E-1,-1.350561237E1,1.795469224E-1,1.351245885E1
1.037285405E1,-2.686875463E-1,-1.023921013E0,4.675129414E0,4.793479141E0
1.039223271E1,-1.953320384E0,3.291341782E0,4.715690136E0,6.073394825E0
1.041158085E1,-2.814916134E0,5.574889183E0,7.569303036E0,9.813128486E0
1.043095951E1,-2.572162390E0,7.432440758E0,6.215025902E0,1.002415792E1
1.045033818E1,-2.143366575E0,8.397842407E0,2.429890156E0,9.001230113E0
1.046971684E1,-2.122994900E0,9.926067352E0,-2.587410808E-1,1.015385973E1
1.048909550E1,-2.231309891E0,1.106978798E1,-1.517804146E0,1.139397556E1
1.050844364E1,-2.230762243E0,1.160845852E1,-2.188238382E0,1.202168859E1
1.052782231E1,-2.114246845E0,1.161089516E1,-2.508107185E0,1.206538552E1
1.054720097E1,-1.819292784E0,1.134877110E1,-2.248701572E0,1.171157933E1
1.056657963E1,-1.420537233E0,1.090695190E1,-1.658345580E0,1.112338240E1
1.058592778E1,-1.008566737E0,1.053960514E1,-1.030580163E0,1.063779013E1
1.060530644E1,-7.133826017E-1,1.043170547E1,-9.247875214E-1,1.049688648E1
1.062465458E1,-3.471343219E-1,1.052165413E1,-4.856922328E-1,1.053857698E1
1.064403325E1,1.606304944E-1,1.060104275E1,2.831337750E-1,1.060603952E1
1.066338139E1,7.452030182E-1,1.015459442E1,1.171471596E0,1.024907123E1
1.068276005E1,1.166798115E0,9.566685677E0,1.441390634E0,9.744767808E0
1.070213871E1,1.729557276E0,8.480134010E0,1.242439985E0,8.743437443E0
1.072148686E1,2.522463799E0,5.566947937E0,1.796494246E0,6.370331587E0
1.074089604E1,8.800406456E0,-1.985559464E1,8.562411308E0,2.334537812E1
1.076027470E1,1.133815765E1,-6.791397095E1,7.275198460E0,6.923719940E1
1.077962284E1,1.346374154E0,-5.083374023E1,-3.785303116E0,5.099225813E1
1.079900151E1,4.915303707E0,-2.868933105E1,-5.197791576E0,2.956780283E1
1.081838017E1,4.614382267E0,-2.542703438E1,2.168252468E-1,2.584325084E1
1.083772831E1,1.142075777E0,-1.829677200E1,1.343192935E0,1.838152252E1
1.085710698E1,-8.863747120E-1,-1.043567848E1,4.689560533E-1,1.048374767E1
1.087645512E1,-2.199250698E0,-1.882474899E0,3.190221786E-1,2.912420047E0
1.089583378E1,-3.236970663E0,5.841617584E0,-1.650165677E0,6.879354754E0
1.091521244E1,-4.065518379E0,1.060960007E1,-3.444083929E0,1.187239518E1
1.093456059E1,-4.561350822E0,1.282041454E1,-4.262375355E0,1.425962110E1
1.095393925E1,-3.606705666E0,1.252033234E1,-3.986131668E0,1.362557497E1
1.097331791E1,-1.862163782E0,1.172951508E1,-2.188736916E0,1.207641284E1
1.099266606E1,-3.002385497E-1,1.447025108E1,-1.947999597E-1,1.447467639E1
1.101204472E1,5.873581171E-1,1.777420807E1,9.647355676E-1,1.781005830E1
1.103145390E1,9.623318911E-1,1.921706390E1,1.198434949E0,1.927843028E1
1.105080204E1,3.134395123E0,1.649075317E1,1.046406746E0,1.681857129E1
1.107018071E1,4.309870720E0,1.175962353E1,4.185464382E-1,1.253151676E1
1.108952885E1,3.693105936E0,9.202926636E0,-2.919413447E-1,9.920590701E0
1.110890751E1,3.307522774E0,7.774287224E0,-7.758077383E-1,8.484169163E0
1.112828617E1,3.347789288E0,7.353778839E0,-1.449498057E0,8.208946397E0
1.114763432E1,3.545740366E0,7.298022270E0,-2.122148037E0,8.386710684E0
1.116701298E1,3.626136780E0,7.384095192E0,-2.653683901E0,8.643828318E0
1.118639164E1,3.464304209E0,8.133873940E0,-2.913158417E0,9.308480052E0
1.120573979E1,3.271931171E0,9.566892624E0,-2.524309874E0,1.042128151E1
1.122511845E1,3.194228411E0,9.877073288E0,-1.499378920E0,1.048846076E1
1.124446659E1,3.040505648E0,9.959718704E0,-5.854721069E-1,1.042993043E1
1.126384526E1,3.027994871E0,9.662467957E0,5.182617903E-1,1.013906481E1
1.128322392E1,3.058635950E0,8.922771454E0,4.763284922E-1,9.444468917E0
1.130257206E1,3.125553131E0,8.258798599E0,-3.750912547E-1,8.838412195E0
1.132198124E1,3.302446127E0,7.570716858E0,-1.078333139E0,8.329748287E0
1.134135991E1,4.496617317E0,3.322462082E0,-1.412251949E0,5.766522102E0
1.136070805E1,1.323467445E1,-5.210622787E1,5.945952415E0,5.408853799E1
1.138008671E1,-1.423845387E1,-1.196728058E2,-1.753051281E0,1.205296113E2
1.139946537E1,-1.981952429E0,-2.828734589E1,-3.266495764E-1,2.835857494E1
1.141881352E1,-4.697711468E-1,-6.115882874E0,3.427637100E0,7.026621119E0
1.143819218E1,-2.592188358E0,-9.506092072E-1,4.149322033E0,4.983971477E0
1.145754032E1,-3.235884428E0,-8.902359009E-2,8.813076019E0,9.388779588E0
1.147691899E1,-1.977711916E0,2.782417297E0,9.507463455E0,1.010173509E1
1.149629765E1,-4.859347343E-1,5.031188965E0,3.187496185E0,5.975711413E0
1.151564579E1,-4.831947684E-1,8.185528755E0,1.508641541E-1,8.201165660E0
1.153502446E1,-7.879618406E-1,1.100471592E1,-1.264250040E0,1.110508823E1
1.155440312E1,-1.052284956E0,1.200378513E1,-2.088668585E0,1.222950112E1
1.157375126E1,-9.935794473E-1,1.203393364E1,-2.303305626E0,1.229259841E1
1.159312992E1,-7.566879988E-1,1.158434582E1,-2.247594833E0,1.182460686E1
1.161253910E1,-3.708705306E-1,1.115474892E1,-1.826174021E0,1.130932712E1
1.163188725E1,-5.494779348E-2,1.178544712E1,-7.766218185E-1,1.181113562E1
1.165126591E1,2.134623528E-1,1.266728783E1,2.369169593E-1,1.267130130E1
1.167061406E1,5.990150571E-1,1.372556305E1,1.645936608E0,1.383687130E1
1.168999272E1,9.289131165E-1,1.419018078E1,2.276378632E0,1.440159747E1
1.170937138E1,1.878856182E0,1.295757294E1,1.209768891E0,1.314885310E1
1.172871952E1,2.431482077E0,1.078970623E1,-9.816738367E-1,1.110376284E1
1.174809819E1,2.324557304E0,8.773510933E0,-3.556603432E0,9.748204384E0
1.176747685E1,2.546712399E0,6.884836197E0,-4.528824329E0,8.625367430E0
1.178682499E1,2.589367867E0,6.258834839E0,-2.725084782E0,7.300953811E0
1.180620366E1,2.696136951E0,4.357353210E0,-9.070888758E-1,5.203699808E0
1.182558232E1,8.361971855E0,-3.640460205E1,7.662094116E0,3.813037254E1
1.184493046E1,-6.589772224E0,-1.119904480E2,4.078712463E0,1.122582800E2
1.186430912E1,-1.582001448E0,-4.173010254E1,9.111486077E-1,4.177001770E1
1.188368779E1,1.118743181E0,-1.552853298E1,2.365317822E0,1.574743316E1
1.190306645E1,-3.032410622E0,-9.053192139E0,5.757975578E-1,9.564901720E0
1.192244511E1,-3.747882128E0,-1.115893078E1,2.896270752E0,1.212257154E1
1.194179326E1,-1.827835560E0,-6.683549881E0,6.684067726E0,9.627439079E0
1.196117192E1,-9.604696035E-1,-5.043802261E-1,4.704628468E0,4.828087643E0
1.198055058E1,-8.856242299E-1,5.605734825E0,-4.657800198E-1,5.694343178E0
1.199989872E1,-2.192061663E0,1.066283798E1,-4.463920116E0,1.176553573E1
1.201927738E1,-2.817493439E0,1.273138618E1,-6.028446674E0,1.436553629E1
1.203865605E1,-1.704160571E0,1.231104946E1,-6.407650471E0,1.398299276E1
1.205800419E1,-2.988122702E-1,1.162571049E1,-4.867114544E0,1.260695194E1
1.207738285E1,1.392165065E0,1.401511478E1,-1.805930376E0,1.419939965E1
1.209673100E1,1.937533855E0,1.752364349E1,-5.105489492E-2,1.763050553E1
1.211610966E1,2.718292236E0,1.960044861E1,1.996307373E0,1.988848766E1
1.213548832E1,5.398265839E0,1.696584129E1,2.146276474E0,1.793286222E1
1.215483647E1,6.839928627E0,1.148629379E1,-4.217667580E-1,1.337525536E1
1.217424565E1,6.257129192E0,7.614043236E0,-2.908752441E0,1.027551268E1
1.219362431E1,5.152224541E0,5.936440468E0,-3.691096783E0,8.683947179E0
1.221297245E1,3.214700460E0,6.947332382E0,-2.811554432E0,8.155033084E0
1.223235112E1,2.101336241E0,9.024344444E0,-2.025365353E0,9.484540656E0
1.225169926E1,1.919203043E0,1.087086964E1,-1.465384483E0,1.113582052E1
1.227107792E1,2.115941048E0,1.152278614E1,-2.438281178E-1,1.171798870E1
1.229045659E1,2.134385586E0,1.099148083E1,7.232973576E-1,1.122013421E1
1.230980473E1,2.552766800E0,9.121517181E0,2.015111744E-1,9.474138524E0
1.232918339E1,2.916716099E0,8.455192566E0,-7.436965704E-1,8.974998536E0
1.234856205E1,3.088862896E0,8.041827202E0,-1.236566544E0,8.702939478E0
1.236791020E1,3.125700951E0,7.859781265E0,-1.526083589E0,8.595062483E0
1.238728886E1,3.186576605E0,7.687701225E0,-1.116611958E0,8.396537551E0
1.240666752E1,3.479684591E0,7.158916473E0,-8.582786322E-1,8.005931060E0
1.242601567E1,5.614294052E0,1.515245438E-1,-9.271177053E-1,5.692346145E0
1.244539433E1,1.472754288E1,-8.371746826E1,7.863512993E0,8.536597594E1
1.246477299E1,-1.877941704E1,-1.034273224E2,-3.239682198E0,1.051683083E2
1.248415165E1,2.972979546E-1,-2.040526581E1,9.216125607E-1,2.042823116E1
1.250353032E1,7.929445505E-1,-3.586987495E0,5.651016235E0,6.740120536E0
1.252287846E1,-4.327944517E-1,1.743206978E0,4.458307743E0,4.806515322E0
1.254225712E1,-8.260170221E-1,3.871178627E0,5.985738277E0,7.176168254E0
1.256163578E1,-8.437523246E-1,5.445452690E0,5.924559593E0,8.091061695E0
1.258098393E1,-8.478126526E-1,7.125829697E0,3.015938282E0,7.784093967E0
1.260036259E1,-1.076977968E0,9.488787651E0,6.526584029E-1,9.571987026E0
1.261974125E1,-1.376184583E0,1.142180824E1,-7.292802334E-1,1.152750785E1
1.263908940E1,-1.399692535E0,1.190078259E1,-1.316246748E0,1.205488577E1
1.265846806E1,-1.299239397E0,1.182972240E1,-1.078486443E0,1.194962293E1
1.267781620E1,-1.003919363E0,1.114659214E1,-4.306527376E-1,1.119999251E1
1.269719487E1,-6.870620251E-1,1.069773197E1,6.731772423E-2,1.071998392E1
1.271657353E1,-4.899021983E-1,1.131081295E1,1.544067860E-1,1.132247037E1
1.273592167E1,-1.878396273E-1,1.241164970E1,1.627145290E0,1.251926251E1
1.275533085E1,-1.378221512E-1,1.340244675E1,2.482378483E0,1.363109595E1
1.277470951E1,-2.697736621E-1,1.407815266E1,1.672611952E0,1.417973169E1
1.279405766E1,2.829043865E-1,1.257306290E1,2.266610861E-1,1.257828767E1
1.281343632E1,4.757183194E-1,9.885456085E0,-9.334359765E-1,9.940817504E0
1.283278447E1,7.391570807E-1,8.060848236E0,-3.271202564E0,8.730658262E0
1.285216313E1,1.116541862E0,6.915195465E0,-5.054992676E0,8.638260531E0
1.287154179E1,1.243334532E0,6.303935051E0,-4.291909218E0,7.726963350E0
1.289088993E1,4.774559498E0,-1.543253422E1,3.426887274E0,1.651372421E1
1.291026860E1,1.996133804E0,-1.165668945E2,1.396829224E1,1.174177952E2
1.292964726E1,2.510949373E0,-5.389670181E1,4.911799431E-1,5.395739607E1
1.294899540E1,4.454765797E0,-1.676851463E1,-1.246544003E0,1.739488124E1
1.296837406E1,2.285750151E0,-6.486524582E0,-3.939640045E0,7.925933294E0
1.298775273E1,1.588493705E0,-1.032932949E1,-1.352979898E0,1.053797488E1
1.300710087E1,1.931450009E0,-9.437697411E0,3.158678532E0,1.013794267E1
1.302647953E1,7.660962343E-1,-2.088630676E0,3.632260799E0,4.259413112E0
1.304585820E1,-5.070762336E-2,4.385660172E0,1.855826616E0,4.762423630E0
1.306523686E1,-1.482695580E0,9.699715614E0,-1.047166824E0,9.868101516E0
1.308461552E1,-2.998417854E0,1.241375637E1,-2.827951908E0,1.308010584E1
1.310396366E1,-2.858476162E0,1.271771431E1,-3.752570629E0,1.356439934E1
1.312334233E1,-1.276744962E0,1.344301033E1,-3.336352587E0,1.390955977E1
1.314275151E1,3.351080418E-2,1.558125401E1,-2.506059408E0,1.578153773E1
1.316206913E1,8.174027205E-1,1.771185684E1,-5.488151312E-1,1.773920004E1
1.318144780E1,2.485022783E0,1.854896545E1,1.522793770E0,1.877653745E1
1.320082646E1,5.355936050E0,1.426554298E1,1.839438796E0,1.534846255E1
1.322017460E1,6.185384750E0,1.032257748E1,-1.752454638E-1,1.203516935E1
1.323955326E1,5.254868984E0,8.117972374E0,-3.550015926E0,1.030134635E1
1.325890141E1,3.589251518E0,8.076513290E0,-4.271107197E0,9.816065917E0
1.327828007E1,2.571620941E0,8.777798653E0,-3.220750809E0,9.697227399E0
1.329765873E1,2.174169064E0,9.693140984E0,-2.195788860E0,1.017376439E1
1.331703740E1,2.326245070E0,1.039510822E1,-1.033348083E0,1.070221937E1
1.333641606E1,2.609436035E0,1.014587212E1,-6.308650970E-2,1.047625206E1
1.335579472E1,2.719414234E0,9.351315498E0,8.456891775E-2,9.739069115E0
1.337517338E1,2.859028816E0,8.837875366E0,-5.336693525E-1,9.304132939E0
1.339452153E1,3.153800011E0,8.504314423E0,-1.161230326E0,9.144302826E0
1.341386967E1,3.245965719E0,8.315505981E0,-1.686417818E0,9.084488881E0
1.343324833E1,3.021615744E0,8.091438293E0,-1.958873034E0,8.856563607E0
1.345262700E1,2.945573330E0,7.666369438E0,-1.626405358E0,8.372264747E0
1.347197514E1,2.939158440E0,7.713488579E0,-1.156942248E0,8.335170889E0
1.349135380E1,3.446789980E0,3.169226646E0,-5.503000021E-1,4.714571963E0
1.351073246E1,2.006372643E1,-8.089440918E1,1.529608536E1,8.473741076E1
1.353008061E1,-1.266297722E1,-1.055724258E2,-1.050013423E0,1.063343341E2
1.354945927E1,1.515106678E0,-1.651164627E1,-3.576247692E-1,1.658486980E1
1.356883793E1,5.411911011E-1,7.435626984E-1,3.775356293E0,3.885754551E0
1.358818608E1,-2.008984804E0,5.428606987E0,3.281651258E0,6.653948358E0
1.360759526E1,-2.693545341E0,5.304336548E0,7.276280403E0,9.398692953E0
1.362694340E1,-2.382407427E0,6.322941780E0,7.045909405E0,9.762187114E0
1.364632206E1,-1.603423834E0,7.215570450E0,2.588583231E0,7.831742338E0
1.366570072E1,-1.555079699E0,9.300441742E0,3.362145424E-1,9.435546072E0
1.368504887E1,-1.785151482E0,1.097789669E1,-1.001876950E0,1.116712761E1
1.370442753E1,-1.858121514E0,1.177377415E1,-2.100705624E0,1.210319534E1
1.372380619E1,-1.561120033E0,1.166325092E1,-2.733123779E0,1.208050013E1
1.374315434E1,-1.274919152E0,1.140894318E1,-2.758024693E0,1.180661270E1
1.376253300E1,-8.595352173E-1,1.111667442E1,-2.060504675E0,1.133864765E1
1.378191166E1,-5.054848194E-1,1.098861408E1,-1.613739729E0,1.111797240E1
1.380125981E1,-1.112902164E-1,1.129294014E1,-7.437648773E-1,1.131795338E1
1.382063847E1,5.821713805E-1,1.209021568E1,9.031896591E-1,1.213787421E1
1.384001713E1,1.190927267E0,1.229256439E1,1.831513405E0,1.248518676E1
1.385936528E1,2.055132389E0,1.105678463E1,1.062855482E0,1.129627006E1
1.387874394E1,2.438598633E0,8.924635887E0,-1.048045158E0,9.310976730E0
1.389812260E1,2.702960968E0,6.878805161E0,-2.810714006E0,7.907216429E0
1.391750126E1,3.314435959E0,4.743157387E0,-2.791123629E0,6.424437628E0
1.393687992E1,4.489167690E0,-8.264520645E0,2.239550948E-1,9.407714065E0
1.395622807E1,5.710063934E0,-6.425253296E1,6.502725601E0,6.483269439E1
1.397560673E1,-4.568520546E0,-6.131147003E1,2.889465809E0,6.154930341E1
1.399498539E1,7.839245796E-1,-2.524395561E1,1.949302793E0,2.533123791E1
1.401433354E1,2.126729488E0,-2.123191261E1,3.371598244E0,2.160288791E1
1.403371220E1,1.829740047E0,-2.133316803E1,3.919062853E0,2.176720148E1
1.405306034E1,2.083368063E0,-1.474600410E1,2.883945227E0,1.516911994E1
1.407243901E1,1.379395723E0,-7.117163658E0,2.724690676E0,7.744720161E0
1.409181767E1,1.212238669E-1,1.078236580E0,1.040135860E0,1.503054209E0
1.411116581E1,-1.188142300E0,7.565547943E0,-8.462516069E-1,7.704890628E0
1.413054448E1,-2.319735050E0,1.146970749E1,-1.701476693E0,1.182498979E1
1.414992314E1,-2.912008047E0,1.264723587E1,-2.078791857E0,1.314358176E1
1.416930180E1,-1.806500435E0,1.221200562E1,-2.544695616E0,1.260444369E1
1.418868046E1,-3.756560683E-1,1.327696896E1,-2.652564049E0,1.354456046E1
1.420802861E1,4.476648569E-1,1.580558777E1,-2.405105352E0,1.599379693E1
1.422740727E1,7.218359709E-1,1.848388290E1,-6.656084061E-1,1.850994352E1
1.424678593E1,2.512465715E0,1.782773018E1,2.619204521E-1,1.800580600E1
1.426613408E1,5.239415169E0,1.268702984E1,-2.949472666E-1,1.372950077E1
1.428551274E1,5.293758392E0,9.285369873E0,-2.227313042E0,1.091800783E1
1.430489140E1,4.201020241E0,8.412887573E0,-3.253468752E0,9.950392319E0
1.432423954E1,3.594669342E0,8.360403061E0,-2.464430094E0,9.428223730E0
1.434361821E1,3.343886375E0,8.423623085E0,-1.274699926E0,9.152259933E0
1.436299687E1,3.429615974E0,8.671084404E0,-3.412610292E-1,9.330939372E0
1.438234501E1,3.573842764E0,1.005352211E1,1.509494185E-1,1.067091583E1
1.440172367E1,3.591844559E0,1.069748878E1,4.981594384E-1,1.129538740E1
1.442107182E1,3.502589703E0,1.046324348E1,1.166269422E0,1.109539468E1
1.444045048E1,3.614152908E0,9.792770386E0,1.449269295E0,1.053854044E1
1.445982914E1,3.697130680E0,9.345074654E0,8.778614998E-1,1.008810370E1
1.447920781E1,3.524074793E0,8.686120033E0,-1.940377951E-1,9.375789836E0
1.449858647E1,3.437329531E0,7.839957237E0,-7.678794265E-1,8.594754365E0
1.451796513E1,3.562911987E0,6.662023544E0,-1.484018564E0,7.699299360E0
1.453731327E1,4.790300369E0,2.908446312E0,-2.211064816E0,6.024520329E0
1.455669194E1,1.363593864E1,-4.930482483E1,1.259441495E0,5.117119079E1
1.457607060E1,-1.247220135E1,-1.211343155E2,-2.387232304E0,1.217980996E2
1.459541874E1,-3.032272577E0,-2.900697327E1,5.248158574E-1,2.916975500E1
1.461479741E1,3.884867430E-1,-4.904715538E0,4.502129078E0,6.669057107E0
1.463414555E1,-8.212741613E-1,1.414458275E0,3.290049553E0,3.674181476E0
1.465352421E1,-2.115547895E0,5.325241089E-1,2.544768095E0,3.351860600E0
1.467290287E1,-3.056191683E0,1.723395348E0,4.117218018E0,5.409425416E0
1.469225102E1,-2.347725868E0,4.201856613E0,5.113108635E0,7.022200201E0
1.471162968E1,-1.871099114E0,6.880563736E0,3.307223082E0,7.860082298E0
1.473100834E1,-1.707813859E0,9.798694611E0,7.491028309E-1,9.974577650E0
1.475038700E1,-1.390281320E0,1.149049950E1,-7.554340363E-1,1.159892846E1
1.476976567E1,-9.023092985E-1,1.172774124E1,-9.583205581E-1,1.180137513E1
1.478911381E1,-3.479093909E-1,1.138874626E1,-5.182054639E-1,1.140583707E1
1.480849247E1,-3.447520733E-2,1.075643921E1,3.425554037E-1,1.076194765E1
1.482787114E1,1.205162108E-1,1.056405926E1,1.163950324E0,1.062867125E1
1.484721928E1,3.260044754E-1,1.190808105E1,1.745024085E0,1.203967534E1
1.486659794E1,4.940980971E-1,1.329728317E1,3.231056929E0,1.369312242E1
1.488597660E1,6.228306293E-1,1.383974361E1,3.408614635E0,1.426692241E1
1.490532475E1,7.734012008E-1,1.319786739E1,1.874505877E0,1.335273850E1
1.492470341E1,1.143317938E0,1.086706924E1,-2.788308859E-1,1.093060458E1
1.494408207E1,1.395635486E0,8.642296791E0,-3.603036404E0,9.466729296E0
1.496343022E1,1.988389373E0,6.598449707E0,-4.450765610E0,8.203812854E0
1.498280888E1,2.578197479E0,5.052591324E0,-1.895181656E0,5.980593184E0
1.500215702E1,4.513488770E0,-1.079465389E1,2.518615484E0,1.196827295E1
1.502153569E1,4.764799595E0,-6.811227417E1,7.908701420E0,6.873523671E1
1.504094487E1,-3.089677095E0,-5.330553436E1,3.459214926E0,5.350693662E1
1.506029301E1,2.535486221E0,-2.406975937E1,3.511542559E0,2.445634759E1
1.507967167E1,3.153695583E0,-2.103723145E1,2.881884098E0,2.146662895E1
1.509905034E1,1.476516962E0,-2.017017746E1,1.333385587E0,2.026805561E1
1.511839848E1,8.763189912E-1,-1.443083954E1,5.845663548E-1,1.446923573E1
1.513777714E1,-1.131543219E-1,-7.353572845E0,1.761992276E-1,7.356553790E0
1.515712529E1,-7.682379484E-1,3.177938461E-1,-6.084659100E-1,1.030249114E0
1.517650395E1,-8.470270038E-1,6.242037773E0,-1.141703963E0,6.401873026E0
1.519588261E1,-1.101544857E0,1.003030109E1,-1.400114894E0,1.018727946E1
1.521523076E1,-1.398408175E0,1.158710861E1,-1.693748832E0,1.179344803E1
1.523460942E1,-5.991681218E-1,1.165091801E1,-1.255547523E0,1.173368196E1
1.525398808E1,4.148074389E-1,1.280812359E1,-1.732810140E-1,1.281601035E1
1.527333622E1,1.041528821E0,1.622363281E1,-4.476173520E-1,1.626319173E1
1.529271488E1,7.081664801E-1,1.915826416E1,-1.698006868E0,1.924639740E1
1.531209355E1,2.423660278E0,1.928568077E1,-2.066171885E0,1.954688410E1
1.533147221E1,4.200115204E0,1.337444687E1,-1.048153162E0,1.405757525E1
1.535085087E1,3.275006056E0,9.857472420E0,-9.898838997E-1,1.043433262E1
1.537019902E1,2.438308477E0,8.761293411E0,-8.367046714E-1,9.132671306E0
1.538957768E1,2.181819916E0,8.130518913E0,-2.923613787E-2,8.418226101E0
1.540895634E1,2.130903721E0,7.959028244E0,8.407816887E-1,8.282137110E0
1.542830449E1,2.072966814E0,8.283424377E0,1.163812160E0,8.617816984E0
1.544768315E1,2.017324924E0,8.647936821E0,1.426152706E0,8.993904750E0
1.546706181E1,2.379257202E0,9.501447678E0,2.183683634E0,1.003528012E1
1.548640995E1,2.783978462E0,1.006069756E1,2.481867790E0,1.072976417E1
1.550578862E1,2.951112270E0,1.019943714E1,2.350171566E0,1.087478221E1
1.552516728E1,3.004477978E0,1.037415314E1,1.930042267E0,1.097155433E1
1.554451542E1,2.744110107E0,9.706284523E0,1.434513569E0,1.018822500E1
1.556389409E1,2.558743477E0,9.004792213E0,1.497546196E0,9.480300396E0
1.558324223E1,3.333025455E0,7.704815865E0,9.308243990E-1,8.446282037E0
1.560262089E1,1.124165249E1,-1.180630684E1,8.565431833E-1,1.632474496E1
1.562203007E1,1.525773811E1,-9.332635498E1,-3.677481174E0,9.463683730E1
1.564137822E1,-9.324523926E0,-7.270539856E1,-9.293070793E0,7.388763693E1
1.566075688E1,9.696996212E-1,-1.631050873E1,5.475828648E-1,1.634848187E1
1.568013554E1,9.354705811E-1,-4.113053322E0,3.926805019E0,5.762994924E0
1.569948368E1,-4.584088624E-1,-2.786426544E-1,4.809224129E0,4.839051264E0
1.571886235E1,-1.032595634E0,5.630979538E-1,3.649678230E0,3.834512255E0
1.573821049E1,-1.025565624E0,3.095446587E0,4.169561863E0,5.293280698E0
1.575758915E1,-1.196079612E0,5.491469383E0,4.241598606E0,7.041164759E0
1.577696782E1,-1.874991179E0,8.369993210E0,2.440816641E0,8.917957397E0
1.579631596E1,-2.483837128E0,1.069642162E1,9.767994881E-1,1.102438296E1
1.581569462E1,-2.604570627E0,1.186264992E1,4.300382137E-1,1.215282618E1
1.583507328E1,-2.154386520E0,1.163277721E1,4.477019310E-1,1.183905925E1
1.585442143E1,-1.788469553E0,1.117265320E1,8.398663998E-1,1.134602038E1
1.587380009E1,-1.446680188E0,1.071765232E1,1.204403281E0,1.088170676E1
1.589317875E1,-1.132922530E0,1.041798973E1,1.180515409E0,1.054569297E1
1.591255742E1,-8.533282280E-1,1.121372986E1,1.951455593E0,1.141420542E1
1.593193608E1,-4.746629000E-1,1.160885620E1,3.002022266E0,1.200012437E1
1.595128422E1,-3.523948491E-1,1.181322479E1,1.875941515E0,1.196643718E1
1.597066288E1,-2.001241893E-1,1.088751602E1,-4.435359240E-1,1.089838423E1
1.599004155E1,2.139103860E-1,8.828624725E0,-2.341825008E0,9.136438943E0
1.600938969E1,1.143233776E0,7.169316292E0,-3.045155525E0,7.872677545E0
1.602876835E1,1.692476630E0,5.995960236E0,-2.102773190E0,6.575535824E0
1.604814701E1,1.799199224E0,1.066836357E0,1.821680069E-1,2.099629215E0
1.606749516E1,2.750853062E0,-3.227296829E1,7.901998043E0,3.333996473E1
1.608687382E1,-2.376098394E0,-6.204803848E1,5.746347427E0,6.235884406E1
1.610625248E1,2.004665852E0,-3.071519852E1,3.181340933E0,3.094451543E1
1.612560063E1,4.437625885E0,-2.108635330E1,3.591814518E0,2.184554762E1
1.614497929E1,4.600821972E0,-2.237516785E1,2.015544415E0,2.293203258E1
1.616432743E1,4.328045845E0,-2.163051987E1,-1.400601149E0,2.210368870E1
1.618376713E1,2.605409861E0,-1.684819412E1,-5.283833742E-1,1.705664078E1
1.620311528E1,1.394675970E0,-1.005801105E1,3.785943985E-1,1.016130115E1
1.622246342E1,3.290208876E-1,-1.756297112E0,3.379696608E-1,1.818531765E0
1.624184208E1,-4.901543558E-1,5.374916077E0,-4.499989748E-2,5.397406703E0
1.626122074E1,-1.386699319E0,1.001551056E1,-5.696787834E-1,1.012708846E1
1.628056889E1,-2.388400316E0,1.226843834E1,-2.004810095E0,1.265852673E1
1.629994755E1,-1.727635980E0,1.331564713E1,-2.349063396E0,1.363118789E1
1.631929570E1,-6.432344913E-1,1.601058769E1,-2.400008678E0,1.620224400E1
1.633867436E1,-5.150663853E-1,1.823556137E1,-3.226639986E0,1.852598709E1
1.635805302E1,4.735592604E-1,1.983422089E1,-2.778497458E0,2.003348758E1
1.637740117E1,2.800510168E0,1.749440765E1,-8.948193789E-1,1.773972542E1
1.639677983E1,4.564277649E0,1.274694443E1,2.843751907E-1,1.354245517E1
1.641618901E1,3.982749224E0,9.826214790E0,-3.752438128E-1,1.060931649E1
1.643550663E1,3.280753851E0,8.599809647E0,-6.406480670E-1,9.226619193E0
1.645488530E1,2.914665461E0,7.978603363E0,-1.803106964E-1,8.496228476E0
1.647429448E1,2.679924011E0,7.925312042E0,3.893636763E-1,8.375211505E0
1.649364262E1,2.515326977E0,8.032110214E0,6.959311366E-1,8.445471239E0
1.651302128E1,2.350553274E0,8.391737938E0,8.255662918E-1,8.753737831E0
1.653236943E1,2.179018497E0,9.632646561E0,1.086445451E0,9.935610957E0
1.655174809E1,2.393076181E0,1.030855560E1,1.409732103E0,1.067616396E1
1.657112675E1,2.311992168E0,1.050065422E1,1.421263695E0,1.084569211E1
1.659047490E1,2.092423916E0,1.064640236E1,1.041072011E0,1.089990605E1
1.660985356E1,1.943204880E0,9.646202087E0,1.286471188E-1,9.840823644E0
1.662923222E1,2.022944212E0,8.890636444E0,-8.391752839E-2,9.118265286E0
1.664861088E1,2.146921396E0,8.436368942E0,-3.755713105E-1,8.713360214E0
1.666795903E1,3.953333855E0,3.635533333E0,-1.554578304E0,5.591302611E0
1.668730717E1,2.252243042E1,-5.367988205E1,6.402324677E0,5.856431823E1
1.670668583E1,4.609285355E0,-1.072432938E2,-2.836617947E0,1.073797745E2
1.672606450E1,-3.379037380E-1,-2.365971756E1,-2.119386673E0,2.375685614E1
1.674544316E1,1.708406210E0,-7.379697800E0,2.189157963E0,7.884859160E0
1.676482182E1,6.422828436E-1,-3.716173172E0,5.935148239E0,7.031959536E0
1.678420048E1,1.387469172E-1,-1.591763496E0,6.484832287E0,6.678773205E0
1.680354863E1,-5.123509169E-1,2.985347748E0,6.901524544E0,7.536965282E0
1.682292729E1,-1.138622284E0,6.003800392E0,6.046292305E0,8.596495245E0
1.684230595E1,-1.767251730E0,8.201571465E0,3.632051945E0,9.142251063E0
1.686165409E1,-2.358448982E0,1.015968513E1,1.801779270E0,1.058432294E1
1.688103276E1,-2.616392612E0,1.126566505E1,6.778422594E-1,1.158534374E1
1.690038090E1,-2.546351433E0,1.146823215E1,2.217912674E-1,1.174961471E1
1.691975956E1,-2.178968906E0,1.105389309E1,2.120006084E-2,1.126662804E1
1.693913822E1,-1.749020338E0,1.034356308E1,-1.243829727E-1,1.049113151E1
1.695848637E1,-1.173415184E0,9.077309608E0,3.126454353E-1,9.158176679E0
1.697786503E1,-8.085255623E-1,8.340182304E0,8.726907969E-1,8.424603473E0
1.699724369E1,-5.434183478E-1,7.788911819E0,1.283887982E0,7.912699867E0
1.701659184E1,-2.548087239E-1,6.960427284E0,1.649893403E0,7.157836524E0
1.703600102E1,1.877926588E-1,5.896947861E0,1.931683660E0,6.208112589E0
1.705537968E1,7.078793049E-1,4.957840919E0,2.033559799E0,5.405242377E0
1.707472782E1,1.140310049E0,4.664628029E0,1.605961323E0,5.063415194E0
1.709410649E1,1.424354553E0,4.250205040E0,6.505918503E-1,4.529492083E0
1.711345463E1,1.626283407E0,2.271336555E0,5.615746975E-2,2.794086815E0
1.713283329E1,2.438264847E0,-2.457844734E0,1.502399683E0,3.774035110E0
1.715221196E1,4.846506596E0,-1.400651073E1,4.160852909E0,1.539427381E1
1.717156010E1,7.499729633E0,-3.964470291E1,4.848715782E0,4.063814044E1
1.719093876E1,5.886320591E0,-4.462197876E1,-1.038078427E0,4.502052160E1
1.721031742E1,4.803260803E0,-2.570719910E1,-1.885353684E0,2.621995344E1
1.722966557E1,1.668628573E0,-2.150299072E1,1.658344746E0,2.163129766E1
1.724904423E1,6.575232744E-1,-2.030619049E1,2.745103359E0,2.050144633E1
1.726839238E1,1.140869379E0,-1.447859287E1,2.206739426E0,1.469016451E1
1.728777104E1,7.299197316E-1,-5.405241013E0,2.161221504E0,5.866880910E0
1.730714970E1,-3.793104887E-1,3.433685303E0,2.195977926E0,4.093457006E0
1.732652836E1,-1.212028503E0,8.748499870E0,1.723765850E0,8.998701672E0
1.734590702E1,-2.034025431E0,1.147450542E1,3.578767776E-1,1.165888545E1
1.736528569E1,-2.420627594E0,1.301001263E1,-1.449374080E0,1.331242096E1
1.738463383E1,-1.694983125E0,1.387152386E1,-2.291041613E0,1.416125042E1
1.740401249E1,-7.180572748E-1,1.490280628E1,-2.168655872E0,1.507687997E1
1.742339116E1,-2.611507773E-1,1.544663620E1,-1.881984949E0,1.556305359E1
1.744273930E1,6.170063019E-1,1.531744385E1,-9.215744734E-1,1.535754155E1
1.746211796E1,1.786612749E0,1.454442692E1,3.413364291E-1,1.465772322E1
1.748146611E1,3.793450832E0,1.233607006E1,2.147653341E0,1.308362750E1
1.750084477E1,5.518720627E0,1.020298958E1,2.910249710E0,1.195938239E1
1.752022343E1,5.618978500E0,7.821015358E0,1.874576807E-1,9.632047602E0
1.753957158E1,4.126822948E0,7.555506706E0,-1.599561691E0,8.756423176E0
1.755895024E1,2.830901146E0,8.435421944E0,-1.369518280E0,9.002551027E0
1.757832890E1,2.287905455E0,9.554450989E0,-5.121917725E-1,9.837905543E0
1.759767704E1,2.422626257E0,1.064319801E1,6.869581342E-1,1.093703312E1
1.761708622E1,2.574992418E0,1.121774769E1,1.875108719E0,1.166123844E1
1.763643437E1,2.733872414E0,1.080026340E1,2.349069357E0,1.138586294E1
1.765581303E1,2.874733925E0,1.002783871E1,1.283469915E0,1.051042051E1
1.767519169E1,2.681696892E0,9.534126282E0,2.964915037E-1,9.908530133E0
1.769453984E1,2.315826416E0,8.943195343E0,-1.933368444E-1,9.240193400E0
1.771391850E1,2.277822495E0,8.285225868E0,9.733057022E-2,8.593190109E0
1.773329716E1,2.536349773E0,7.455271721E0,9.088541269E-1,7.927178718E0
1.775264530E1,4.182642937E0,4.247802734E0,3.957642317E-1,5.974525867E0
1.777202397E1,1.791345406E1,-4.172411728E1,2.731138706E0,4.548904173E1
1.779140263E1,1.946449637E0,-1.119859924E2,-7.547022820E0,1.122568872E2
1.781075077E1,-3.984066010E0,-3.356684113E1,-5.005155563E0,3.417099921E1
1.783012944E1,3.647297621E-1,-7.947484970E0,1.388496876E0,8.076104799E0
1.784947758E1,1.243116856E0,-2.875384331E0,4.918022156E0,5.830961884E0
1.786885624E1,4.909999967E-1,-5.964984894E-1,5.321984291E0,5.377769820E0
1.788823490E1,-6.976980567E-1,4.362583160E-1,3.967192173E0,4.051631478E0
1.790761357E1,-1.780002356E0,2.495237350E0,1.983618855E0,3.650939822E0
1.792699223E1,-2.557977200E0,5.195294380E0,6.519789696E-1,5.827470088E0
1.794637089E1,-3.178247929E0,8.062086105E0,1.230375767E-1,8.666812015E0
1.796571904E1,-3.517426968E0,1.008079529E1,4.245082140E-1,1.068526712E1
1.798509770E1,-3.473752499E0,1.110571384E1,9.275857210E-1,1.167322799E1
1.800447636E1,-2.943864346E0,1.102349281E1,1.481664181E0,1.150560993E1
1.802382450E1,-2.200598478E0,1.054140949E1,2.130825043E0,1.097744793E1
1.804320317E1,-1.598632336E0,1.025140572E1,2.447241306E0,1.066001569E1
1.806255131E1,-1.281623840E0,1.036242294E1,2.525273561E0,1.074241013E1
1.808192997E1,-9.415125847E-1,1.047201347E1,2.918580055E0,1.091181111E1
1.810130864E1,-7.342045307E-1,9.634177208E0,2.759581089E0,1.004846827E1
1.812065678E1,-6.506439447E-1,8.848233223E0,1.566571236E0,9.009368133E0
1.814003544E1,-4.629031420E-1,7.792968750E0,-3.554953337E-1,7.814794827E0
1.815941410E1,-7.956230640E-2,6.099592209E0,-2.136313438E0,6.463372988E0
1.817879277E1,5.204780102E-1,1.558959961E0,-1.785960555E0,2.427119409E0
1.819817143E1,2.184641838E0,-1.062672806E1,2.924002647E0,1.123609366E1
1.821751957E1,1.647137046E0,-2.554156876E1,5.778199196E0,2.623875723E1
1.823689824E1,-8.005030155E-1,-2.364417458E1,2.024242401E0,2.374416463E1
1.825627690E1,2.760990620E0,-1.728857040E1,2.201654911E-1,1.750903220E1
1.827562504E1,6.115373611E0,-2.154771423E1,2.608333111E0,2.255005953E1
1.829500370E1,7.207349300E0,-2.511847496E1,4.197524071E0,2.646701488E1
1.831438237E1,7.222322941E0,-2.475737381E1,1.540195227E0,2.583528030E1
1.833373051E1,4.779572964E0,-2.054535675E1,-1.539319992E0,2.115007111E1
1.835310917E1,3.149729252E0,-1.582999802E1,-5.641684532E-1,1.615016773E1
1.837248784E1,1.931178570E0,-8.689929008E0,1.030994415E0,8.961432158E0
1.839183598E1,3.724331856E-1,-4.477310181E-1,1.520828962E0,1.628523956E0
1.841121464E1,-9.011631012E-1,6.042572021E0,9.168550372E-1,6.177814721E0
1.843056279E1,-2.101475477E0,1.007094002E1,-7.231765985E-2,1.028811265E1
1.844994145E1,-3.368304253E0,1.232593822E1,-1.733845711E0,1.289497761E1
1.846932011E1,-3.147054195E0,1.239822388E1,-2.235470533E0,1.298526988E1
1.848869877E1,-1.469871640E0,1.204465103E1,-9.854346514E-1,1.217395673E1
1.850807743E1,-1.070069969E-1,1.358653736E1,9.415089488E-1,1.361954063E1
1.852745610E1,7.074871659E-1,1.525432205E1,2.138285637E0,1.541969989E1
1.854680424E1,1.347034454E0,1.576536465E1,3.009496927E0,1.610646752E1
1.856618290E1,2.777520418E0,1.443521881E1,1.339398623E0,1.476089938E1
1.858553105E1,3.610612392E0,1.090800858E1,-2.053459883E0,1.167209794E1
1.860490971E1,2.815457582E0,9.173972130E0,-3.334530592E0,1.015911710E1
1.862428837E1,2.018796206E0,8.920863152E0,-2.810546875E0,9.568516668E0
1.864363652E1,1.683996677E0,8.921858788E0,-1.936685085E0,9.283650045E0
1.866301518E1,1.592282534E0,8.988257408E0,-1.141424179E0,9.199292585E0
1.868239384E1,1.702687502E0,9.550769806E0,-6.854873896E-1,9.725545824E0
1.870174198E1,1.986941814E0,1.054954910E1,-6.170046329E-1,1.075274936E1
1.872112065E1,2.510261774E0,1.081628036E1,-4.591251016E-1,1.111324124E1
1.874049931E1,2.985375643E0,1.059299755E1,-1.052242965E-1,1.100614088E1
1.875987797E1,3.287587404E0,1.016534615E1,-3.694427013E-2,1.068381290E1
1.877925663E1,3.366056442E0,9.583832741E0,-2.656776905E-1,1.016123864E1
1.879860478E1,3.092217684E0,8.603634834E0,-8.068951368E-1,9.177985745E0
1.881798344E1,2.843901396E0,7.826222420E0,-1.094819665E0,8.398580988E0
1.883736210E1,2.755920649E0,7.310878754E0,-1.073540926E0,7.886478104E0
1.885671025E1,5.480810165E0,-5.729698181E0,4.852434993E-1,7.943814107E0
1.887608891E1,9.566777229E0,-1.133862915E2,1.247436142E1,1.144708872E2
1.889546757E1,-1.010774708E1,-6.737268829E1,-1.392047405E0,6.814090897E1
1.891481572E1,9.185175300E-1,-1.126251793E1,1.610217690E0,1.141406087E1
1.893419438E1,1.950472593E-1,-1.060533524E-1,4.178844452E0,4.184737949E0
1.895354252E1,-6.594091058E-1,4.073599815E0,6.369352341E0,7.589313873E0
1.897292118E1,-5.213871598E-1,6.296393394E0,1.115824413E1,1.282274645E1
1.899229985E1,2.222496271E-2,7.348599434E0,8.242966652E0,1.104304790E1
1.901161165E1,1.625323892E-1,8.810860634E0,4.250492573E0,9.783883125E0
1.903099031E1,-1.019139886E-1,1.045673180E1,2.198895454E0,1.068591445E1
1.905039949E1,-4.086641073E-1,1.157784462E1,1.013789535E0,1.162932765E1
1.906974763E1,-3.143160939E-1,1.198238754E1,5.332860947E-1,1.199836655E1
1.908912630E1,-3.329249620E-1,1.220091629E1,1.794711351E-1,1.220677710E1
1.910850496E1,-7.393063307E-1,1.222488213E1,-4.411880970E-1,1.225516070E1
1.912785310E1,-1.057659864E0,1.192176437E1,-1.507594347E0,1.206316504E1
1.914723176E1,-9.080589414E-1,1.118385887E1,-7.032513618E-1,1.124267907E1
1.916657991E1,-4.986696243E-1,9.921788216E0,1.324664116E0,1.002223966E1
1.918595857E1,1.804010272E-1,9.070383072E0,3.280227900E0,9.646983398E0
1.920533723E1,6.429815888E-1,8.888494492E0,2.753115177E0,9.327293435E0
1.922468538E1,1.336671352E0,7.964259148E0,7.111654282E-1,8.106902635E0
1.924406404E1,2.157581806E0,6.265713692E0,-6.334557533E-1,6.656995832E0
1.926344270E1,2.799444437E0,1.461622238E0,-8.778691292E-2,3.159261823E0
1.928279085E1,5.721442223E0,-1.912481499E1,3.909722328E0,2.034156774E1
1.930216951E1,3.005289555E0,-3.588204193E1,2.925534964E0,3.612632632E1
1.932154817E1,-1.856628060E0,-1.676195526E1,1.144245148E0,1.690323960E1
1.934092683E1,-6.919399500E-1,-1.760649681E0,2.452533007E0,3.097351505E0
1.936030550E1,-6.539854407E-1,3.212088585E0,3.539600611E0,4.824311611E0
1.937965364E1,-5.399340391E-1,2.197369576E0,4.561626434E0,5.091993474E0
1.939903230E1,9.408967495E-1,-7.063105583E0,5.901645184E0,9.252143700E0
1.941841096E1,1.872313142E0,-2.039899063E1,6.502565384E0,2.149203880E1
1.943775911E1,3.773729086E0,-3.153628922E1,6.380102158E0,3.239574466E1
1.945716829E1,5.501750946E0,-2.900461960E1,3.794253588E0,2.976463643E1
1.947651643E1,4.419299126E0,-2.137688446E1,-5.103422403E-1,2.183487676E1
1.949586458E1,2.746402740E0,-1.715558243E1,-2.862784863E0,1.760830127E1
1.951524324E1,9.530335665E-1,-1.221869469E1,-1.443867326E0,1.234056424E1
1.953459138E1,-3.883390129E-1,-5.292223930E0,-4.432882071E-1,5.324936221E0
1.955397005E1,-8.563209772E-1,1.717995644E0,-1.387071013E-1,1.924586789E0
1.957334871E1,-1.103385806E0,7.173165321E0,-1.855476499E-1,7.259902816E0
1.959269685E1,-1.778781295E0,1.076313210E1,-2.120687366E-1,1.091118914E1
1.961210603E1,-2.001145840E0,1.211702728E1,-5.872854590E-1,1.229519577E1
1.963148470E1,-1.107145786E0,1.242202091E1,-1.876451075E-1,1.247267357E1
1.965083284E1,-1.220300794E-1,1.307624626E1,-1.241634190E-1,1.307740510E1
1.967021150E1,7.038187981E-1,1.560771656E1,-1.776515722E0,1.572425468E1
1.968959016E1,1.001804948E0,1.773342133E1,-4.007249355E0,1.820812710E1
1.970893831E1,2.148607731E0,1.763281441E1,-4.297565460E0,1.827571416E1
1.972831697E1,3.800228357E0,1.322433281E1,-2.217683554E0,1.393710279E1
1.974766512E1,4.124036789E0,1.039127541E1,-6.330889463E-1,1.119763750E1
1.976704378E1,3.926567793E0,9.211605072E0,-1.049697101E-1,1.001412109E1
1.978642244E1,3.823125839E0,8.732044220E0,3.020207286E-1,9.537090959E0
1.980577058E1,3.941388607E0,8.475823402E0,4.972504675E-1,9.360629494E0
1.982514925E1,4.118992805E0,8.236882210E0,4.259780645E-1,9.219207535E0
1.984452791E1,4.206465244E0,8.148897171E0,2.956099212E-1,9.175307089E0
1.986387605E1,3.939984083E0,8.649634361E0,6.430416703E-1,9.526444864E0
1.988325471E1,3.496802330E0,9.287186623E0,1.396769762E0,1.002149827E1
1.990263338E1,3.247561693E0,9.276732445E0,1.746007204E0,9.982633067E0
1.992201204E1,3.157884121E0,8.944745064E0,1.407812953E0,9.589714995E0
1.994139070E1,3.168575287E0,8.523846626E0,6.369723678E-1,9.116005949E0
1.996073884E1,3.242000341E0,8.231059074E0,3.575396538E-1,8.853741260E0
1.998011751E1,3.253766060E0,7.979341507E0,-1.689783633E-1,8.618900054E0
1.999949617E1,4.151589394E0,5.174831390E0,-4.448268712E-1,6.649243969E0
2.001884431E1,1.420320129E1,-4.836738586E1,6.501089573E0,5.082714932E1
2.003822298E1,-1.384565258E1,-1.216351166E2,-6.371742487E-2,1.224206181E2
2.005757112E1,-2.762018204E0,-2.744690323E1,-4.460191727E-1,2.758913146E1
2.007694978E1,5.445878506E-1,-6.192329407E0,4.760607719E0,7.829744904E0
2.009632844E1,-2.967147827E-1,5.702428818E-1,7.520346642E0,7.547769884E0
2.011567659E1,-9.213518500E-1,4.212272644E0,1.023755932E1,1.110854405E1
2.013505525E1,-5.416644812E-1,5.482912064E0,1.127578259E1,1.254986048E1
2.015443391E1,-2.068665624E-1,6.317622185E0,5.398711205E0,8.312714750E0
2.017378206E1,-3.517543674E-1,8.332359314E0,2.515707254E0,8.710954360E0
2.019319124E1,-9.050044417E-1,1.033391857E1,8.666006327E-1,1.040960627E1
2.021256990E1,-1.366580725E0,1.150233459E1,-3.818417788E-1,1.158952316E1
2.023191804E1,-1.416571736E0,1.164882851E1,-1.033888102E0,1.178010211E1
2.025129671E1,-1.095189810E0,1.140937519E1,-9.938865900E-1,1.150482914E1
2.027064485E1,-5.838204622E-1,1.090617466E1,-5.859647989E-1,1.093749728E1
2.029002351E1,-1.639251709E-1,1.047033787E1,3.425991535E-2,1.047167705E1
2.030940218E1,1.375547647E-1,1.022001457E1,7.113579512E-1,1.024566490E1
2.032875032E1,3.422658443E-1,9.826663017E0,1.268207073E0,9.914070866E0
2.034812898E1,6.632230282E-1,9.230045319E0,2.016057491E0,9.470907516E0
2.036750764E1,1.143960476E0,9.169763565E0,2.534811497E0,9.582195924E0
2.038685579E1,1.659165025E0,8.633238792E0,2.437759399E0,9.122955196E0
2.040623445E1,2.228934765E0,7.518516541E0,2.277546167E0,8.165993981E0
2.042558260E1,2.822013140E0,4.935935974E0,1.946836710E0,6.009774977E0
2.044496126E1,4.410816669E0,-5.613183975E0,3.065085411E0,7.769033827E0
2.046433992E1,5.462967873E0,-1.873477554E1,1.233880401E0,1.955398408E1
2.048371858E1,2.432520390E-1,-1.464678860E1,-3.101802349E0,1.497360229E1
2.050309724E1,-2.229392767E0,-8.701848984E0,-1.076805711E0,9.047202793E0
2.052247591E1,4.114192724E-1,-1.410774708E1,2.222688913E0,1.428769189E1
2.054182405E1,2.310774803E0,-1.977476501E1,4.631255150E0,2.044087904E1
2.056120271E1,3.099239111E0,-2.445647430E1,6.976968765E0,2.562035346E1
2.058058137E1,3.924755335E0,-2.667116547E1,7.671455383E0,2.802866389E1
2.059992952E1,2.550799608E0,-2.278149414E1,4.182787895E0,2.330233397E1
2.061930818E1,1.332193851E0,-2.070752335E1,1.135759592E0,2.078139104E1
2.063865633E1,6.829273701E-2,-1.684487534E1,4.572296143E-2,1.684507583E1
2.065803499E1,-8.950667381E-1,-1.119148445E1,6.506308317E-1,1.124605661E1
2.067741365E1,-1.144037366E0,-5.707053185E0,1.428315401E0,5.993276435E0
2.069676179E1,-9.496696591E-1,1.391439438E-1,1.421849251E0,1.715485002E0
2.071614046E1,-9.751939178E-1,5.860434532E0,4.372725487E-1,5.957088497E0
2.073551912E1,-1.112193584E0,9.682208061E0,-6.318532228E-1,9.766338413E0
2.075489778E1,-1.132033348E0,1.116228771E1,-1.409748912E0,1.130776541E1
2.077427644E1,-5.614504218E-1,1.104183102E1,-9.820418358E-1,1.109962454E1
2.079362459E1,2.292986512E-1,1.112192535E1,-1.003680468E0,1.116947519E1
2.081300325E1,1.204971433E0,1.433835506E1,-1.476370215E0,1.446444092E1
2.083238191E1,1.214689374E0,1.832630157E1,-1.891599894E0,1.846366567E1
2.085173006E1,1.219289064E0,2.123350525E1,-9.719952941E-1,2.129068308E1
2.087110872E1,3.567999840E0,1.793439102E1,1.588636637E-1,1.828655905E1
2.089048738E1,5.520968437E0,1.186328697E1,1.300069094E0,1.314948098E1
2.090983553E1,4.701951504E0,7.922228813E0,-2.141415596E0,9.458103302E0
2.092921419E1,2.985296249E0,6.911877632E0,-3.179531336E0,8.172849296E0
2.094859285E1,1.820128918E0,7.256951332E0,-1.283959389E0,7.591097656E0
2.096794099E1,1.386902094E0,7.677186012E0,2.793765068E-1,7.806454619E0
2.098731966E1,1.169184685E0,8.439735413E0,1.208440661E0,8.605606050E0
2.100666780E1,9.023499489E-1,9.289989471E0,1.941486835E0,9.533494162E0
2.102604646E1,7.306315899E-1,1.022249317E1,2.723230362E0,1.060420543E1
2.104542512E1,1.555027366E0,1.066403675E1,4.361435890E0,1.162591557E1
2.106480379E1,2.211055517E0,1.061830425E1,4.290484428E0,1.166385049E1
2.108418245E1,2.437460423E0,1.051699543E1,3.013084412E0,1.120834885E1
2.110356111E1,2.216459513E0,9.815200806E0,1.686219096E0,1.020265625E1
2.112290926E1,1.953098297E0,8.991189003E0,1.347508550E0,9.299024247E0
2.114228792E1,2.101477623E0,8.384992599E0,1.060012937E0,8.709072081E0
2.116163606E1,8.211939812E0,-4.917186737E0,-1.629118443E0,9.709207371E0
2.118101472E1,2.079759216E1,-8.469860077E1,-3.307217360E0,8.727731950E1
2.120039339E1,-7.693896770E0,-9.434847260E1,-7.992889881E0,9.499850850E1
2.121974153E1,9.278690219E-1,-1.977101898E1,9.581899643E-1,1.981595974E1
2.123912019E1,1.452670336E0,-4.732196808E0,5.042147636E0,7.065917529E0
2.125849886E1,-3.876774013E-1,1.273336411E0,6.922178745E0,7.048988435E0
2.127784700E1,-1.600214839E0,3.990344048E0,5.465122223E0,6.953495097E0
2.129722566E1,-2.325120211E0,5.703469276E0,3.801367760E0,7.237827203E0
2.131660432E1,-2.605204582E0,6.705398560E0,4.656536102E0,8.569293392E0
2.133598299E1,-3.018491268E0,8.006908417E0,4.371343136E0,9.608876768E0
2.135536165E1,-3.230075121E0,9.618769646E0,2.991812468E0,1.057851864E1
2.137470979E1,-3.206684113E0,1.100657654E1,2.034865856E0,1.164337705E1
2.139408846E1,-2.819613457E0,1.142627811E1,1.677863240E0,1.188803081E1
2.141346712E1,-2.185610294E0,1.102687550E1,1.599094748E0,1.135455766E1
2.143281526E1,-1.718840361E0,1.058154678E1,1.391357899E0,1.081015362E1
2.145219392E1,-1.382459402E0,1.029347515E1,1.303162932E0,1.046733291E1
2.147157258E1,-1.115659833E0,1.014894295E1,1.305177927E0,1.029316420E1
2.149092073E1,-7.822350264E-1,9.495531082E0,1.403530598E0,9.630519213E0
2.151029939E1,-4.402695298E-1,9.097456932E0,1.871835470E0,9.298458362E0
2.152964754E1,1.963856816E-2,8.237090111E0,1.919559836E0,8.457821772E0
2.154902620E1,1.000228286E0,1.097301483E0,2.669096708E0,3.054276413E0
2.156840486E1,3.472183466E0,-1.257941818E1,3.734138966E0,1.357356304E1
2.158775300E1,1.845620275E0,-1.605330276E1,-7.358759642E-1,1.617579541E1
2.160713167E1,-8.974677324E-1,-2.620751381E0,-2.547877312E0,3.763703618E0
2.162654085E1,-4.213247299E-1,-2.528912544E0,1.276531696E0,2.863991333E0
2.164588899E1,2.495458603E0,-1.695153427E1,4.165194511E0,1.763322640E1
2.166526765E1,5.926439762E0,-3.182945251E1,6.157568932E0,3.295682616E1
2.168464632E1,5.669192314E0,-3.382830048E1,5.720918655E0,3.477387762E1
2.170399446E1,4.021687984E0,-2.326769257E1,2.211438179E0,2.371602729E1
2.172337312E1,1.763529539E0,-2.009189224E1,-1.946260571E0,2.026282558E1
2.174272127E1,3.480494022E-2,-1.492888355E1,-2.260708332E0,1.509912506E1
2.176209993E1,-6.853536963E-1,-6.896389961E0,1.725510359E-1,6.932508784E0
2.178147859E1,-9.529992938E-1,9.423894882E-1,1.121029615E0,1.747287326E0
2.180082674E1,-1.290914774E0,6.929872513E0,5.677595139E-1,7.071912391E0
2.182020540E1,-1.580811381E0,1.030876541E1,1.539143324E-1,1.043040261E1
2.183958406E1,-1.571446180E0,1.121351337E1,-8.214354515E-3,1.132309113E1
2.185893221E1,-4.127095938E-1,1.089086342E1,2.314856052E-1,1.090113851E1
2.187831087E1,8.185436130E-1,1.246922588E1,1.044799089E-1,1.249650046E1
2.189768953E1,1.490583420E0,1.521784401E1,-3.125582933E-1,1.529386504E1
2.191706819E1,1.615518928E0,1.749514771E1,9.463560581E-1,1.759504716E1
2.193644685E1,2.697485685E0,1.835199738E1,2.539872169E0,1.872226448E1
2.195579500E1,4.810199738E0,1.503599739E1,4.529175282E0,1.642354005E1
2.197517366E1,5.024513245E0,1.092509556E1,2.983302355E0,1.238965452E1
2.199455232E1,4.333759785E0,8.440546989E0,-7.311753035E-1,9.516245304E0
2.201390047E1,3.240315914E0,7.601537704E0,-2.407535076E0,8.606930222E0
2.203327913E1,2.282232285E0,7.733114243E0,-1.627143741E0,8.225401926E0
2.205265779E1,1.799182892E0,8.135888100E0,-2.340577841E-1,8.335737358E0
2.207200594E1,1.512811661E0,8.847246170E0,8.220085502E-1,9.013215962E0
2.209138460E1,1.390215635E0,9.943365097E0,1.593690872E0,1.016577885E1
2.211073274E1,1.459712744E0,1.059106445E1,2.288908005E0,1.093345816E1
2.213011140E1,1.574078321E0,1.073175621E1,2.520206928E0,1.113551781E1
2.214949007E1,1.810029626E0,9.367109299E0,1.500773787E0,9.657704998E0
2.216883821E1,2.031895638E0,8.506495476E0,6.645737886E-1,8.771016103E0
2.218824739E1,2.091950417E0,8.139000893E0,-4.897840023E-1,8.417807342E0
2.220762605E1,2.915056705E0,6.278645515E0,-2.152874231E0,7.249400841E0
2.222697420E1,1.461246395E1,-3.040092850E1,8.927655220E-1,3.374222261E1
2.224635286E1,7.404592991E0,-1.281544952E2,1.825358987E0,1.283812081E2
2.226570100E1,-2.500908852E0,-4.045805359E1,2.319162369E0,4.060156597E1
2.228507966E1,7.266980410E-1,-6.559206009E0,3.307859659E0,7.381951574E0
2.230445833E1,-3.232284486E-1,6.320304871E-1,6.096616745E0,6.137807011E0
2.232380647E1,-7.460379004E-1,3.237327576E0,5.241091728E0,6.205312634E0
2.234318513E1,-1.232971668E0,5.795168877E0,5.435007095E0,8.040118380E0
2.236256380E1,-1.711794376E0,8.019036293E0,6.138063908E0,1.024260766E1
2.238191194E1,-2.175230980E0,9.603308678E0,4.410112381E0,1.078908053E1
2.240129060E1,-2.722643852E0,1.108556175E1,2.507726192E0,1.168722206E1
2.242066926E1,-2.743396521E0,1.179961300E1,1.222743154E0,1.217588569E1
2.244001741E1,-2.302819252E0,1.152924824E1,7.426965237E-1,1.178041339E1
2.245939607E1,-1.826455832E0,1.087502575E1,7.494473457E-1,1.105277328E1
2.247877473E1,-1.471201897E0,1.030411148E1,1.087068081E0,1.046522171E1
2.249818391E1,-1.192648768E0,9.976350784E0,1.495287895E0,1.015804469E1
2.251753206E1,-9.706545472E-1,9.852229118E0,2.127128839E0,1.012587112E1
2.253688020E1,-8.276849985E-1,9.909415245E0,2.790533781E0,1.032805169E1
2.255625886E1,-5.781095028E-1,1.026999569E1,3.585472345E0,1.089323799E1
2.257563753E1,-1.417744756E-1,1.026316833E1,4.191055775E0,1.108682429E1
2.259498567E1,1.530655622E-1,9.616160393E0,3.986737490E0,1.041095796E1
2.261436433E1,6.968277693E-1,8.344931602E0,2.961883068E0,8.882353500E0
2.263371248E1,1.293264389E0,4.985083580E0,1.739248991E0,5.435860386E0
2.265309114E1,6.111841679E0,-2.048413467E1,5.286553860E0,2.202049122E1
2.267246980E1,7.593259811E0,-7.743521118E1,4.204933167E0,7.792015778E1
2.269181795E1,4.921252251E0,-4.599260712E1,-3.245422840E0,4.636886242E1
2.271119661E1,6.169451237E0,-1.840316391E1,-2.608101130E0,1.958419674E1
2.273060579E1,4.870553970E0,-1.499374866E1,-2.250477076E-1,1.576659258E1
2.274992342E1,2.237619400E0,-1.675028992E1,1.092247605E0,1.693434846E1
2.276933260E1,1.180255413E0,-1.158706760E1,1.023952723E0,1.169194670E1
2.278871126E1,1.489683613E-2,-3.348947525E0,1.286691666E0,3.587652001E0
2.280805940E1,-9.644667506E-1,4.637217522E0,1.002692938E0,4.841422888E0
2.282743806E1,-2.218091726E0,9.923288345E0,5.069948435E-1,1.018079694E1
2.284678621E1,-3.060900688E0,1.235394382E1,-2.160072327E-3,1.272749173E1
2.286616487E1,-2.863134623E0,1.244628429E1,2.144122124E-2,1.277137394E1
2.288554353E1,-1.556226492E0,1.167831326E1,1.087181330E0,1.183160195E1
2.290489168E1,-1.730220318E-1,1.254839611E1,1.827413201E0,1.268194073E1
2.292427034E1,1.728329062E-1,1.495475769E1,1.372691393E0,1.501861946E1
2.294364900E1,-3.314554691E-2,1.756851578E1,2.219593287E0,1.770820261E1
2.296302766E1,6.936206818E-1,1.799168777E1,2.417757988E0,1.816665881E1
2.298237581E1,2.261828423E0,1.487326813E1,1.391098022E0,1.510844553E1
2.300172395E1,3.250106812E0,1.176242161E1,6.202094555E-1,1.221893678E1
2.302110262E1,3.284209013E0,9.908760071E0,-2.948449850E-1,1.044301147E1
2.304048128E1,3.356630802E0,8.660988808E0,-8.052164316E-1,9.323522455E0
2.305985994E1,3.705196857E0,7.614781380E0,-1.987009048E-1,8.470706066E0
2.307923860E1,3.836315393E0,7.221032143E0,8.262900114E-1,8.218477729E0
2.309861726E1,3.817387104E0,7.396513939E0,1.494059086E0,8.456540386E0
2.311796541E1,3.639078856E0,9.068714142E0,1.683894157E0,9.915642724E0
2.313734407E1,3.417740583E0,1.020305443E1,2.106400728E0,1.096449700E1
2.315669221E1,2.980620384E0,9.758955002E0,2.388304710E0,1.047975668E1
2.317607088E1,2.838386774E0,8.014073372E0,2.097912550E0,8.756885780E0
2.319544954E1,2.875059366E0,7.152105331E0,6.900205612E-1,7.739166971E0
2.321479768E1,3.449080944E0,4.771726608E0,-1.452267647E0,6.064207739E0
2.323417634E1,1.010391617E1,-2.237789154E1,-4.556851387E-1,2.455741844E1
2.325355501E1,2.238031149E0,-1.193314667E2,-1.737520933E0,1.193650983E2
2.327290315E1,-4.388267517E0,-5.194798279E1,-1.767863750E0,5.216296723E1
2.329228181E1,2.239943981E0,-1.110056305E1,2.514010191E0,1.160000415E1
2.331166048E1,1.228053927E0,-7.513866425E-1,4.002057076E0,4.253135217E0
2.333103914E1,-2.316407561E-1,3.305397987E0,3.446355581E0,4.780866039E0
2.335041780E1,-1.360169411E0,5.292093277E0,2.052118540E0,5.836737323E0
2.336976594E1,-2.289600372E0,6.147847176E0,1.167889237E0,6.663502085E0
2.338914461E1,-2.210633039E0,6.559190750E0,1.872336864E0,7.170462124E0
2.340852327E1,-1.814513326E0,7.685194969E0,2.801330566E0,8.378671331E0
2.342787141E1,-1.554398417E0,8.984585762E0,3.149677753E0,9.646730312E0
2.344725008E1,-1.317704678E0,1.016028309E1,3.270724297E0,1.075478198E1
2.346662874E1,-1.053417921E0,1.062424564E1,3.336634874E0,1.118558971E1
2.348597688E1,-8.138635755E-1,1.042214870E1,3.342446804E0,1.097522247E1
2.350535554E1,-7.232205868E-1,1.043225670E1,3.439072371E0,1.100828082E1
2.352470369E1,-6.232502460E-1,1.060680294E1,3.690035820E0,1.124762525E1
2.354408235E1,-5.620561838E-1,1.141057777E1,4.163303852E0,1.215937051E1
2.356346101E1,-8.184758425E-1,1.212669563E1,3.626305342E0,1.268371949E1
2.358280916E1,-1.428216219E0,1.256438351E1,1.395762682E0,1.272209448E1
2.360218782E1,-1.289650679E0,1.044552517E1,-3.574123383E-1,1.053090397E1
2.362159700E1,-1.010822296E0,8.262690544E0,-1.746427059E0,8.505517281E0
2.364094514E1,-4.268189669E-1,7.272047997E0,-3.588979244E0,8.120691381E0
2.366032381E1,1.859639585E-1,5.197675705E0,-2.230310917E0,5.659037207E0
2.367970247E1,3.246706486E0,-2.635930443E1,5.478055954E0,2.711757972E1
2.369905061E1,4.613391876E0,-9.003524017E1,1.487943935E1,9.137300243E1
2.371842928E1,6.516935825E0,-3.854051208E1,6.686384678E-1,3.909333193E1
2.373777742E1,7.385938168E0,-1.664500046E1,-4.115758896E0,1.866942940E1
2.375715608E1,8.901699066E0,-1.451967049E1,-4.702072620E0,1.766834922E1
2.377653474E1,7.010334969E0,-1.478638363E1,-2.241481781E0,1.651684527E1
2.379588289E1,3.630756617E0,-8.844860077E0,9.337692261E-1,9.606553407E0
2.381526155E1,9.152458310E-1,-1.205720901E0,1.875255704E0,2.409983771E0
2.383464021E1,-1.097290397E0,5.773180962E0,1.230444908E0,6.003970295E0
2.385398836E1,-2.432820082E0,1.018318081E1,-3.365410566E-1,1.047516324E1
2.387336702E1,-3.684240103E0,1.275793743E1,-1.460201025E0,1.335929563E1
2.389271516E1,-3.362712860E0,1.289121628E1,-1.351511836E0,1.339096259E1
2.391212434E1,-1.640705943E0,1.309804726E1,4.889762402E-2,1.320049806E1
2.393150300E1,-3.416986465E-1,1.512206936E1,1.089875698E0,1.516514321E1
2.395085115E1,9.279644489E-2,1.685719681E1,1.136690974E0,1.689573206E1
2.397022981E1,1.400231123E0,1.764025879E1,7.575305700E-1,1.771195161E1
2.398960847E1,3.817423582E0,1.427119637E1,-2.169235945E-1,1.477453297E1
2.400895662E1,4.137870789E0,9.668277740E0,-1.427170873E0,1.061293484E1
2.402833528E1,2.994797468E0,8.048516273E0,-1.902430773E0,8.795832475E0
2.404771394E1,2.370205164E0,7.809500694E0,-9.304134846E-1,8.214124595E0
2.406706209E1,2.072390318E0,8.095604897E0,3.267436028E-1,8.363036629E0
2.408644075E1,1.996523619E0,8.658130646E0,1.292884469E0,8.978913247E0
2.410578889E1,2.059262753E0,9.384022713E0,1.983827114E0,9.809995687E0
2.412516756E1,2.395459414E0,1.010476780E1,2.550672054E0,1.069347867E1
2.414454622E1,3.120607138E0,1.031419659E1,3.745588779E0,1.140834236E1
2.416389436E1,3.524771929E0,1.003596210E1,4.354224205E0,1.149364263E1
2.418327303E1,3.376999378E0,9.633378983E0,3.751711130E0,1.087572765E1
2.420265169E1,2.666706562E0,9.262036324E0,2.425050497E0,9.938687572E0
2.422203035E1,2.389058828E0,9.081688881E0,1.962983727E0,9.593642693E0
2.424140901E1,2.427668810E0,8.974871635E0,1.377105236E0,9.398846501E0
2.426075716E1,4.246803284E0,1.780379295E0,-8.906316757E-1,4.690235959E0
2.428013582E1,1.964082718E1,-7.034689331E1,3.904396534E0,7.314158737E1
2.429951448E1,-6.864042282E0,-1.101625595E2,-4.832689285E0,1.104819419E2
2.431886262E1,2.111479759E0,-2.354618454E1,-1.380261540E0,2.368092640E1
2.433824129E1,3.181131840E0,-5.804868698E0,1.847259641E0,6.872297182E0
2.435761995E1,2.133588552E0,8.395032883E-1,2.664295197E0,3.515029840E0
2.437696809E1,1.202439785E0,4.918214798E0,1.006124973E0,5.162071842E0
2.439634676E1,7.234358788E-2,6.986721039E0,4.581916809E0,8.355445297E0
2.441572542E1,-4.541371763E-1,7.050992966E0,5.652449608E0,9.048366093E0
2.443507356E1,-1.080416322E0,8.176157951E0,4.358617306E0,9.328151108E0
2.445445222E1,-1.601422787E0,9.777743340E0,2.523371220E0,1.022429568E1
2.447383089E1,-1.941985130E0,1.112826920E1,8.123967648E-1,1.132562007E1
2.449320955E1,-1.864124298E0,1.174689579E1,-2.046710253E-1,1.189564670E1
2.451258821E1,-1.212940216E0,1.118797112E1,-4.524153471E-1,1.126261965E1
2.453193636E1,-3.943709135E-1,1.051824093E1,8.192062378E-2,1.052595039E1
2.455131502E1,1.632652879E-1,1.013306999E1,4.982783794E-1,1.014662724E1
2.457069368E1,5.434435606E-1,1.003616142E1,9.326452017E-1,1.009404250E1
2.459004182E1,8.517881632E-1,1.022542477E1,1.317023516E0,1.034501840E1
2.460942049E1,1.318918228E0,1.074969196E1,2.118786812E0,1.103560964E1
2.462876863E1,1.857619166E0,1.078503323E1,2.718959570E0,1.127654343E1
2.464814729E1,2.243848324E0,1.002765274E1,2.574913025E0,1.059333998E1
2.466752596E1,2.802887678E0,8.344928741E0,1.728925228E0,8.971242806E0
2.468687410E1,3.572287321E0,6.005580902E0,4.760692120E-1,7.003918944E0
2.470625276E1,5.115617752E0,-2.555418015E0,1.380810738E-1,5.720032570E0
2.472563142E1,9.316152573E0,-2.841983795E1,2.732551098E0,3.003239457E1
2.474497957E1,4.316463470E0,-4.960453415E1,-7.396721840E-2,4.979203888E1
2.476438875E1,1.860168099E0,-3.618564606E1,3.870698929E0,3.643958721E1
2.478373689E1,5.517307758E0,-2.017817307E1,7.308691025E0,2.215888801E1
2.480311555E1,3.592493296E0,-1.939030457E1,7.320362091E0,2.103515202E1
2.482249422E1,-1.090257049E0,-1.942720795E1,5.402878284E0,2.019396352E1
2.484184236E1,-1.513568401E0,-1.567765999E1,3.626955986E0,1.616275724E1
2.486122102E1,-9.614214301E-1,-8.597316742E0,3.169925213E0,9.213393087E0
2.488059968E1,-8.852691650E-1,-1.070100784E0,2.390273333E0,2.764457232E0
2.489994783E1,-1.014984965E0,5.312349319E0,1.096565485E0,5.518487622E0
2.491932649E1,-1.544517040E0,9.785159111E0,-3.724053204E-1,9.913302045E0
2.493870515E1,-1.732870579E0,1.189713001E1,-1.156250715E0,1.207813970E1
2.495805330E1,-6.905400753E-1,1.171273327E1,-1.110856175E0,1.178554062E1
2.497743196E1,2.783114910E-1,1.118545437E1,-1.247288942E0,1.125822261E1
2.499678011E1,1.035157204E0,1.213685703E1,-1.407077551E0,1.226192140E1
2.501615877E1,1.108355284E0,1.416418934E1,-1.213100910E0,1.425918388E1
2.503553743E1,8.786702156E-1,1.567359066E1,5.137096643E-1,1.570660381E1
2.505491609E1,1.214527130E0,1.614182663E1,2.012572289E0,1.631208418E1
2.507429475E1,2.805999994E0,1.295536613E1,2.039603710E0,1.341175346E1
2.509367342E1,3.238575935E0,1.025858784E1,-2.227921486E-1,1.075995515E1
2.511302156E1,2.779487610E0,8.877964973E0,-2.012937069E0,9.518178874E0
2.513240022E1,2.288928509E0,8.326306343E0,-1.838527203E0,8.828745852E0
2.515174837E1,1.985776663E0,8.381899834E0,-6.753926277E-1,8.640353522E0
2.517112703E1,2.033093929E0,8.917684555E0,1.301478148E-1,9.147431727E0
2.519050569E1,2.334686279E0,1.037170410E1,4.397193789E-1,1.064031762E1
2.520985384E1,2.823613167E0,1.114746189E1,8.260532618E-1,1.152913969E1
2.522923250E1,3.259681940E0,1.119626617E1,1.323251367E0,1.173596595E1
2.524861116E1,3.315809727E0,1.014639568E1,1.402128577E0,1.076614620E1
2.526795930E1,2.821875334E0,8.959332466E0,1.568354130E0,9.523253295E0
2.528733797E1,2.637570858E0,8.398714066E0,1.553212643E0,8.939107757E0
2.530668611E1,3.485426188E0,7.124470711E0,5.976949334E-1,7.953836675E0
2.532606477E1,1.578232861E1,-4.588053513E1,9.651830673E0,4.946982146E1
2.534547395E1,-6.756474018E0,-1.266250305E2,2.776108027E0,1.268355434E2
2.536482210E1,3.972707987E-1,-2.717437363E1,-2.546395063E-1,2.717847029E1
2.538420076E1,8.716917038E-1,-2.044300079E0,4.473455906E0,4.995079277E0
2.540357942E1,-9.307463765E-1,5.709484100E0,5.575386047E0,8.034265809E0
2.542292757E1,-1.751302123E0,8.976419449E0,4.412741661E0,1.015457799E1
2.544230623E1,-2.400757551E0,1.070387077E1,4.776209831E0,1.196447520E1
2.546168489E1,-2.792792320E0,1.175180435E1,4.405274868E0,1.285733414E1
2.548103304E1,-2.474213600E0,1.228844452E1,3.602378368E0,1.304242046E1
2.550041170E1,-1.195458174E0,1.204375744E1,2.085953236E0,1.228138487E1
2.551975984E1,3.144299984E-2,1.122930050E1,8.854784966E-1,1.126420217E1
2.553913850E1,6.266288757E-1,1.058869171E1,1.621272564E-1,1.060845612E1
2.555851716E1,6.635890007E-1,1.026398182E1,-4.159412384E-1,1.029381757E1
2.557786531E1,5.867096186E-1,1.012812424E1,-5.883146524E-1,1.016214755E1
2.559724397E1,5.811396837E-1,9.958480835E0,-3.616762161E-1,9.981977437E0
2.561662263E1,6.035355330E-1,9.781716347E0,1.506597996E-1,9.801475818E0
2.563600130E1,6.884180307E-1,9.457126617E0,9.153021574E-1,9.526223873E0
2.565537996E1,7.493822575E-1,9.188407898E0,1.627574444E0,9.361485568E0
2.567472810E1,9.904222488E-1,8.854936600E0,2.439748764E0,9.238139014E0
2.569410676E1,1.717041254E0,7.954638481E0,3.586990595E0,8.893312407E0
2.571348543E1,3.156716347E0,3.030132294E0,4.212503433E0,6.073857505E0
2.573283357E1,7.520240784E0,-1.587936687E1,6.757425308E0,1.882474729E1
2.575221223E1,1.046960640E1,-5.753390503E1,8.909481049E0,5.915354375E1
2.577162141E1,3.090234518E0,-5.804919052E1,-1.018504858E0,5.814030806E1
2.579093904E1,2.656943321E0,-2.526792336E1,-5.137645721E0,2.592147183E1
2.581031770E1,1.025627136E0,-1.933691406E1,-1.364886522E0,1.941213723E1
2.582969636E1,-1.093965650E0,-1.667889786E1,2.012531519E0,1.683545894E1
2.584904451E1,-9.663989544E-1,-1.046371460E1,4.825369835E0,1.156319351E1
2.586842317E1,-7.019365430E-1,-2.509792328E0,6.338704109E0,6.853535017E0
2.588777132E1,-2.021426558E-1,4.405207634E0,5.028883934E0,6.688526712E0
2.590718050E1,-6.781020164E-1,9.202907562E0,1.928971767E0,9.427314677E0
2.592655916E1,-1.693455935E0,1.189325237E1,-1.052583337E0,1.205923616E1
2.594590730E1,-1.917203069E0,1.242528534E1,-2.353336334E0,1.279068314E1
2.596528596E1,-8.032486439E-1,1.178473854E1,-1.851200342E0,1.195626252E1
2.598466463E1,5.121817589E-1,1.195974159E1,-4.294766188E-1,1.197840554E1
2.600404329E1,1.493236542E0,1.386523056E1,4.163242579E-1,1.395161997E1
2.602339143E1,2.055008888E0,1.534644699E1,2.413249016E-1,1.548530705E1
2.604273958E1,2.681571960E0,1.634706306E1,4.339047670E-1,1.657122724E1
2.606211824E1,4.674037933E0,1.494781876E1,1.147409678E0,1.570351760E1
2.608149690E1,6.207125664E0,1.192022133E1,1.591375709E0,1.353338694E1
2.610084505E1,6.378379822E0,8.976390839E0,6.308550835E-1,1.102983680E1
2.612022371E1,6.290704250E0,6.861039162E0,-7.149834633E-1,9.335845955E0
2.613960237E1,5.132018089E0,6.376517296E0,-1.064599514E0,8.254147722E0
2.615895052E1,3.720182657E0,7.200990677E0,3.375685215E-2,8.105255410E0
2.617832918E1,3.034685135E0,9.208517075E0,9.778089523E-1,9.744855614E0
2.619773836E1,2.878174782E0,1.040111923E1,1.576284051E0,1.090650461E1
2.621708650E1,2.761928558E0,1.098260784E1,2.240417004E0,1.154406309E1
2.623646516E1,2.569942236E0,1.076724720E1,2.485512733E0,1.134530691E1
2.625581331E1,2.839508295E0,9.168868065E0,1.860282063E0,9.777095597E0
2.627519197E1,3.046822786E0,7.979140282E0,1.369582415E0,8.650177149E0
2.629457063E1,3.228857756E0,6.828813553E0,4.163162708E-1,7.565152753E0
2.631391878E1,4.224916458E0,4.391708374E0,-1.134243846E0,6.198671682E0
2.633329744E1,1.090600204E1,-2.321124268E1,4.352825880E-1,2.564940814E1
2.635267610E1,-2.177495480E0,-1.232381210E2,2.316123486E0,1.232791158E2
2.637202425E1,-7.420224667E0,-4.938328934E1,3.167150021E-1,4.993865545E1
2.639140291E1,1.153316259E0,-1.086283493E1,4.767884254E0,1.191906210E1
2.641075105E1,1.339507103E-1,-8.214673996E-1,5.932277203E0,5.990380980E0
2.643012971E1,-8.682798147E-1,2.209469795E0,3.989887476E0,4.642722120E0
2.644950838E1,-1.019751668E0,3.087530136E0,4.372235775E0,5.448777980E0
2.646888704E1,-8.514401317E-1,3.658186913E0,5.140308380E0,6.366321703E0
2.648826570E1,-5.887588263E-1,5.109635353E0,4.288132668E0,6.696498501E0
2.650764436E1,-5.641111732E-1,7.112853050E0,2.735077620E0,7.641436352E0
2.652699251E1,-4.963174462E-1,9.113584518E0,1.335309744E0,9.224250967E0
2.654637117E1,-4.059327841E-1,1.058610725E1,5.972462893E-1,1.061070928E1
2.656571931E1,-2.589302659E-1,1.092636299E1,6.997660398E-1,1.095180924E1
2.658509798E1,-4.105573893E-2,1.073837376E1,1.119577408E0,1.079665736E1
2.660447664E1,7.717621326E-2,1.056050396E1,1.491643906E0,1.066560836E1
2.662382478E1,2.517743111E-1,1.059575748E1,1.516146421E0,1.070664125E1
2.664320344E1,3.119345307E-1,1.153887558E1,2.200347185E0,1.175093530E1
2.666258211E1,6.456660628E-1,1.260643291E1,3.049989462E0,1.298620311E1
2.668193025E1,8.575371504E-1,1.336733913E1,2.925788641E0,1.371062962E1
2.670130891E1,1.374638319E0,1.308129120E1,8.655014038E-1,1.318176402E1
2.672068758E1,2.332452297E0,1.048079872E1,-1.467057467E0,1.083696144E1
2.674003572E1,2.005820990E0,8.089118004E0,-1.533762336E0,8.474053034E0
2.675941438E1,2.075582981E0,6.953227997E0,-3.788046837E-1,7.266286347E0
2.677879304E1,3.859018803E0,-1.651525497E-1,8.585424423E-1,3.956816474E0
2.679817171E1,1.209623623E1,-8.121224213E1,1.266142654E1,8.307863097E1
2.681755037E1,-2.041116238E0,-9.814019012E1,-8.347802162E-1,9.816496285E1
2.683689851E1,3.079998016E0,-2.418814087E1,-2.387998104E-1,2.438461752E1
2.685627718E1,3.995447755E-1,-6.216464996E0,1.823962688E0,6.490832995E0
2.687565584E1,-2.380755901E0,-4.339342117E-1,2.106546402E0,3.208400740E0
2.689500398E1,-2.131031752E0,1.742967606E0,6.465978622E0,7.027667604E0
2.691438264E1,-1.160298228E0,4.238858223E0,7.387090683E0,8.595540691E0
2.693373079E1,-1.020627856E0,7.706731796E0,3.651793480E0,8.589004123E0
2.695310945E1,-1.962812424E0,1.099105835E1,-7.020460367E-1,1.118699535E1
2.697248811E1,-2.533515215E0,1.246582603E1,-2.575564384E0,1.297879232E1
2.699183626E1,-1.511374712E0,1.211249638E1,-1.923073649E0,1.235698322E1
2.701121492E1,-2.189385891E-2,1.177308464E1,-3.376162052E-1,1.177794490E1
2.703059358E1,1.276217461E0,1.255658913E1,1.653931260E0,1.272918497E1
2.704997224E1,2.206353664E0,1.413342285E1,2.650708199E0,1.454812331E1
2.706935091E1,2.427920818E0,1.508309269E1,2.468774319E0,1.547544284E1
2.708872957E1,3.043931007E0,1.364510155E1,1.629619002E0,1.407515436E1
2.710807771E1,3.563399553E0,1.114288712E1,6.165071726E-1,1.171502585E1
2.712745637E1,3.488791466E0,9.603736877E0,-1.026506662E0,1.026923287E1
2.714680452E1,2.548839808E0,9.239001274E0,-2.639669418E0,9.941005158E0
2.716618318E1,1.447414875E0,1.060945606E1,-2.667251587E0,1.103493538E1
2.718556184E1,1.063980818E0,1.142357063E1,-1.673974633E0,1.159449060E1
2.720490999E1,1.202598929E0,1.112446213E1,-3.187279701E-1,1.119381478E1
2.722428865E1,1.797890782E0,1.005050373E1,7.328472137E-1,1.023631289E1
2.724366731E1,2.352718830E0,9.650820732E0,1.483548641E0,1.004363198E1
2.726301546E1,2.662761211E0,9.350234985E0,2.442283154E0,1.002406796E1
2.728239412E1,2.607827187E0,8.972259521E0,3.139104843E0,9.856783592E0
2.730174226E1,2.431506157E0,8.472660065E0,3.087826252E0,9.339853410E0
2.732112093E1,2.561582565E0,7.998411179E0,2.850026608E0,8.868987444E0
2.734053011E1,3.692917347E0,6.053800583E0,2.911978006E0,7.665882594E0
2.735987825E1,9.897618294E0,-2.385694885E1,8.428018570E0,2.716888576E1
2.737925691E1,9.732532501E-2,-1.313808594E2,4.423796654E0,1.314553523E2
2.739863557E1,-4.312716484E0,-4.648783875E1,-6.121170998E0,4.708701954E1
2.741798372E1,6.458898783E-1,-1.018390751E1,-1.158541918E0,1.026992528E1
2.743736238E1,-1.098792553E0,-1.472618103E0,1.920685768E0,2.658003569E0
2.745671053E1,-2.291741848E0,-4.275560379E-1,2.969863892E0,3.775576300E0
2.747608919E1,-1.787518978E0,1.597899437E0,3.769049644E0,4.467017118E0
2.749546785E1,-1.554159403E0,4.944962502E0,3.485705853E0,6.246455866E0
2.751481599E1,-1.887631536E0,8.300457001E0,2.860670090E0,8.980210053E0
2.753419466E1,-2.042443514E0,1.073781204E1,2.338181496E0,1.117762388E1
2.755357332E1,-1.429057240E0,1.152524662E1,1.989313602E0,1.178265178E1
2.757292146E1,-6.016292572E-1,1.119178391E1,2.266357660E0,1.143478735E1
2.759230012E1,2.123274803E-1,1.082033730E1,2.360693455E0,1.107689739E1
2.761167879E1,6.594840288E-1,1.059776592E1,2.565825701E0,1.092387400E1
2.763105745E1,9.010354280E-1,1.022459984E1,2.549182653E0,1.057604079E1
2.765043611E1,1.134567261E0,1.091886616E1,3.022968292E0,1.138627324E1
2.766978426E1,1.293366671E0,1.184321594E1,3.677711487E0,1.246836489E1
2.768916292E1,1.438037157E0,1.229847050E1,3.442151785E0,1.285179895E1
2.770854158E1,1.696979761E0,1.192396641E1,2.482613325E0,1.229732020E1
2.772788972E1,2.029840469E0,1.069236565E1,9.043393135E-1,1.092084086E1
2.774726839E1,2.544012785E0,8.706914902E0,-8.169190884E-1,9.107673960E0
2.776664705E1,3.130884647E0,6.634614944E0,-4.238069057E-1,7.348480552E0
2.778599519E1,3.970669746E0,4.819908142E0,1.049447775E0,6.332382914E0
2.780537386E1,4.268093109E0,2.156423569E0,1.346808910E0,4.967964939E0
2.782472200E1,7.282269478E0,-2.624705124E1,6.139796257E0,2.792196708E1
2.784410066E1,1.638836622E0,-8.493168640E1,5.578606606E0,8.513047628E1
2.786347932E1,-2.194245338E0,-4.282226562E1,9.516954422E-1,4.288900640E1
2.788282747E1,2.300728559E-1,-1.703627014E1,2.882199287E-1,1.704026128E1
2.790220613E1,-2.533004999E0,-1.297913170E1,5.745637417E-1,1.323646847E1
2.792161531E1,-2.003052711E0,-1.437473488E1,3.945685863E0,1.504040092E1
2.794096346E1,-6.676418781E-1,-8.648847580E0,6.872181892E0,1.106685114E1
2.796034212E1,3.103777170E-1,-1.997466087E0,6.822657585E0,7.115817706E0
2.797969026E1,7.381869555E-1,4.441614151E0,3.664697170E0,5.805416574E0
2.799906892E1,1.865214109E-1,9.301221848E0,1.341261029E0,9.399281847E0
2.801844758E1,-4.603555202E-1,1.144107819E1,1.632231474E-1,1.145149942E1
2.803779573E1,-6.652032137E-1,1.204616451E1,-1.145413876E0,1.211876841E1
2.805717439E1,-8.350490332E-1,1.287593842E1,-3.297044754E0,1.331756739E1
2.807655305E1,-3.699641228E-1,1.529724789E1,-3.858104229E0,1.578060945E1
2.809590120E1,-6.867866516E-1,1.797725677E1,-2.572340965E0,1.817334243E1
2.811527986E1,-3.165862560E-1,1.993499374E1,6.306957006E-1,1.994748053E1
2.813465852E1,2.062853813E0,1.752725601E1,3.538425922E0,1.799945908E1
2.815400667E1,4.630762100E0,1.321523571E1,4.503638268E0,1.470949252E1
2.817338533E1,4.637392521E0,1.083362293E1,3.255707026E0,1.222589152E1
2.819276399E1,4.259357929E0,9.342990875E0,1.602754951E0,1.039242185E1
2.821214265E1,4.229373932E0,8.084342003E0,7.376531363E-1,9.153596103E0
2.823152132E1,4.260735512E0,7.137948990E0,6.889553070E-1,8.341393307E0
2.825086946E1,4.215440750E0,6.740429878E0,1.070722222E0,8.021831570E0
2.827024812E1,3.892899752E0,7.012198448E0,1.908056736E0,8.244166183E0
2.828962679E1,3.308969498E0,7.767740250E0,2.698936462E0,8.864046804E0
2.830897493E1,2.759440660E0,8.966399193E0,3.033593893E0,9.859691636E0
2.832835359E1,2.424711227E0,9.479036331E0,2.659784079E0,1.013931978E1
2.834770174E1,2.732563972E0,8.173830986E0,2.318171978E0,8.924815974E0
2.836708040E1,3.012854576E0,7.370527267E0,1.861226797E0,8.177171277E0
2.838645906E1,3.476351738E0,6.089688301E0,1.285326719E0,7.128912244E0
2.840580721E1,6.822691917E0,-6.422403336E0,5.562300682E-1,9.386467999E0
2.842518587E1,7.520778656E0,-9.421015930E1,-1.219169378E0,9.451773697E1
2.844456453E1,-1.983747482E1,-8.684513855E1,-5.019495964E0,8.922330882E1
2.846391267E1,-1.385488510E-1,-1.727585602E1,3.727991104E0,1.767405767E1
2.848332185E1,1.125698686E0,-2.847309113E0,6.722813606E0,7.387190907E0
2.850267000E1,5.101064444E-1,1.618978500E0,5.676775455E0,5.925122745E0
2.852204866E1,3.009295464E-1,1.507639885E0,4.621323586E0,4.870335543E0
2.854142732E1,5.152230263E-1,2.129463196E0,4.897056580E0,5.364814201E0
2.856077547E1,7.849225998E-1,2.543724060E0,4.523661613E0,5.248823675E0
2.858015413E1,3.588457108E-1,4.457060814E0,3.647585869E0,5.770532386E0
2.859953279E1,-2.894324064E-2,6.923547745E0,2.864963531E0,7.492954499E0
2.861888094E1,-4.785686731E-1,9.323728561E0,1.815941095E0,9.510971786E0
2.863825960E1,-7.839043736E-1,1.094243526E1,1.039782763E0,1.101964354E1
2.865763826E1,-8.147294521E-1,1.130643082E1,8.429262638E-1,1.136704388E1
2.867698640E1,-9.382840991E-1,1.142287636E1,9.249672890E-1,1.149861060E1
2.869636507E1,-7.896141410E-1,1.106432056E1,1.123680115E0,1.114923033E1
2.871571321E1,-5.500406623E-1,1.129124546E1,1.736930847E0,1.143729415E1
2.873509187E1,3.860068321E-2,1.274019814E1,2.927036524E0,1.307217202E1
2.875447054E1,3.916570246E-1,1.432722378E1,3.496701002E0,1.475295409E1
2.877384920E1,4.331180751E-1,1.523821831E1,2.219794035E0,1.540514116E1
2.879322786E1,1.568140984E0,1.312518215E1,-2.148387432E-1,1.322027338E1
2.881263704E1,1.662884116E0,9.525452614E0,-4.859735966E-1,9.681714797E0
2.883195466E1,1.316294312E0,7.887253761E0,3.082215786E-1,8.002274874E0
2.885133333E1,1.410909653E0,7.332454681E0,9.117484093E-1,7.522422673E0
2.887068147E1,2.061790466E0,4.492935181E0,5.479621887E-1,4.973701743E0
2.889006013E1,6.624323368E0,-5.068643570E1,8.553848267E0,5.182822343E1
2.890943880E1,-6.321292400E0,-1.137036591E2,4.723063469E0,1.139771387E2
2.892878694E1,3.983715057E0,-3.219630432E1,3.942436934E0,3.268049581E1
2.894816560E1,3.191885233E0,-8.879996300E0,4.896043777E0,1.063079067E1
2.896754426E1,-4.837360978E-1,-1.721436501E0,4.516939163E0,4.857991729E0
2.898689241E1,-4.329682589E-1,-7.059813499E0,9.281747818E0,1.166958743E1
2.900627107E1,-5.685166717E-1,-4.627058029E0,1.032478333E1,1.132846097E1
2.902562983E1,-1.932901144E-2,3.185052872E-1,5.915675163E0,5.924274797E0
2.904500850E1,4.531515837E-1,4.754702568E0,1.853421211E0,5.123252195E0
2.906441768E1,-2.795529366E-1,9.276927948E0,-1.293052435E0,9.370780469E0
2.908376582E1,-1.151188016E0,1.232729244E1,-5.896288872E0,1.371326348E1
2.910314448E1,-6.321278811E-1,1.266651726E1,-7.238911152E0,1.460281068E1
2.912252314E1,4.150112867E-1,1.207706738E1,-4.752335072E0,1.298508681E1
2.914187129E1,1.632246852E0,1.274147511E1,-9.094741344E-1,1.287775450E1
2.916124995E1,2.321066618E0,1.500156975E1,2.130732775E0,1.532887691E1
2.918062861E1,2.511211634E0,1.658243942E1,3.138274670E0,1.706259796E1
2.919997676E1,3.364030123E0,1.461353970E1,2.780655146E0,1.525136991E1
2.921935542E1,3.978507996E0,1.079818439E1,2.000961781E0,1.168046061E1
2.923870356E1,3.510649681E0,8.873156548E0,5.311977863E-1,9.557182607E0
2.925808223E1,3.000468016E0,8.078839302E0,-6.198315620E-1,8.640291890E0
2.927749141E1,2.488628149E0,8.060693741E0,-8.064974546E-1,8.474579151E0
2.929680903E1,2.086408854E0,9.896255493E0,4.004395008E-2,1.011388047E1
2.931618770E1,2.434464216E0,1.095238686E1,1.153387189E0,1.127881624E1
2.933556636E1,2.913309097E0,1.042335320E1,2.239234447E0,1.105205106E1
2.935494502E1,3.160066366E0,9.582275391E0,2.588709354E0,1.041669032E1
2.937432368E1,3.187523365E0,9.318361282E0,2.860635757E0,1.025550580E1
2.939367183E1,2.962239265E0,8.826696396E0,2.700417042E0,9.694208732E0
2.941305049E1,2.599056721E0,8.346002579E0,1.885945320E0,8.942463007E0
2.943242915E1,2.544430017E0,7.831760406E0,9.130855799E-1,8.285186809E0
2.945177729E1,3.505590916E0,5.626457214E0,-5.071663857E-2,6.629386143E0
2.947115596E1,9.797118187E0,-2.908993340E1,4.286516666E0,3.099325693E1
2.949053462E1,-5.970510006E0,-1.282717133E2,2.780289412E0,1.284406844E2
2.950991328E1,-2.131457329E0,-3.611420441E1,-1.269814491E0,3.619932733E1
2.952926142E1,1.605149865E0,-6.684348106E0,3.995455980E0,7.951143577E0
2.954860957E1,7.956838608E-2,1.951791763E0,6.068049908E0,6.374719751E0
2.956798823E1,-1.009519577E0,5.068781853E0,5.776408195E0,7.751036762E0
2.958736689E1,-1.055413485E0,6.145773888E0,7.654642105E0,9.873093743E0
2.960671504E1,-1.143506527E0,7.459882736E0,7.522178173E0,1.065554419E1
2.962612422E1,-9.149594307E-1,8.855298042E0,5.442197800E0,1.043412531E1
2.964550288E1,-7.866144776E-1,1.026111698E1,3.408797264E0,1.084108771E1
2.966485102E1,-5.688351393E-1,1.093102551E1,1.780513763E0,1.108968535E1
2.968422969E1,-4.216556549E-1,1.087431908E1,5.915169716E-1,1.089855501E1
2.970360835E1,-4.575651884E-1,1.100561523E1,6.615376472E-2,1.101532155E1
2.972295649E1,-3.357385397E-1,1.098959351E1,-1.211442947E-1,1.099538820E1
2.974233516E1,-2.097094059E-2,1.074121952E1,5.234091282E-1,1.075398501E1
2.976168330E1,1.914454699E-1,1.059059620E1,1.199080944E0,1.065998003E1
2.978106196E1,3.957304955E-1,1.090288067E1,1.999565840E0,1.109178403E1
2.980044062E1,8.531117439E-1,1.123666668E1,2.744919300E0,1.159849385E1
2.981978877E1,1.430906415E0,1.060363674E1,2.527419329E0,1.099420092E1
2.983916743E1,1.950602412E0,8.187502861E0,6.601336002E-1,8.442501362E0
2.985854609E1,2.586500168E0,6.358148575E0,-6.043192148E-1,6.890663113E0
2.987789424E1,3.111623526E0,4.965560913E0,4.048315287E-1,5.873915620E0
2.989727290E1,3.566875696E0,-8.167155266E0,4.965498924E0,1.020201975E1
2.991665156E1,1.214735270E0,-7.847458649E1,1.456136131E1,7.982336468E1
2.993603022E1,-5.755559444E0,-6.596761322E1,3.596825838E0,6.631583231E1
2.995540889E1,2.490376234E-1,-2.115299797E1,2.981978893E0,2.136360318E1
2.997475703E1,-1.629473925E0,-8.950519562E0,2.228204727E0,9.366529881E0
2.999413569E1,-3.533908844E0,-8.885026932E0,3.381492615E0,1.014232259E1
3.001351436E1,-1.987185597E0,-8.528201103E0,8.373728752E0,1.211604118E1
