"Time (s)","Linear Acceleration x (m/s^2)","Linear Acceleration y (m/s^2)","Linear Acceleration z (m/s^2)","Absolute acceleration (m/s^2)"
1.607616460E-1,-3.666162014E0,-7.880104065E0,-1.062520862E0,8.755897131E0
1.801403080E-1,-3.772877693E0,-8.431328773E0,-6.947727203E-1,9.263078328E0
1.994884530E-1,-3.883870125E0,-8.889039040E0,-1.196053028E-1,9.701225058E0
2.188671150E-1,-4.006875515E0,-9.198396683E0,6.930637956E-1,1.005713132E1
2.382152590E-1,-4.140774250E0,-9.237077713E0,1.477326751E0,1.022996141E1
2.575939210E-1,-4.721974373E0,-9.148366928E0,1.031291723E0,1.034665270E1
2.769725830E-1,-5.126286507E0,-9.233902931E0,-1.435679436E0,1.065856239E1
2.963207280E-1,-5.500880718E0,-1.123402691E1,-7.900227547E0,1.479448021E1
3.156993900E-1,-4.372745514E0,-1.624784279E1,-2.149488258E1,2.729731261E1
3.350780520E-1,-4.214601517E-1,-1.185499954E1,-4.098294449E1,4.266521278E1
3.544567140E-1,9.024510384E-1,-2.012208939E0,-4.898286438E1,4.903248317E1
3.738353760E-1,-3.298833370E0,1.091331482E0,-3.993541336E1,4.008628876E1
3.931835210E-1,-7.256314278E0,-5.718213081E0,-3.517123032E1,3.636437130E1
4.125621830E-1,-6.089937687E0,-1.222520351E1,-2.444425583E1,2.800115328E1
4.319408450E-1,-4.430949211E0,-1.293429279E1,-1.301843739E1,1.887879638E1
4.512889900E-1,-4.434456825E0,-1.199855232E1,-5.161792755E0,1.379397585E1
4.706676520E-1,-5.945606709E0,-1.056194019E1,-1.062215567E-1,1.212089530E1
4.900157960E-1,-6.644161224E0,-9.633967400E0,2.235788822E0,1.191456914E1
5.093944580E-1,-5.880843639E0,-9.796721458E0,3.353705883E0,1.190829192E1
5.287731200E-1,-4.693365574E0,-9.359445572E0,2.823381186E0,1.084427882E1
5.481212650E-1,-4.054364204E0,-8.404137611E0,1.969477415E0,9.536573776E0
5.674999270E-1,-3.779926777E0,-7.514369011E0,1.085847735E0,8.481312008E0
5.868785890E-1,-4.077605247E0,-6.869914055E0,7.541993260E-2,7.989259781E0
6.062267340E-1,-4.462660789E0,-6.703399658E0,-1.045587659E0,8.120601077E0
6.256053960E-1,-4.618596077E0,-6.905820847E0,-1.820207715E0,8.504995439E0
6.449840580E-1,-4.449457169E0,-7.327474594E0,-2.437820196E0,8.912492375E0
6.643627200E-1,-4.347768307E0,-7.440893173E0,-3.973507881E0,9.489928627E0
6.837413820E-1,-3.835569859E0,-8.182490349E0,-6.921978474E0,1.138325658E1
7.030895270E-1,-4.000049591E0,-9.737306595E0,-1.342478180E1,1.705990336E1
7.224681890E-1,-4.265586853E0,-1.329997158E1,-2.325418282E1,2.712639846E1
7.418313170E-1,-2.741493225E0,-1.443534756E1,-3.252135849E1,3.568660536E1
7.611794610E-1,-2.631459236E-1,-1.312621689E1,-3.573696899E1,3.807227034E1
7.805581240E-1,7.389140129E-1,-1.375697136E1,-3.528523636E1,3.787938964E1
7.999062680E-1,-1.392566681E0,-1.414020634E1,-2.995480347E1,3.315380714E1
8.192849300E-1,-5.564506054E0,-1.331414413E1,-2.656734467E1,3.023332539E1
8.386635920E-1,-7.630325794E0,-1.129086399E1,-2.509026337E1,2.855217675E1
8.580117370E-1,-6.367687225E0,-7.956755638E0,-2.222034454E1,2.444588130E1
8.773903990E-1,-4.317196846E0,-7.395017624E0,-1.599444008E1,1.814239752E1
8.967385440E-1,-3.915360451E0,-7.930982590E0,-8.157204628E0,1.203206215E1
9.161172060E-1,-4.427506447E0,-8.467237473E0,-1.733916759E0,9.710993311E0
9.355263850E-1,-4.863412380E0,-9.392648697E0,3.221400738E0,1.105676500E1
9.548745300E-1,-5.259078979E0,-9.614086151E0,5.913542271E0,1.245225066E1
9.742531920E-1,-5.471814632E0,-9.509550095E0,6.135730267E0,1.257058011E1
9.936318540E-1,-5.225305557E0,-8.729029655E0,4.077424049E0,1.096016258E1
1.012979999E0,-5.052671909E0,-7.935999870E0,1.476746559E0,9.523149047E0
1.032358661E0,-4.879333019E0,-7.064027786E0,-9.995059967E-1,8.643343769E0
1.051706805E0,-5.049587250E0,-6.634426117E0,-2.416171312E0,8.680542904E0
1.071085467E0,-5.194158554E0,-6.747701645E0,-2.469049215E0,8.866056880E0
1.090464129E0,-5.200914383E0,-7.265884399E0,-1.513616323E0,9.062760115E0
1.109812274E0,-4.857808113E0,-7.905467033E0,-5.771484375E-1,9.296655796E0
1.129190936E0,-4.000866413E0,-8.433843613E0,2.787801027E-1,9.338863340E0
1.148539081E0,-3.410932064E0,-8.743940353E0,5.697798729E-1,9.402956958E0
1.167917743E0,-3.401960373E0,-8.458984375E0,3.122671247E-1,9.122788049E0
1.187296405E0,-3.539379120E0,-7.717290878E0,-6.898846626E-1,8.518199569E0
1.206675067E0,-3.626371384E0,-7.694726944E0,-4.044600487E0,9.419033138E0
1.226053729E0,-4.268738747E0,-8.368928909E0,-1.062145519E1,1.418014147E1
1.245432391E0,-4.467491150E0,-1.113282681E1,-2.091402054E1,2.411005112E1
1.264780536E0,-2.914039612E0,-1.247918701E1,-2.943006134E1,3.209906924E1
1.284159198E0,-1.364345074E0,-1.276622486E1,-3.212263489E1,3.459337519E1
1.303507342E0,4.066195488E-1,-1.263030148E1,-3.296771622E1,3.530665897E1
1.322886004E0,7.432155609E-1,-1.037173462E1,-3.304537201E1,3.464277500E1
1.342264667E0,-3.817749023E-2,-1.006130695E1,-2.938966179E1,3.106418477E1
1.361612811E0,-1.753224850E0,-1.143584919E1,-2.359298706E1,2.627701434E1
1.380991473E0,-3.891075134E0,-1.104425335E1,-1.658043671E1,2.029844524E1
1.400339618E0,-5.668243885E0,-9.912518501E0,-9.192002296E0,1.465878296E1
1.419718280E0,-5.764831543E0,-9.417423248E0,-2.903661251E0,1.141719720E1
1.439096942E0,-4.831080437E0,-9.988247871E0,1.284322262E0,1.116932932E1
1.458445086E0,-4.192982197E0,-1.008474159E1,2.820840359E0,1.128008214E1
1.477823749E0,-4.273317814E0,-9.609175682E0,3.188966513E0,1.098940444E1
1.497202411E0,-4.283907413E0,-8.620273590E0,2.622817755E0,9.976981130E0
1.516581073E0,-4.270308495E0,-7.661236763E0,1.381903172E0,8.879174497E0
1.535959735E0,-4.171393394E0,-6.790025711E0,1.045967937E-1,7.969687102E0
1.555307879E0,-4.279748917E0,-6.407372475E0,-9.679889679E-1,7.765801662E0
1.574686542E0,-4.618490696E0,-6.617934227E0,-1.542293906E0,8.216214471E0
1.594065204E0,-4.671711445E0,-6.508616447E0,-1.979823828E0,8.252677037E0
1.613413348E0,-4.543191433E0,-6.323145866E0,-3.187782764E0,8.413365617E0
1.632792010E0,-3.944231033E0,-6.935682297E0,-6.942152500E0,1.057611123E1
1.652170672E0,-3.548196793E0,-8.092461586E0,-1.333064938E1,1.599324382E1
1.671518817E0,-1.919417858E0,-1.083041859E1,-2.278365707E1,2.529974627E1
1.690897479E0,-1.729221344E-1,-1.197487640E1,-3.139086151E1,3.359782364E1
1.710245624E0,4.591870308E-1,-1.275432968E1,-3.668811417E1,3.884458134E1
1.729624286E0,-1.876883507E-1,-1.330990982E1,-3.885242462E1,4.106945124E1
1.749002948E0,-3.348077297E0,-1.179008675E1,-3.831120682E1,4.022392739E1
1.768351092E0,-5.860069275E0,-1.117979336E1,-3.486349869E1,3.707818405E1
1.787760272E0,-4.986352921E0,-1.010309887E1,-2.844388199E1,3.059396582E1
1.807108417E0,-3.637737751E0,-7.186029434E0,-2.023341179E1,2.177758268E1
1.826487079E0,-3.513296604E0,-5.815899849E0,-1.209019089E1,1.386869351E1
1.845865741E0,-4.111520290E0,-6.538267136E0,-4.209549904E0,8.796240483E0
1.865213885E0,-4.626152515E0,-7.687560081E0,1.817439318E0,9.154395271E0
1.884592547E0,-5.185674191E0,-8.823580742E0,5.109717369E0,1.143923098E1
1.903971210E0,-5.969517708E0,-9.232504845E0,5.666107178E0,1.236847031E1
1.923319354E0,-6.078974724E0,-8.896991730E0,4.460453987E0,1.166216298E1
1.942698016E0,-5.195121288E0,-8.185865402E0,2.162679195E0,9.933521978E0
1.962046161E0,-4.448961735E0,-7.169460297E0,-3.908916712E-1,8.446728228E0
1.981424823E0,-4.398181915E0,-6.253712654E0,-2.434856176E0,8.023805252E0
2.000803485E0,-4.293426037E0,-6.233901978E0,-3.099681139E0,8.179429330E0
2.020151629E0,-3.690137386E0,-7.005264282E0,-2.692098856E0,8.362908456E0
2.039530292E0,-3.034786701E0,-8.010759354E0,-1.883678913E0,8.771000057E0
2.058878436E0,-2.929349661E0,-8.663555145E0,-6.488400698E-1,9.168384298E0
2.078287616E0,-3.073684454E0,-8.946372986E0,6.903941631E-1,9.484817859E0
2.097666278E0,-3.216123104E0,-8.829430580E0,1.522270441E0,9.519432729E0
2.117014422E0,-3.616505384E0,-8.482997894E0,1.507061005E0,9.344067495E0
2.136393085E0,-3.952585936E0,-7.970902443E0,6.808335781E-1,8.923102358E0
2.155771747E0,-3.797649860E0,-8.490662575E0,-1.257024765E0,9.385819446E0
2.175119891E0,-4.157356262E0,-9.877628326E0,-5.856213093E0,1.221255028E1
2.194498553E0,-4.476411343E0,-1.256400871E1,-1.829965973E1,2.264442800E1
2.213846698E0,-2.580658197E0,-1.275469875E1,-3.302898788E1,3.550008701E1
2.233225360E0,-5.992665291E-1,-1.321372890E1,-3.679429626E1,3.909964181E1
2.252604022E0,7.592730522E-1,-1.397552013E1,-3.522518921E1,3.790389971E1
2.271952167E0,-9.417517185E-1,-1.297506428E1,-3.348676300E1,3.592495631E1
2.291330829E0,-3.726386070E0,-1.436705971E1,-2.971169853E1,3.321269919E1
2.310678973E0,-2.759837151E0,-1.616782761E1,-2.378049469E1,2.888818579E1
2.330057635E0,-2.030965567E0,-1.341776466E1,-1.644506073E1,2.132138016E1
2.349436297E0,-3.178220272E0,-9.479907036E0,-8.225788116E0,1.294732836E1
2.368814960E0,-4.290857315E0,-8.205546379E0,-8.656929731E-1,9.300100655E0
2.388193622E0,-4.298439980E0,-8.102055550E0,3.537968159E0,9.830417543E0
2.407572284E0,-4.301772594E0,-8.221179008E0,4.776939392E0,1.043609993E1
2.426920428E0,-4.411664486E0,-7.984719276E0,4.700587273E0,1.026226321E1
2.446299090E0,-4.182732582E0,-7.514388084E0,4.272591114E0,9.602932623E0
2.465647235E0,-3.594904661E0,-7.206267357E0,3.274413109E0,8.693411870E0
2.485025897E0,-3.410897255E0,-6.843702316E0,1.261694908E0,7.749990679E0
2.504404559E0,-3.863099098E0,-6.363255501E0,-9.781382680E-1,7.508082957E0
2.523752704E0,-4.140507221E0,-6.386896133E0,-2.795855284E0,8.108825380E0
2.543131366E0,-4.284261227E0,-6.848074913E0,-3.654532671E0,8.866038197E0
2.562510028E0,-4.549912930E0,-8.271270752E0,-3.899631739E0,1.021385115E1
2.581858172E0,-4.942992687E0,-9.818568230E0,-5.597863197E0,1.233586362E1
2.601236835E0,-5.083586216E0,-1.117911053E1,-1.091865540E1,1.643266249E1
2.620584979E0,-4.176290989E0,-1.267920303E1,-2.002806091E1,2.406920896E1
2.639994159E0,-3.286724567E0,-1.566249657E1,-3.095438766E1,3.484667090E1
2.659372821E0,-1.401154041E0,-1.660134125E1,-3.561375427E1,3.931802713E1
2.678720965E0,-7.509560585E-1,-1.801877594E1,-3.344713974E1,3.799936023E1
2.698099627E0,-2.670105457E0,-1.724200821E1,-3.219401169E1,3.661790134E1
2.717447772E0,-3.319613457E0,-1.454035091E1,-3.015024185E1,3.363746010E1
2.736826434E0,-2.386057854E0,-1.289640522E1,-2.431744576E1,2.762876595E1
2.756205096E0,-1.990007877E0,-1.038771820E1,-1.653983116E1,1.963239251E1
2.775553241E0,-1.685630798E0,-8.670387268E0,-1.101771259E1,1.412115283E1
2.794931903E0,-2.763513327E0,-7.674082756E0,-8.216490746E0,1.157753308E1
2.814310565E0,-3.714265823E0,-7.443846703E0,-3.734386444E0,9.118786457E0
2.833658710E0,-4.525751591E0,-7.912909508E0,1.311809421E0,9.209636708E0
2.853037372E0,-5.105605125E0,-8.497795105E0,5.055351734E0,1.112817624E1
2.872385516E0,-5.312314510E0,-8.637645721E0,6.155861855E0,1.186272499E1
2.891764178E0,-5.089632034E0,-8.412624359E0,5.517057896E0,1.127450800E1
2.911142840E0,-4.634886265E0,-7.611995697E0,3.309599400E0,9.506739576E0
2.930521502E0,-4.190575600E0,-6.834592819E0,1.144340396E0,8.098277459E0
2.949900165E0,-3.983866930E0,-6.645573616E0,-4.525525272E-1,7.761420501E0
2.969248309E0,-3.785784960E0,-7.057485580E0,-1.023199081E0,8.073859476E0
2.988626971E0,-3.538202524E0,-7.879388809E0,-7.952235341E-1,8.673870277E0
3.008005633E0,-3.303658962E0,-8.801467896E0,-4.647367597E-1,9.412543753E0
3.027353778E0,-3.202269316E0,-9.335052490E0,-2.895292938E-1,9.873275089E0
3.046732440E0,-3.364548445E0,-9.588657379E0,8.486659825E-2,1.016217196E1
3.066111102E0,-4.086122513E0,-9.064899445E0,1.949902624E-1,9.945190814E0
3.085459247E0,-3.917886019E0,-8.579781532E0,-6.607718468E-1,9.455109805E0
3.104837909E0,-3.725197792E0,-8.672375679E0,-3.082951069E0,9.929339646E0
3.124186053E0,-4.007160187E0,-8.327528954E0,-7.286613464E0,1.176859410E1
3.143564715E0,-3.036049604E0,-9.796087265E0,-1.461415863E1,1.785369865E1
3.162943377E0,-2.706562519E0,-1.360124397E1,-2.284440422E1,2.672426093E1
3.182291522E0,-1.748749018E0,-1.619137001E1,-2.906966209E1,3.332062185E1
3.201670184E0,1.205466986E0,-1.112940407E1,-3.722139740E1,3.886835744E1
3.221079364E0,1.260612488E0,-4.968454361E0,-4.268663788E1,4.299329873E1
3.240427508E0,-1.748502254E-1,-9.401748657E0,-4.179024887E1,4.283512987E1
3.259806170E0,-4.509222507E-1,-1.422105312E1,-3.168997765E1,3.473753540E1
3.279154315E0,-2.340619326E0,-1.296944809E1,-2.030964851E1,2.421088403E1
3.298532977E0,-4.013391972E0,-1.064655304E1,-9.870610237E0,1.506271400E1
3.317911639E0,-4.752438545E0,-9.341276169E0,-1.888081789E0,1.064941151E1
3.337259784E0,-5.048754692E0,-8.198849678E0,3.088928461E0,1.011199975E1
3.356638446E0,-4.866323471E0,-7.930903435E0,4.686016560E0,1.041820928E1
3.375986590E0,-4.530433655E0,-8.172176361E0,4.206480980E0,1.024713510E1
3.395365252E0,-4.396837234E0,-7.889315605E0,3.075946331E0,9.541222365E0
3.414743915E0,-4.115516663E0,-7.532700539E0,1.600708723E0,8.731627753E0
3.434092059E0,-3.783689976E0,-7.630841255E0,4.978901446E-1,8.531936632E0
3.453470721E0,-3.391660213E0,-7.913581848E0,1.636407673E-1,8.611324809E0
3.472849383E0,-3.283127785E0,-8.265147209E0,-7.554733753E-2,8.893665939E0
3.492228045E0,-3.382178545E0,-8.450765610E0,-1.725430489E-1,9.104083820E0
3.511606708E0,-3.375741482E0,-8.051971436E0,-2.491667271E-1,8.734526811E0
3.530954852E0,-3.157647610E0,-7.772953033E0,-1.400662184E0,8.505962135E0
3.550333514E0,-2.316849232E0,-8.226496696E0,-4.603859901E0,9.707654931E0
3.569712176E0,-1.577741385E0,-8.920330048E0,-1.111568260E1,1.433945451E1
3.589060321E0,-1.440624714E0,-1.020181751E1,-2.178316116E1,2.409685852E1
3.608438983E0,-2.484101534E0,-1.255641747E1,-3.041686821E1,3.300030684E1
3.627787127E0,-1.961480856E0,-1.500518322E1,-3.554365158E1,3.863099919E1
3.647165790E0,-9.891514778E-1,-1.535383797E1,-3.508502197E1,3.831027966E1
3.666544452E0,-2.829604149E-1,-1.470557022E1,-3.417285156E1,3.720373161E1
3.685892596E0,-1.361195087E0,-8.426778793E0,-3.038011551E1,3.155653453E1
3.705271258E0,-2.471909046E0,-4.114068985E0,-2.582512665E1,2.626733836E1
3.724649920E0,-3.206648588E0,-3.578348160E0,-2.103730011E1,2.157904462E1
3.743998065E0,-1.636633873E0,-6.222754478E0,-1.497105503E1,1.629520581E1
3.763376727E0,-2.004619837E0,-8.584446907E0,-8.576687813E0,1.229921962E1
3.782755389E0,-4.463024139E0,-9.484674454E0,-1.859278798E0,1.064587017E1
3.802134051E0,-6.388706207E0,-1.037834740E1,3.761746883E0,1.275446594E1
3.821512713E0,-7.004072189E0,-1.075769138E1,6.047101974E0,1.418986939E1
3.840860858E0,-6.167315483E0,-1.008015347E1,5.275593281E0,1.294129664E1
3.860239520E0,-5.143891335E0,-8.845186234E0,3.243335247E0,1.073387913E1
3.879587665E0,-4.209342480E0,-7.367761612E0,1.709265351E0,8.655868721E0
3.898966327E0,-4.108253956E0,-7.059839249E0,1.367814541E0,8.281907836E0
3.918344989E0,-3.977090359E0,-7.164900780E0,8.995078802E-1,8.243916868E0
3.937693133E0,-3.692775249E0,-7.323517799E0,6.970137358E-2,8.202155831E0
3.957071795E0,-3.442443132E0,-7.423908234E0,-2.907561064E-1,8.188367804E0
3.976450458E0,-3.144104719E0,-7.777076721E0,2.318516970E-1,8.391785985E0
3.995798602E0,-3.031991720E0,-8.336256027E0,1.786480665E0,9.048627051E0
4.015177264E0,-3.516714573E0,-8.857428551E0,2.542411804E0,9.863324982E0
4.034525409E0,-3.935729742E0,-8.914746284E0,2.898407459E0,1.016678099E1
4.053904071E0,-4.306527138E0,-8.443217278E0,2.141634941E0,9.717031141E0
4.073313251E0,-4.097945690E0,-8.047649384E0,-4.320238829E-1,9.041264520E0
4.092661395E0,-4.055322647E0,-8.348094940E0,-5.656696320E0,1.086897162E1
4.112040057E0,-4.464467049E0,-1.048997593E1,-1.335305691E1,1.755776722E1
4.131418719E0,-2.767570496E0,-1.336641693E1,-2.135584450E1,2.534546591E1
4.150766864E0,-9.786753654E-1,-1.734939575E1,-2.761739922E1,3.262943576E1
4.170176044E0,3.257932663E-1,-1.860177231E1,-3.143871498E1,3.653114936E1
4.189493670E0,1.104418755E0,-1.404988861E1,-3.531753922E1,3.802561882E1
4.208872333E0,4.782047272E-1,-8.329337120E0,-3.724616241E1,3.816913873E1
4.228250995E0,-8.374857903E-1,-8.868591309E0,-3.368563080E1,3.484357927E1
4.247599139E0,-8.397970200E-1,-1.158676338E1,-2.496986389E1,2.754001539E1
4.266977801E0,-2.190731764E0,-1.163991928E1,-1.457883930E1,1.878375846E1
4.286325946E0,-4.210808754E0,-1.051872730E1,-5.822726727E0,1.273886498E1
4.305704608E0,-5.545680523E0,-9.386804581E0,2.342251837E-1,1.090511504E1
4.325083270E0,-6.011289597E0,-9.160614014E0,3.003288507E0,1.136099439E1
4.344431415E0,-5.545128822E0,-9.140009880E0,4.019742012E0,1.142132042E1
4.363840594E0,-4.229216576E0,-8.927736282E0,3.674352169E0,1.054000056E1
4.383219256E0,-3.276143551E0,-8.683426857E0,2.648584843E0,9.651425813E0
4.402597919E0,-3.156402111E0,-8.057559967E0,1.685790062E0,8.816407150E0
4.421946063E0,-3.153020382E0,-7.434742928E0,1.083218098E0,8.148024385E0
4.441294208E0,-3.212990046E0,-7.289459229E0,8.285963535E-1,8.009125595E0
4.460672870E0,-3.103681803E0,-7.583963394E0,3.299846649E-1,8.201111594E0
4.480051532E0,-2.965304375E0,-8.009984970E0,-3.666820526E-1,8.549113696E0
4.499399676E0,-3.501241207E0,-8.262710571E0,-1.492341638E0,9.097151177E0
4.518778338E0,-4.019307137E0,-9.292620659E0,-4.367187977E0,1.102633028E1
4.538126483E0,-3.421954393E0,-1.044807625E1,-9.863483429E0,1.477025303E1
4.557505145E0,-1.908731461E0,-1.173960114E1,-1.734091568E1,2.102781128E1
4.576883807E0,5.022261143E-1,-1.341720104E1,-2.335110855E1,2.693599424E1
4.596231952E0,3.012831688E0,-1.560702610E1,-2.743520737E1,3.170720773E1
4.615610614E0,1.869196415E0,-1.730004311E1,-2.849120903E1,3.338464286E1
4.635019794E0,-9.782929420E-1,-1.796510696E1,-2.890017509E1,3.404294708E1
4.654367938E0,-8.868973255E-1,-1.423476505E1,-3.040202141E1,3.358121541E1
4.673746600E0,-8.030891418E-1,-1.029607964E1,-2.871039200E1,3.051132276E1
4.693094745E0,-1.565585852E0,-9.399928093E0,-2.349950409E1,2.535816239E1
4.712473407E0,-2.146248102E0,-9.820734978E0,-1.636430931E1,1.920530749E1
4.731852069E0,-2.513777971E0,-1.010823059E1,-8.782593727E0,1.362458652E1
4.751200213E0,-3.215936184E0,-9.786184311E0,-2.476146698E0,1.059447740E1
4.770578876E0,-4.176236153E0,-9.408253670E0,2.133188009E0,1.051221559E1
4.789957538E0,-5.950688839E0,-9.224450111E0,5.518786430E0,1.228650403E1
4.809305682E0,-6.051966190E0,-8.655594826E0,7.684307098E0,1.306117116E1
4.828684344E0,-5.347553253E0,-8.754217148E0,7.633050919E0,1.278655974E1
4.848032489E0,-4.155259132E0,-9.100835800E0,5.586842060E0,1.145880425E1
4.867441669E0,-3.202179909E0,-9.064352989E0,3.634306908E0,1.027738478E1
4.886789813E0,-1.897970200E0,-8.532718658E0,1.354492307E0,8.845576747E0
4.906137958E0,-1.037981749E0,-7.487989426E0,-1.285847902E0,7.668167746E0
4.925516620E0,-1.034446478E0,-6.824359894E0,-3.083886623E0,7.559915620E0
4.944895282E0,-1.459476709E0,-6.907127380E0,-3.416690111E0,7.842974705E0
4.964273944E0,-2.173271418E0,-7.979086876E0,-2.434442997E0,8.620640854E0
4.983652606E0,-2.636272907E0,-8.598020554E0,-8.145772219E-1,9.029918512E0
5.003000751E0,-2.914920092E0,-8.835912704E0,2.646658421E-1,9.308069642E0
5.022379413E0,-3.218302488E0,-8.791701317E0,2.234808207E-1,9.364903984E0
5.041758075E0,-3.746685028E0,-9.126039505E0,-7.650939226E-1,9.894827662E0
5.061106219E0,-4.911715984E0,-1.014871883E1,-3.601999283E0,1.183620914E1
5.080484881E0,-5.814786911E0,-1.239295387E1,-1.074898243E1,1.740510488E1
5.099863544E0,-1.253520250E0,-1.623510361E1,-2.120825577E1,2.673836223E1
5.119211688E0,4.904603958E-1,-1.954043198E1,-2.816641426E1,3.428433936E1
5.138590350E0,-2.831530571E-2,-1.736695099E1,-3.379192352E1,3.799349791E1
5.157938495E0,2.055910110E0,-1.150870132E1,-3.400147247E1,3.595520968E1
5.177317157E0,2.524312735E0,-1.024287605E1,-2.977428627E1,3.158792154E1
5.196665301E0,2.857546806E-1,-1.197323227E1,-2.420394707E1,2.700501806E1
5.216074481E0,-2.031089067E0,-1.306794643E1,-1.720962143E1,2.170409216E1
5.235453143E0,-3.602282047E0,-1.217979050E1,-1.022785473E1,1.630744446E1
5.254801288E0,-4.438511848E0,-1.081064796E1,-3.992182970E0,1.234941382E1
5.274179950E0,-4.968533516E0,-9.645435333E0,4.002617598E-1,1.085729974E1
5.293558612E0,-5.085421085E0,-8.830192566E0,3.241893291E0,1.069316045E1
5.312906756E0,-4.670580864E0,-8.099370956E0,4.846233368E0,1.053091228E1
5.332285419E0,-4.062363625E0,-7.904078484E0,5.465270996E0,1.043294982E1
5.351633563E0,-3.716782093E0,-7.755537033E0,5.657525063E0,1.029419320E1
5.371012225E0,-3.650257826E0,-7.478338242E0,5.174760818E0,9.799391541E0
5.390390887E0,-3.668055296E0,-7.257191658E0,4.176609993E0,9.141418459E0
5.409739032E0,-3.788320065E0,-7.066208839E0,2.875619411E0,8.517738155E0
5.429117694E0,-3.865584850E0,-7.039827347E0,1.446082234E0,8.160457655E0
5.448496356E0,-3.546220303E0,-6.878555298E0,-4.749569893E-1,7.753437016E0
5.467844501E0,-2.914847851E0,-7.409918785E0,-3.201184988E0,8.582005577E0
5.487223163E0,-2.543028355E0,-8.639314651E0,-8.515356064E0,1.239419379E1
5.506601825E0,-2.861657143E0,-1.045778275E1,-1.720263481E1,2.033432925E1
5.525980487E0,-2.377379417E0,-1.359174728E1,-2.597817993E1,2.941518927E1
5.545359149E0,2.600140572E-1,-1.598921299E1,-3.220157242E1,3.595363411E1
5.564707294E0,1.165956974E0,-1.837644196E1,-3.531204987E1,3.982453942E1
5.584085956E0,-2.266759872E-1,-1.554892063E1,-3.930696869E1,4.227124439E1
5.603434100E0,-2.431918144E0,-1.305516911E1,-3.809191513E1,4.034037264E1
5.622812762E0,-2.858284473E0,-1.444270515E1,-3.062091255E1,3.397648904E1
5.642191424E0,-2.937829494E0,-1.484507561E1,-2.128036690E1,2.611247072E1
5.661539569E0,-3.319030762E0,-1.183708668E1,-1.221758842E1,1.733211046E1
5.680918231E0,-4.292452812E0,-8.751515388E0,-4.444870949E0,1.071312515E1
5.700296893E0,-5.811937809E0,-6.975271225E0,4.821173847E-1,9.092055154E0
5.719645038E0,-7.330960751E0,-6.481518745E0,3.672183990E0,1.045169872E1
5.739023700E0,-7.766915798E0,-6.822392464E0,5.552417278E0,1.173453696E1
5.758371844E0,-7.351323128E0,-7.181546211E0,5.688144207E0,1.174612882E1
5.777750506E0,-6.626935005E0,-7.199541092E0,4.541818619E0,1.078785316E1
5.797159686E0,-5.892902851E0,-7.154039383E0,2.933572531E0,9.721750424E0
5.816507831E0,-5.086277008E0,-7.121411324E0,1.711518049E0,8.917062693E0
5.835886493E0,-4.104970932E0,-7.292929649E0,8.304088116E-1,8.409945780E0
5.855234637E0,-3.387675762E0,-7.239278793E0,5.621850491E-2,7.992913426E0
5.874613299E0,-3.245762348E0,-6.910578728E0,-3.718004227E-1,7.643906536E0
5.893991961E0,-3.649266243E0,-6.950991631E0,-4.886872768E-1,7.865891177E0
5.913340106E0,-4.186634064E0,-7.577411652E0,-9.983396530E-2,8.657657821E0
5.932718768E0,-4.484400749E0,-8.072457314E0,5.319343805E-1,9.249722771E0
5.952097430E0,-4.590826035E0,-8.461637497E0,1.179336309E0,9.698753886E0
5.971445575E0,-4.749167919E0,-8.460656166E0,1.672780633E0,9.845582448E0
5.990824237E0,-4.925322056E0,-8.084692001E0,1.210204840E0,9.543879602E0
6.010172381E0,-5.722716331E0,-8.287674904E0,-9.266232252E-1,1.011403323E1
6.029551044E0,-6.166261673E0,-8.287421227E0,-5.003376007E0,1.147771341E1
6.048929706E0,-6.241154671E0,-1.055030346E1,-1.357056332E1,1.828718413E1
6.068308368E0,-3.676273823E0,-1.234089661E1,-2.431081009E1,2.751051082E1
6.087687030E0,2.358746529E-1,-1.311737633E1,-3.065515709E1,3.334456260E1
6.107065692E0,2.553222656E0,-1.063052559E1,-3.568926620E1,3.732627416E1
6.126413836E0,1.296098232E0,-1.090172768E1,-3.257900238E1,3.437904788E1
6.145792499E0,-2.006832600E0,-1.257758331E1,-2.950130463E1,3.213331532E1
6.165140643E0,-5.001995564E0,-1.252303314E1,-2.350806808E1,2.710121001E1
6.184519305E0,-6.341980457E0,-1.041368866E1,-1.653196907E1,2.054194803E1
6.203897967E0,-7.948194504E0,-8.519387245E0,-1.077553844E1,1.587028619E1
6.223246112E0,-8.378837585E0,-7.897036552E0,-6.116824150E0,1.303777754E1
6.242624774E0,-7.858589649E0,-7.530220985E0,-2.090588331E0,1.108296977E1
6.261972919E0,-6.260016441E0,-7.949699402E0,1.061454415E0,1.017409514E1
6.281351581E0,-4.451442719E0,-8.380640984E0,3.346156359E0,1.006216915E1
6.300730243E0,-3.402596951E0,-8.390806198E0,3.882958889E0,9.851937089E0
6.320078387E0,-2.984580994E0,-8.129073143E0,3.164272070E0,9.219662228E0
6.339457049E0,-3.059840202E0,-7.635854721E0,1.707910419E0,8.401538989E0
6.358835711E0,-4.118611813E0,-6.698516846E0,-5.371262431E-1,7.881725433E0
6.378214374E0,-5.294119358E0,-6.269859314E0,-2.334773302E0,8.531705689E0
6.397593036E0,-5.698192596E0,-6.252528191E0,-4.205181122E0,9.447065995E0
6.416941180E0,-5.825291157E0,-6.593283176E0,-5.621926785E0,1.044085537E1
6.436319842E0,-6.404118061E0,-7.644050121E0,-8.068383217E0,1.282743303E1
6.455667987E0,-5.960937977E0,-8.266144753E0,-1.153472900E1,1.539194282E1
6.475046649E0,-4.126929760E0,-8.613759995E0,-1.739113235E1,1.984136828E1
6.494425311E0,-3.745537758E0,-9.245677948E0,-2.416200256E1,2.614027509E1
6.513773456E0,-3.081769466E0,-1.192941093E1,-2.999182320E1,3.242402823E1
6.533152118E0,-1.279133797E0,-1.459302998E1,-3.453556061E1,3.751396611E1
6.552530780E0,-8.688640594E-1,-1.394394684E1,-3.594343948E1,3.856318737E1
6.571878924E0,-2.323180676E0,-1.147512627E1,-3.395570755E1,3.591748553E1
6.591257586E0,-4.313455105E0,-1.111554337E1,-2.880377960E1,3.117401031E1
6.610636249E0,-6.609425545E0,-9.947920799E0,-2.049592781E1,2.372190319E1
6.629984393E0,-7.299321651E0,-7.975846291E0,-1.123334217E1,1.559109351E1
6.649393573E0,-6.275701523E0,-7.292530060E0,-3.150492191E0,1.012378513E1
6.668741717E0,-5.726659298E0,-7.387537956E0,2.355732441E0,9.639492679E0
6.688120379E0,-5.890672684E0,-8.106075287E0,5.469717979E0,1.141605431E1
6.707499042E0,-6.322466373E0,-8.088920593E0,6.727335930E0,1.227441510E1
6.726847186E0,-6.777225494E0,-7.511933327E0,6.877629280E0,1.223363038E1
6.746225848E0,-6.798617363E0,-6.898365974E0,5.263732910E0,1.102340852E1
6.765573993E0,-6.546329498E0,-6.521989822E0,3.233469963E0,9.790102612E0
6.784952655E0,-5.948307991E0,-6.328847885E0,1.659039021E0,8.842459725E0
6.804331317E0,-5.378150463E0,-6.298722744E0,9.252834320E-1,8.333940247E0
6.823679461E0,-4.684191704E0,-6.120796680E0,6.931995153E-1,7.738625814E0
6.843058124E0,-4.136559010E0,-6.152494431E0,7.778167725E-2,7.414199764E0
6.862436786E0,-4.473595619E0,-6.469721317E0,-7.837045193E-2,7.866161301E0
6.881784930E0,-4.926082611E0,-6.984075546E0,4.137085676E-1,8.556562155E0
6.901163592E0,-4.994752407E0,-7.251046658E0,1.181054950E0,8.883699682E0
6.920511737E0,-5.191165447E0,-7.378330231E0,1.972813249E0,9.234714279E0
6.939920917E0,-5.614884377E0,-7.034634590E0,2.320915937E0,9.295141805E0
6.959299579E0,-6.093757153E0,-6.598160744E0,1.833190441E0,9.166798167E0
6.978647723E0,-6.218983650E0,-6.880462170E0,-1.279927731E0,9.362410603E0
6.998026385E0,-6.372220039E0,-7.232557297E0,-7.991763592E0,1.252131617E1
7.017405047E0,-5.644793987E0,-1.131944656E1,-1.768417549E1,2.174220855E1
7.036753192E0,-1.114286900E0,-1.343800545E1,-2.615233612E1,2.942390712E1
7.056131854E0,5.138483047E-1,-1.341813946E1,-3.244831467E1,3.511699918E1
7.075479999E0,6.873421669E-1,-9.896551132E0,-3.612195206E1,3.745943918E1
7.094858661E0,-1.332633495E0,-7.810410023E0,-3.526473236E1,3.614387590E1
7.114237323E0,-4.017386913E0,-7.960587025E0,-3.100313377E1,3.225995423E1
7.133585467E0,-5.241672039E0,-8.955126762E0,-2.374970818E1,2.591752418E1
7.152964129E0,-5.466595173E0,-8.986806870E0,-1.591657639E1,1.907835853E1
7.172312274E0,-6.216794968E0,-9.103921890E0,-8.885995865E0,1.415947937E1
7.191690936E0,-6.447898388E0,-8.427316666E0,-3.254317284E0,1.109890268E1
7.211069598E0,-6.460989952E0,-7.828162193E0,2.465131879E-2,1.015012917E1
7.230448260E0,-6.120660305E0,-7.387480736E0,1.737596512E0,9.749697217E0
7.249826922E0,-5.292033195E0,-7.418756485E0,2.794539452E0,9.531684734E0
7.269205585E0,-4.754048347E0,-7.627939224E0,3.236251831E0,9.552997352E0
7.288553729E0,-4.548798561E0,-7.485433102E0,3.154711246E0,9.309966709E0
7.307932391E0,-4.835427284E0,-7.133925438E0,2.760035276E0,9.049422297E0
7.327280536E0,-5.194428444E0,-6.900121689E0,2.139231920E0,8.897756986E0
7.346659198E0,-5.623808384E0,-6.761478424E0,1.526297808E0,8.926051547E0
7.366037860E0,-5.990828991E0,-6.941827774E0,5.894483328E-1,9.188386919E0
7.385386004E0,-6.592338085E0,-7.342978477E0,-5.092786551E-1,9.881174986E0
7.404764667E0,-7.040533066E0,-7.673895836E0,-3.076896191E0,1.085933116E1
7.424112811E0,-6.206175804E0,-7.549614906E0,-8.894796371E0,1.321479118E1
7.443491473E0,-3.410143852E0,-6.837035179E0,-1.766081810E1,1.924262527E1
7.462870135E0,-1.799525261E0,-6.022336960E0,-2.209349060E1,2.297017981E1
7.482218280E0,-3.830680370E0,-9.113845825E0,-2.625997543E1,2.805926955E1
7.501596942E0,-6.407757759E0,-1.174989223E1,-3.284554672E1,3.546758050E1
7.521006122E0,-5.371347427E0,-1.049906063E1,-3.662860870E1,3.848034073E1
7.540354266E0,-3.388101578E0,-9.933025360E0,-3.481520844E1,3.636265892E1
7.559732928E0,-2.599520683E0,-1.105550098E1,-2.977128029E1,3.186394106E1
7.579081073E0,-2.707551479E0,-1.063159847E1,-2.327970314E1,2.573531230E1
7.598459735E0,-2.405097961E0,-9.004437447E0,-1.735307121E1,1.969754986E1
7.617838397E0,-1.943150282E0,-7.987947464E0,-1.169886303E1,1.429848013E1
7.637186542E0,-2.003495216E0,-7.519975662E0,-6.093370914E0,9.883986855E0
7.656565204E0,-2.276860952E0,-7.844794273E0,-1.072080851E0,8.238583030E0
7.675943866E0,-2.895184040E0,-8.123857498E0,2.961338997E0,9.118589799E0
7.695292010E0,-3.651798248E0,-8.645357132E0,5.373260498E0,1.081433118E1
7.714670672E0,-3.656732559E0,-8.744940758E0,6.541308403E0,1.151670081E1
7.734018817E0,-2.683398724E0,-8.558229446E0,6.822202682E0,1.126882289E1
7.753397479E0,-2.080523729E0,-8.087480545E0,6.216385365E0,1.041054117E1
7.772776141E0,-1.935282826E0,-7.461276054E0,5.227322578E0,9.313477402E0
7.792154803E0,-1.541210651E0,-7.096032143E0,3.935598135E0,8.259414938E0
7.811533465E0,-8.144490719E-1,-7.124657631E0,2.905166388E0,7.737187175E0
7.830881610E0,2.814437747E-1,-7.245032310E0,2.321017265E0,7.612937996E0
7.850260272E0,1.221454144E0,-7.625341415E0,2.042566776E0,7.988107471E0
7.869638934E0,1.419928312E0,-8.136256218E0,2.100879431E0,8.522238910E0
7.888987079E0,1.384360194E0,-8.757746696E0,2.514304399E0,9.216089570E0
7.908365741E0,1.485538960E0,-9.143418312E0,2.843600988E0,9.689942776E0
7.927744403E0,1.434619427E0,-8.987179756E0,2.310085058E0,9.389570056E0
7.947092547E0,1.491485119E0,-8.875933647E0,-4.925606251E-1,9.013841686E0
7.966471210E0,1.022342443E0,-9.127112389E0,-5.847001076E0,1.088746004E1
7.985819354E0,1.081506133E0,-1.091748142E1,-1.545458984E1,1.895271493E1
8.005198016E0,3.471136093E0,-1.382311726E1,-2.528544235E1,2.902552241E1
8.024576678E0,6.085818768E0,-1.550720024E1,-3.111949539E1,3.529778241E1
8.043924823E0,6.979183674E0,-1.192372322E1,-3.620431137E1,3.875095279E1
8.063303485E0,6.257307529E0,-8.547095299E0,-3.530764771E1,3.686240255E1
8.082682147E0,5.853043556E0,-9.734730721E0,-2.791399765E1,3.013659513E1
8.102060809E0,6.503180027E0,-1.305439472E1,-1.911477661E1,2.404336201E1
8.121439471E0,6.442397118E0,-1.403880692E1,-1.160413933E1,1.931964362E1
8.140787616E0,5.208237648E0,-1.218835163E1,-6.095198631E0,1.458880054E1
8.160166278E0,3.477326155E0,-1.048996449E1,-2.882899761E0,1.142113230E1
8.179544940E0,2.140314102E0,-9.552442551E0,-1.177176237E-1,9.789992879E0
8.198893085E0,1.528120279E0,-9.284726143E0,1.769424200E0,9.574557595E0
8.218271747E0,1.566741943E0,-9.266060829E0,2.943762064E0,9.847857569E0
8.237619891E0,2.202670097E0,-9.509854317E0,3.223241806E0,1.027999866E1
8.256998553E0,2.896013498E0,-9.110905647E0,2.882901192E0,9.985319984E0
8.276377215E0,3.072108984E0,-8.405800819E0,2.132633686E0,9.200188447E0
8.295725360E0,3.221712828E0,-7.713021278E0,9.485213757E-1,8.412480228E0
8.315104022E0,3.478275061E0,-7.229217529E0,-4.894378185E-1,8.037383459E0
8.334482684E0,3.836876631E0,-6.952880859E0,-1.833576918E0,8.150225692E0
8.353830829E0,4.485809326E0,-7.288005829E0,-2.026358366E0,8.794523438E0
8.373240008E0,5.146918297E0,-7.658689499E0,-2.757619858E0,9.630719603E0
8.392588153E0,6.068797112E0,-8.061935425E0,-5.163906097E0,1.133538828E1
8.411966815E0,6.491045952E0,-9.334592819E0,-9.641067505E0,1.490699444E1
8.431345477E0,5.242770195E0,-1.297266388E1,-1.439713955E1,2.007621166E1
8.450693622E0,4.067658901E0,-1.740489960E1,-1.888371658E1,2.600136787E1
8.470072284E0,5.340303421E0,-1.797763062E1,-2.453020096E1,3.087790152E1
8.489420428E0,9.392476082E0,-1.505765915E1,-3.099041367E1,3.571214703E1
8.508799090E0,1.162799740E1,-1.398721027E1,-3.194044685E1,3.675655751E1
8.528177752E0,8.252063751E0,-1.465635395E1,-2.884764481E1,3.339299145E1
8.547525897E0,5.194980145E0,-1.415122414E1,-2.376786995E1,2.814527678E1
8.566904559E0,3.424587727E0,-1.317787075E1,-1.678226471E1,2.161084189E1
8.586283221E0,1.967800260E0,-1.285978794E1,-9.936049461E0,1.636983392E1
8.605631366E0,1.230342507E0,-1.155880547E1,-3.957811117E0,1.227941348E1
8.625010028E0,6.499005556E-1,-1.021293449E1,3.330960274E-1,1.023901141E1
8.644388690E0,-4.193305969E-3,-9.358576775E0,3.383863926E0,9.951558265E0
8.663767352E0,-5.332815647E-1,-8.845086098E0,5.090910912E0,1.021945748E1
8.683146014E0,-3.225821257E-1,-8.894734383E0,5.447116852E0,1.043510618E1
8.702494159E0,5.445803404E-1,-9.320227623E0,4.635570526E0,1.042361381E1
8.721872821E0,1.343194246E0,-9.544114113E0,3.700716734E0,1.032422342E1
8.741220965E0,1.965239048E0,-9.261836052E0,2.641503572E0,9.829614066E0
8.760599627E0,2.183507442E0,-8.429327011E0,1.524910927E0,8.840057237E0
8.779978290E0,2.021734715E0,-7.736955643E0,1.031990528E0,8.063057629E0
8.799326434E0,1.676671028E0,-7.288194656E0,1.318360806E0,7.593884533E0
8.818705096E0,1.482597828E0,-7.423337936E0,1.991479874E0,7.827517775E0
8.838083758E0,1.740882158E0,-7.967164993E0,2.814371109E0,8.627112695E0
8.857431903E0,1.775443792E0,-8.339228630E0,3.317399502E0,9.148774468E0
8.876810565E0,1.196194887E0,-8.141242027E0,3.427305222E0,8.913872617E0
8.896158710E0,5.733161569E-1,-7.698194504E0,3.174855709E0,8.346891566E0
8.915537372E0,8.626108170E-1,-7.095659256E0,1.697839022E0,7.346777187E0
8.934916034E0,7.419922948E-1,-7.187164307E0,-1.963149309E0,7.487311837E0
8.954294696E0,-9.155400991E-1,-7.815074921E0,-8.122684479E0,1.130891740E1
8.973673358E0,-1.653343439E0,-1.197607708E1,-1.602233505E1,2.007175098E1
8.993052020E0,-3.573191762E-1,-1.566855812E1,-1.963196373E1,2.512061684E1
9.012400165E0,6.020491600E0,-1.890396118E1,-2.415443802E1,3.125768615E1
9.031778827E0,1.275656223E1,-1.705449295E1,-2.984202766E1,3.666240888E1
9.051126971E0,7.891742706E0,-1.256091690E1,-3.153849411E1,3.485301776E1
9.070505633E0,1.653443456E0,-1.164624119E1,-3.026393127E1,3.246959109E1
9.089884295E0,-9.201971292E-1,-1.275904369E1,-2.395124435E1,2.715330670E1
9.109232440E0,-2.039562225E0,-1.222764969E1,-1.655278015E1,2.068017799E1
9.128611102E0,-2.039925098E0,-1.094750500E1,-8.461342812E0,1.398583148E1
9.147959247E0,-1.682116508E0,-9.224179268E0,-1.960080385E0,9.578982943E0
9.167337909E0,-1.305084229E0,-8.497772217E0,2.398476124E0,8.925696903E0
9.186716571E0,-1.028380156E0,-8.573686600E0,5.188658237E0,1.007411743E1
9.206064715E0,-6.593831182E-1,-9.044309616E0,6.452822208E0,1.112983544E1
9.225473895E0,-6.677997112E-1,-9.488986969E0,7.137604237E0,1.189252809E1
9.244852557E0,-6.652272344E-1,-9.354379654E0,6.756406307E0,1.155837238E1
9.264200702E0,-3.438670039E-1,-9.029423714E0,5.957361698E0,1.082307237E1
9.283579364E0,-4.319782555E-1,-8.679884911E0,4.467620850E0,9.771726732E0
9.302927508E0,-6.834567785E-1,-8.279395103E0,2.745403767E0,8.749442170E0
9.322306170E0,-9.687100053E-1,-7.980792999E0,1.642235756E0,8.205388123E0
9.341684833E0,-8.457294703E-1,-7.742887497E0,2.418265343E-1,7.792691781E0
9.361032977E0,-4.013591409E-1,-7.869399071E0,-2.203249216E0,8.181860302E0
9.380411639E0,-8.956147432E-1,-8.625723839E0,-6.909075260E0,1.108785635E1
9.399759784E0,-1.296350837E0,-1.051178360E1,-1.594434452E1,1.914158411E1
9.419138446E0,-1.897178888E-1,-1.239021683E1,-2.498092270E1,2.788547946E1
9.438517108E0,3.367485523E0,-1.438496685E1,-2.865847206E1,3.224244487E1
9.457865252E0,6.074518204E0,-1.644472885E1,-3.198242569E1,3.647196775E1
9.477243915E0,4.804646969E0,-1.486963272E1,-3.597453690E1,3.922190606E1
9.496622577E0,1.446787357E0,-1.336569595E1,-3.449983978E1,3.702666562E1
9.516001239E0,3.648829460E-1,-1.334541130E1,-2.769242096E1,3.074253277E1
9.535410419E0,-1.506209373E-2,-1.183378983E1,-1.999319839E1,2.323288167E1
9.554728045E0,-6.995504498E-1,-1.042651558E1,-1.183291245E1,1.578668473E1
9.574106708E0,-1.532481074E0,-9.494548798E0,-4.039917469E0,1.043148543E1
9.593485370E0,-2.323122263E0,-8.556999207E0,1.954615593E0,9.079628549E0
9.612833514E0,-2.936217308E0,-8.146605492E0,6.257489204E0,1.068385344E1
9.632212176E0,-2.899032593E0,-7.935605049E0,8.728425980E0,1.214757744E1
9.651560321E0,-2.186830759E0,-7.488571167E0,9.081447601E0,1.197220186E1
9.670938983E0,-1.448086858E0,-7.069223404E0,7.843076706E0,1.065761358E1
9.690317645E0,-1.088036656E0,-7.509063721E0,5.923854828E0,9.626106053E0
9.709665790E0,-5.799764395E-1,-8.041898727E0,4.128988743E0,9.058534973E0
9.729044452E0,-1.157411337E-1,-8.106276512E0,3.251626730E0,8.734883588E0
9.748423114E0,-4.899680614E-2,-7.608756065E0,3.501912117E0,8.376094437E0
9.767771258E0,-6.264040470E-1,-7.189023018E0,3.720161676E0,8.118746016E0
9.787149920E0,-1.239949703E0,-7.645070076E0,3.642256975E0,8.558656881E0
9.806528583E0,-1.176242113E0,-8.237294197E0,3.398616791E0,8.988167627E0
9.825907245E0,-9.615138769E-1,-8.952496529E0,3.642127514E0,9.712713105E0
9.845285907E0,-1.056383729E0,-9.225866318E0,4.144882679E0,1.016919900E1
9.864634051E0,-1.379085541E0,-9.085472107E0,4.239170551E0,1.012019008E1
9.884012713E0,-1.556875348E0,-8.672190666E0,3.432523489E0,9.455843130E0
9.903391376E0,-1.685639739E0,-8.513302803E0,7.671058178E-1,8.712413976E0
9.922739520E0,-2.290685177E0,-9.120958328E0,-4.658712864E0,1.049489042E1
9.942118182E0,-3.235069275E0,-1.143568993E1,-1.514972496E1,1.925499529E1
9.961466327E0,-1.450552702E0,-1.307753563E1,-2.603876114E1,2.917435728E1
9.980844989E0,1.703486681E0,-1.384638786E1,-3.431150818E1,3.703922134E1
1.000025417E1,6.211950302E0,-1.092417812E1,-4.072797394E1,4.262269179E1
1.001957180E1,4.053115845E0,-1.287257290E1,-3.861051941E1,4.090113801E1
1.003895046E1,4.273862839E-1,-1.412803745E1,-3.407461548E1,3.688988373E1
1.005829860E1,-2.016673803E0,-1.210673809E1,-2.455986023E1,2.745590674E1
1.007770778E1,-4.243706703E0,-1.013655376E1,-1.448896885E1,1.818485598E1
1.009708644E1,-5.863435745E0,-8.856768608E0,-6.004162312E0,1.220131935E1
1.011643459E1,-6.604786873E0,-8.175159454E0,1.433036327E-1,1.051080290E1
1.013581325E1,-6.006865501E0,-7.473519325E0,3.581811428E0,1.023549204E1
1.015519191E1,-4.505698681E0,-7.266545296E0,5.984004021E0,1.043610585E1
1.017454006E1,-3.206236601E0,-7.572031021E0,6.575389862E0,1.052859719E1
1.019391872E1,-2.275717020E0,-7.687151909E0,5.994954109E0,1.001052782E1
1.021326686E1,-1.605516195E0,-7.973118782E0,5.013255119E0,9.554110752E0
1.023267604E1,-1.613318443E0,-8.099031448E0,3.940306425E0,9.150033963E0
1.025202419E1,-2.184444666E0,-7.835107803E0,3.088822126E0,8.700662901E0
1.027137233E1,-3.055813313E0,-7.805728912E0,2.445370674E0,8.731966364E0
1.029075100E1,-3.821698427E0,-7.603270531E0,2.065782070E0,8.756857724E0
1.031009914E1,-4.249122620E0,-7.384792328E0,1.138331652E0,8.595696581E0
1.032947780E1,-4.291668892E0,-7.551594734E0,-2.590949535E-1,8.689771867E0
1.034885646E1,-4.069075108E0,-8.775699615E0,-3.077017546E0,1.015077893E1
1.036823513E1,-3.759867668E0,-1.060899830E1,-7.288160801E0,1.340912889E1
1.038761379E1,-3.203197956E0,-1.370700073E1,-1.220062256E1,1.862786990E1
1.040699245E1,-1.536816597E0,-1.609475327E1,-1.615141678E1,2.285325254E1
1.042634059E1,8.584308624E-1,-1.809423828E1,-2.137277412E1,2.801667069E1
1.044571926E1,1.122769833E0,-2.070246696E1,-2.686468887E1,3.393470582E1
1.046509792E1,-2.510502338E0,-1.991618347E1,-2.980254745E1,3.593255934E1
1.048444606E1,-3.044548988E0,-1.724038506E1,-2.822974014E1,3.321774201E1
1.050382473E1,-3.841479778E0,-1.451148605E1,-2.307934189E1,2.753173108E1
1.052317287E1,-4.753684521E0,-1.344869995E1,-1.657548523E1,2.186805335E1
1.054255153E1,-5.403943062E0,-1.194015503E1,-9.439828873E0,1.615178850E1
1.056193019E1,-5.478688240E0,-9.508520126E0,-2.869372129E0,1.134289541E1
1.058127834E1,-5.579140663E0,-7.486705303E0,2.361188889E0,9.630824461E0
1.060065700E1,-5.913088799E0,-6.204556465E0,5.818795204E0,1.035951339E1
1.062000514E1,-6.173500061E0,-5.899652004E0,7.951125622E0,1.166783594E1
1.063938381E1,-5.155909538E0,-6.589787006E0,9.062472343E0,1.233438693E1
1.065879299E1,-4.156498432E0,-6.717695236E0,8.848481178E0,1.186168317E1
1.067814113E1,-3.487473965E0,-6.404188633E0,7.673283577E0,1.058562174E1
1.069751979E1,-3.407297134E0,-5.711712360E0,5.951712608E0,8.925033043E0
1.071686794E1,-3.400638103E0,-5.363464832E0,4.448364258E0,7.753646825E0
1.073624660E1,-2.964600563E0,-5.712129116E0,3.238596916E0,7.204566991E0
1.075564982E1,-2.263226986E0,-6.567881584E0,2.454410076E0,7.367726496E0
1.077499796E1,-1.860632420E0,-7.332607269E0,2.255908012E0,7.894187946E0
1.079437663E1,-2.102339745E0,-7.771862984E0,2.785820484E0,8.519535340E0
1.081375529E1,-2.780043125E0,-7.896482468E0,3.701705456E0,9.153452814E0
1.083310343E1,-3.612276554E0,-7.753116131E0,4.528735161E0,9.678263987E0
1.085248210E1,-4.482994080E0,-7.388333321E0,4.780011654E0,9.875890673E0
1.087183024E1,-5.019691467E0,-7.438569069E0,3.750878334E0,9.726186328E0
1.089120890E1,-4.851317883E0,-7.817756653E0,2.375521660E-1,9.203751154E0
1.091058756E1,-4.948291779E0,-9.666357040E0,-6.349450111E0,1.257933093E1
1.092996623E1,-4.500013351E0,-1.358345318E1,-1.546323776E1,2.106827099E1
1.094934489E1,-1.721170425E0,-1.683547974E1,-2.257691574E1,2.821547324E1
1.096869303E1,3.202556610E0,-1.836503983E1,-3.152646065E1,3.662579388E1
1.098807170E1,5.220472813E0,-1.555728531E1,-3.778245926E1,4.119219210E1
1.100745036E1,-2.838177681E-1,-1.317055035E1,-3.466067886E1,3.707973312E1
1.102679850E1,-4.474199772E0,-1.384783173E1,-2.886624527E1,3.232709426E1
1.104617716E1,-5.688489914E0,-1.390614033E1,-2.003902245E1,2.504599922E1
1.106555583E1,-5.420662880E0,-1.212882233E1,-1.108164310E1,1.730013673E1
1.108490397E1,-4.876044750E0,-9.532289505E0,-3.487802982E0,1.126077818E1
1.110428263E1,-4.743708611E0,-7.517247200E0,1.802884817E0,9.069849531E0
1.112363078E1,-4.824396133E0,-6.508643150E0,5.335093498E0,9.700538972E0
1.114300944E1,-5.081733704E0,-5.973009586E0,7.251910686E0,1.068134212E1
1.116238810E1,-5.546926975E0,-5.899805546E0,7.991822243E0,1.137740423E1
1.118173625E1,-5.600750923E0,-5.953310490E0,8.110237122E0,1.151461084E1
1.120111491E1,-5.502061367E0,-6.022072792E0,7.618611813E0,1.116159872E1
1.122049357E1,-5.540267467E0,-5.999023914E0,6.910199642E0,1.069736933E1
1.123987223E1,-5.503633022E0,-6.065351963E0,6.519635677E0,1.046824342E1
1.125925089E1,-5.081060410E0,-6.291631699E0,5.681073666E0,9.883137271E0
1.127859904E1,-4.296345234E0,-6.369146824E0,3.913831234E0,8.622220628E0
1.129797770E1,-3.713581562E0,-6.055963993E0,1.344208956E0,7.229957512E0
1.131735636E1,-3.972674847E0,-6.161426544E0,-1.837606192E0,7.557917637E0
1.133670451E1,-4.812767982E0,-6.873204231E0,-7.361774445E0,1.116240991E1
1.135608317E1,-5.789936543E0,-9.878734589E0,-1.461352348E1,1.856523177E1
1.137543131E1,-5.540690422E0,-1.340080833E1,-2.270697594E1,2.694230262E1
1.139480998E1,-2.950412750E0,-1.409342861E1,-2.816543198E1,3.163259749E1
1.141418864E1,-1.376108646E0,-1.487504768E1,-3.197042274E1,3.528836422E1
1.143353678E1,-2.137464046E0,-1.599600410E1,-3.347666168E1,3.716352751E1
1.145291544E1,-3.741038322E0,-1.553246117E1,-3.224728775E1,3.598805753E1
1.147229411E1,-4.029205799E0,-1.445526695E1,-2.679533386E1,3.071122203E1
1.149164225E1,-3.719069481E0,-1.326901245E1,-1.891946030E1,2.340607073E1
1.151102091E1,-4.109224319E0,-1.125346088E1,-1.150424004E1,1.660944446E1
1.153039958E1,-4.335107327E0,-8.477186203E0,-5.805923462E0,1.115188723E1
1.154977824E1,-4.542484760E0,-6.474671364E0,-1.979503155E0,8.153157045E0
1.156915690E1,-4.981310368E0,-5.841639519E0,9.457042217E-1,7.735151047E0
1.158850505E1,-5.480457306E0,-5.976871490E0,3.970335722E0,9.028951813E0
1.160788371E1,-6.204082966E0,-5.914554596E0,6.179741859E0,1.056701523E1
1.162723185E1,-6.505858898E0,-6.099713326E0,7.403182030E0,1.159050503E1
1.164661051E1,-5.995271683E0,-5.923065662E0,7.491802216E0,1.127621789E1
1.166598918E1,-5.052392483E0,-6.094561577E0,6.857460976E0,1.047354389E1
1.168533732E1,-4.121101856E0,-6.322772980E0,5.857969761E0,9.553886559E0
1.170471598E1,-3.527718544E0,-6.443582058E0,4.821625710E0,8.787071318E0
1.172409464E1,-3.433996201E0,-7.103938580E0,4.008177757E0,8.850071309E0
1.174344279E1,-3.858494759E0,-7.250241756E0,3.017941952E0,8.749969197E0
1.176282145E1,-4.675971508E0,-7.286805630E0,2.224714279E0,8.939328803E0
1.178216960E1,-5.164643764E0,-7.260476112E0,2.302316189E0,9.202647360E0
1.180157878E1,-5.488147736E0,-7.319860458E0,2.681825876E0,9.533745997E0
1.182095744E1,-5.563201904E0,-7.189005852E0,3.169403315E0,9.626844651E0
1.184030558E1,-5.363363743E0,-6.623431206E0,2.957895279E0,9.021344471E0
1.185968424E1,-4.795863152E0,-6.436773300E0,1.829590321E0,8.232846083E0
1.187906291E1,-4.695338726E0,-6.589888096E0,-7.591476440E-1,8.127061955E0
1.189841105E1,-5.644982338E0,-7.135309696E0,-6.281648159E0,1.105611024E1
1.191778971E1,-6.189271450E0,-9.962223053E0,-1.473154545E1,1.883006640E1
1.193713786E1,-3.806422710E0,-1.508212280E1,-2.246508217E1,2.732469943E1
1.195651652E1,9.879517555E-1,-1.823590279E1,-3.015485573E1,3.525392919E1
1.197589518E1,4.501051903E0,-1.614175034E1,-3.474413300E1,3.857421872E1
1.199524333E1,3.872568607E0,-1.533614445E1,-3.424090576E1,3.771781730E1
1.201462199E1,-2.155385017E-1,-1.619035339E1,-2.893801880E1,3.315995977E1
1.203397013E1,-3.160591125E0,-1.573464203E1,-1.979774857E1,2.548566547E1
1.205334880E1,-4.959719181E0,-1.306604385E1,-1.197973061E1,1.840745126E1
1.207272746E1,-5.880365372E0,-1.000383377E1,-5.718470573E0,1.293662602E1
1.209210612E1,-6.286277771E0,-7.570890427E0,-1.499561548E0,9.954112462E0
1.211148478E1,-6.525010109E0,-6.068728447E0,1.331689596E0,9.009917817E0
1.213086344E1,-6.176957607E0,-5.118272781E0,3.728962183E0,8.846280603E0
1.215021159E1,-5.598828793E0,-4.863579273E0,5.471129894E0,9.215994223E0
1.216959025E1,-5.664254189E0,-5.079296589E0,6.356618881E0,9.914112817E0
1.218893839E1,-5.721867085E0,-5.341288567E0,6.793053627E0,1.036410653E1
1.220831706E1,-5.408399105E0,-5.364620686E0,6.644639969E0,1.010847052E1
1.222769572E1,-4.958563805E0,-5.206045151E0,6.192076683E0,9.488523318E0
1.224704386E1,-4.887380600E0,-4.834627628E0,5.356306076E0,8.714937075E0
1.226642253E1,-5.178159237E0,-4.813684940E0,4.764224529E0,8.525416773E0
1.228577067E1,-5.387579441E0,-4.964884758E0,4.670623302E0,8.688545041E0
1.230514933E1,-5.464994907E0,-5.102571011E0,3.912361145E0,8.438540750E0
1.232452799E1,-5.418231487E0,-5.389715195E0,1.211556911E0,7.737837713E0
1.234387614E1,-5.723816395E0,-6.126686573E0,-3.369082451E0,9.035987995E0
1.236325480E1,-6.473346233E0,-8.609531403E0,-9.428674698E0,1.431531170E1
1.238266398E1,-5.978147507E0,-1.255922031E1,-1.589723778E1,2.112331488E1
1.240201212E1,-5.211351395E0,-1.546975136E1,-1.912508965E1,2.514439191E1
1.242139079E1,-3.927651882E0,-1.723256683E1,-2.408425522E1,2.987372020E1
1.244073893E1,-6.811962128E-1,-1.775938416E1,-2.904223633E1,3.404865996E1
1.246011759E1,1.644701958E0,-1.640606499E1,-3.100968933E1,3.512071818E1
1.247949626E1,-3.324646950E-1,-1.543364906E1,-2.667437363E1,3.081931642E1
1.249884440E1,-4.037116528E0,-1.444408035E1,-2.275178337E1,2.725020025E1
1.251822306E1,-6.103667259E0,-1.219964981E1,-1.651050568E1,2.141688603E1
1.253757121E1,-6.466278076E0,-9.709600449E0,-9.987269402E0,1.535690864E1
1.255694987E1,-6.262061119E0,-7.386481762E0,-3.856142044E0,1.042321226E1
1.257632853E1,-6.148697376E0,-6.186199665E0,2.700104713E-1,8.726308004E0
1.259567668E1,-6.136520863E0,-6.189009666E0,2.922922850E0,9.192616980E0
1.261505534E1,-6.484447002E0,-6.301457405E0,4.939812183E0,1.030330834E1
1.263443400E1,-6.902402401E0,-6.188163757E0,6.532894135E0,1.134086572E1
1.265381266E1,-6.670062542E0,-5.682422161E0,7.231640339E0,1.136117414E1
1.267319132E1,-5.815181732E0,-5.216409683E0,7.123609543E0,1.057227892E1
1.269253947E1,-5.131743431E0,-5.122630596E0,6.663996220E0,9.848095272E0
1.271191813E1,-5.084095001E0,-4.917228222E0,5.952169895E0,9.244213424E0
1.273129679E1,-5.361607075E0,-5.045454979E0,5.149693489E0,8.984586212E0
1.275064494E1,-5.493125439E0,-5.353604317E0,4.473508358E0,8.879627430E0
1.277002360E1,-5.225935459E0,-5.823430061E0,3.997689247E0,8.786595383E0
1.278940226E1,-4.474030495E0,-6.220827103E0,3.697881699E0,8.508229414E0
1.280875041E1,-4.127206802E0,-6.398043156E0,3.633361340E0,8.436237718E0
1.282812907E1,-3.991888046E0,-6.206321239E0,2.780549526E0,7.885749753E0
1.284747721E1,-3.709581852E0,-6.290348530E0,1.450009823E0,7.445267667E0
1.286685588E1,-4.033975124E0,-6.533971310E0,-8.964705467E-1,7.731066926E0
1.288623454E1,-5.161368847E0,-7.074254036E0,-5.537245750E0,1.036078612E1
1.290558268E1,-6.418802261E0,-1.015868759E1,-1.406400299E1,1.849854416E1
1.292496134E1,-4.138978481E0,-1.390434265E1,-2.047469711E1,2.509332798E1
1.294434001E1,-1.939966679E0,-1.858445930E1,-2.260569763E1,2.932853838E1
1.296371867E1,5.431318283E-1,-1.892855644E1,-2.399658203E1,3.056830369E1
1.298309733E1,4.368140697E0,-1.935088158E1,-2.082806396E1,2.876361451E1
1.300244548E1,1.871432781E0,-1.939346123E1,-1.875295067E1,2.704222176E1
1.302182414E1,-2.233953476E0,-1.609281349E1,-1.817468262E1,2.437802868E1
1.304120280E1,-4.576773643E0,-1.288424969E1,-1.571975517E1,2.083414144E1
1.306055094E1,-5.014442921E0,-1.014739799E1,-1.158967590E1,1.619984294E1
1.307992960E1,-5.269563198E0,-8.327573776E0,-6.689934731E0,1.191100365E1
1.309927775E1,-5.396831989E0,-7.664800644E0,-2.033369541E0,9.592161181E0
1.311865641E1,-5.459858418E0,-7.426793575E0,1.785092831E0,9.389029405E0
1.313803507E1,-5.464746952E0,-7.210865498E0,4.218165874E0,9.982633111E0
1.315738322E1,-5.534387112E0,-6.668474674E0,5.358139038E0,1.018860389E1
1.317676188E1,-5.421471596E0,-6.150310516E0,5.611576557E0,9.935213393E0
1.319611003E1,-4.973361969E0,-5.745076180E0,5.776121616E0,9.544831612E0
1.321548869E1,-4.189467430E0,-5.914471149E0,6.137063503E0,9.497165618E0
1.323489787E1,-3.410244465E0,-6.455989361E0,6.027545929E0,9.467886557E0
1.325424601E1,-2.841368198E0,-6.153435707E0,4.884715557E0,8.354555064E0
1.327362467E1,-2.780253410E0,-5.835275650E0,2.127654552E0,6.804936799E0
1.329300334E1,-2.918264389E0,-5.494432926E0,-2.707018852E0,6.784763171E0
1.331235148E1,-4.070748806E0,-6.053274155E0,-9.494028091E0,1.197287322E1
1.333173014E1,-5.036223888E0,-8.101903915E0,-1.571997356E1,1.838809308E1
1.335107829E1,-5.185769081E0,-1.200893307E1,-1.932586479E1,2.333657482E1
1.337045695E1,-4.752405643E0,-1.531705856E1,-2.304065704E1,2.807257593E1
1.338983561E1,-1.903485775E0,-1.821274567E1,-2.481416702E1,3.083942684E1
1.340918376E1,1.300168991E0,-1.894098854E1,-2.599693680E1,3.219149281E1
1.342856242E1,1.504011154E0,-1.532750130E1,-2.603066444E1,3.024549284E1
1.344791056E1,-1.565108776E0,-1.150425625E1,-2.424375534E1,2.688042318E1
1.346728922E1,-4.313250065E0,-8.824343681E0,-1.852355957E1,2.096653111E1
1.348666789E1,-5.331233501E0,-7.722332001E0,-1.131911278E1,1.470301929E1
1.350604655E1,-4.755738258E0,-7.436801910E0,-4.108344555E0,9.736609472E0
1.352542521E1,-4.526778221E0,-7.250330925E0,1.909259081E0,8.758098528E0
1.354480387E1,-4.535340309E0,-7.638383865E0,5.997106552E0,1.071818580E1
1.356415202E1,-4.404860497E0,-8.001435280E0,8.512416840E0,1.248547168E1
1.358353068E1,-4.273178577E0,-7.903025627E0,9.703692436E0,1.322420191E1
1.360287882E1,-4.254301071E0,-7.517507553E0,9.055930138E0,1.251486588E1
1.362225749E1,-4.636825562E0,-6.961833477E0,7.244484901E0,1.106570550E1
1.364163615E1,-4.263723373E0,-6.214411736E0,5.590478420E0,9.383586691E0
1.366098429E1,-3.711063385E0,-6.137826920E0,4.324524403E0,8.375346085E0
1.368036296E1,-3.698193073E0,-6.179685593E0,3.856690884E0,8.169406992E0
1.369974162E1,-3.700590849E0,-6.479964733E0,3.665667057E0,8.313929910E0
1.371908976E1,-3.450773478E0,-7.028687477E0,3.628933430E0,8.630147338E0
1.373846842E1,-3.192501068E0,-7.665995598E0,3.739457130E0,9.107309768E0
1.375781657E1,-2.892145395E0,-8.404922485E0,3.972303867E0,9.735832013E0
1.377719523E1,-2.708524466E0,-8.507778168E0,4.146124363E0,9.844223756E0
1.379657389E1,-2.736010075E0,-8.160299301E0,4.140463352E0,9.550899046E0
1.381595256E1,-3.287677050E0,-7.420048714E0,2.436286449E0,8.473572739E0
1.383533122E1,-3.615782738E0,-7.239633083E0,-2.737054348E0,8.542695037E0
1.385467936E1,-3.589956045E0,-8.637140274E0,-1.266279316E1,1.574275411E1
1.387405802E1,-8.679733276E-1,-1.140349960E1,-2.369724464E1,2.631259365E1
1.389343669E1,3.493791580E0,-1.189418221E1,-3.054499054E1,3.296474779E1
1.391278483E1,4.420131683E0,-9.435462952E0,-3.529933929E1,3.680501161E1
1.393216349E1,3.948359489E-1,-8.203606606E0,-3.285716248E1,3.386809978E1
1.395154215E1,-2.483618259E0,-1.101342773E1,-2.546060181E1,2.785150255E1
1.397089030E1,-2.924772739E0,-1.363845921E1,-1.695889854E1,2.195828101E1
1.399026896E1,-2.985859394E0,-1.322493649E1,-9.798379898E0,1.672789736E1
1.400961710E1,-3.607034445E0,-1.105922699E1,-4.917723656E0,1.262937865E1
1.402899577E1,-4.450348377E0,-9.364093781E0,-1.433304787E0,1.046643280E1
1.404837443E1,-4.728032589E0,-7.947225571E0,1.631349087E0,9.390100440E0
1.406772257E1,-4.934580803E0,-6.991204739E0,3.900618076E0,9.404352863E0
1.408713175E1,-4.802427292E0,-6.447405815E0,5.640995979E0,9.821058256E0
1.410651042E1,-4.224521637E0,-6.149256229E0,7.018696308E0,1.024314566E1
1.412585856E1,-3.522724628E0,-5.854553223E0,8.053878784E0,1.056173971E1
1.414523722E1,-3.192046404E0,-5.969640255E0,8.178843498E0,1.061693204E1
1.416458537E1,-3.423188686E0,-5.686776161E0,7.295045376E0,9.862825707E0
1.418396403E1,-4.029291630E0,-5.468622208E0,5.295330048E0,8.612870613E0
1.420334269E1,-4.460484982E0,-5.415645599E0,1.787838936E0,7.240270132E0
1.422269084E1,-5.040136814E0,-6.180047035E0,-2.725293159E0,8.427525335E0
1.424206950E1,-5.349971294E0,-7.870638371E0,-8.181894302E0,1.255039982E1
1.426141764E1,-4.531591892E0,-9.663849831E0,-1.613907051E1,1.934928721E1
1.428079630E1,-2.170407772E0,-1.209732819E1,-2.502359390E1,2.787895749E1
1.430017497E1,9.197168350E-1,-1.350287056E1,-3.075569153E1,3.360187426E1
1.431952311E1,9.938702583E-1,-1.493108940E1,-3.235386658E1,3.564684967E1
1.433890177E1,-4.071455002E-1,-1.588058567E1,-3.050132942E1,3.439025829E1
1.435828044E1,-1.477246284E0,-1.541553307E1,-2.574270630E1,3.004176832E1
1.437765910E1,-2.116727352E0,-1.382966995E1,-1.860595512E1,2.327921545E1
1.439703776E1,-2.484965324E0,-1.141907692E1,-1.144820499E1,1.635945500E1
1.441638590E1,-2.921660900E0,-9.074850082E0,-6.485430241E0,1.153038646E1
1.443576457E1,-3.635534286E0,-7.326821327E0,-2.529578209E0,8.561435991E0
1.445514323E1,-4.460986614E0,-6.160629749E0,1.794739246E0,7.815039951E0
1.447449137E1,-5.113172531E0,-5.429102421E0,5.835774899E0,9.469738914E0
1.449387004E1,-5.640874863E0,-5.813871384E0,9.190093994E0,1.225064885E1
1.451321818E1,-5.119038582E0,-6.216047764E0,1.056936836E1,1.328741334E1
1.453259684E1,-4.215372086E0,-6.380394936E0,9.518217087E0,1.220963791E1
1.455197550E1,-3.855724335E0,-6.034992218E0,7.939236641E0,1.069201663E1
1.457132365E1,-3.806751728E0,-5.336438656E0,6.116106987E0,8.965249630E0
1.459070231E1,-3.977358580E0,-4.989181519E0,4.646274090E0,7.892982732E0
1.461008097E1,-4.216087341E0,-5.736613274E0,3.968920231E0,8.150855913E0
1.462942912E1,-3.646473885E0,-6.842456341E0,3.906724453E0,8.682077892E0
1.464880778E1,-3.100631952E0,-7.531797886E0,4.302235126E0,9.211467037E0
1.466818644E1,-3.098552704E0,-7.957971573E0,5.015297413E0,9.903713877E0
1.468756510E1,-3.326956511E0,-8.025621414E0,5.728552818E0,1.040651508E1
1.470694377E1,-3.494241714E0,-7.607010841E0,6.262744904E0,1.045458334E1
1.472629191E1,-3.699642181E0,-7.141105652E0,6.363751888E0,1.025573402E1
1.474567057E1,-3.855075359E0,-6.384027958E0,5.059716225E0,9.012111144E0
1.476501872E1,-3.983193159E0,-5.986177921E0,8.741841316E-1,7.243227992E0
1.478439738E1,-3.609605789E0,-6.690436363E0,-5.619262218E0,9.453427980E0
1.480377604E1,-2.955916405E0,-9.365938187E0,-1.616414452E1,1.891395802E1
1.482312419E1,-1.146148682E0,-1.265100861E1,-2.253680229E1,2.587023643E1
1.484250285E1,1.113674641E0,-1.491653824E1,-2.805975723E1,3.179769426E1
1.486188151E1,5.628205299E0,-1.106820488E1,-3.666870117E1,3.871402200E1
1.488122965E1,5.348153591E0,-9.161163330E0,-3.197212982E1,3.368600222E1
1.490060832E1,5.162096024E-1,-1.176548672E1,-2.557334137E1,2.815473209E1
1.491995646E1,-3.902993679E0,-1.265165710E1,-1.694773674E1,2.150636110E1
1.493933512E1,-6.567815781E0,-1.145433426E1,-1.069219780E1,1.699002858E1
1.495874430E1,-6.389133453E0,-9.466100693E0,-4.775925636E0,1.237891572E1
1.497809245E1,-4.665908813E0,-8.243135452E0,8.419227600E-2,9.472437674E0
1.499747111E1,-3.238349438E0,-7.469077110E0,3.636292458E0,8.916088985E0
1.501681925E1,-3.602753639E0,-6.366216660E0,5.409602165E0,9.097930750E0
1.503619792E1,-4.430273533E0,-5.358742714E0,5.532948017E0,8.885772944E0
1.505557658E1,-4.797532082E0,-5.159219742E0,5.340507507E0,8.840525033E0
1.507492472E1,-4.854609966E0,-4.867990494E0,4.678618908E0,8.315891068E0
1.509430339E1,-4.767713547E0,-4.896633148E0,3.694192886E0,7.768858972E0
1.511368205E1,-4.518988609E0,-5.583985329E0,3.717629433E0,8.088443534E0
1.513303019E1,-4.760740280E0,-6.125412941E0,4.370087624E0,8.904100042E0
1.515240885E1,-5.180551052E0,-6.280146122E0,3.892922878E0,9.024034189E0
1.517175700E1,-5.618321896E0,-6.751715660E0,1.425767899E0,8.898540295E0
1.519113566E1,-5.594898224E0,-6.917512417E0,-4.703887463E0,1.006386712E1
1.521051432E1,-4.780069828E0,-8.326851845E0,-1.272495842E1,1.594083109E1
1.522989298E1,-3.640016556E0,-1.184974480E1,-1.902166939E1,2.270440659E1
1.524927165E1,-1.273201466E0,-1.494743347E1,-2.312756538E1,2.756684766E1
1.526865031E1,4.245262146E-1,-1.664371872E1,-2.711842728E1,3.182141878E1
1.528799845E1,-3.618946075E-1,-1.553056335E1,-2.881676292E1,3.273736690E1
1.530737712E1,-2.388120651E0,-1.401818466E1,-2.729403305E1,3.077623859E1
1.532672526E1,-3.676243782E0,-1.326628399E1,-2.117153549E1,2.525357350E1
1.534610392E1,-4.577587605E0,-1.145991516E1,-1.445351601E1,1.900494906E1
1.536551310E1,-4.980517864E0,-9.169987679E0,-7.584349155E0,1.290025520E1
1.538483073E1,-5.310326099E0,-6.927864552E0,-2.226354122E0,9.008414023E0
1.540420939E1,-5.854323864E0,-5.430538177E0,8.262286186E-1,8.027858153E0
1.542355754E1,-6.328352451E0,-5.504732132E0,2.891841412E0,8.872027240E0
1.544293620E1,-6.314154148E0,-5.878757954E0,5.065634251E0,1.000444841E1
1.546231486E1,-6.344576359E0,-5.793457031E0,7.485878944E0,1.139544545E1
1.548166300E1,-6.238513470E0,-5.756247997E0,8.801532745E0,1.222785427E1
1.550104167E1,-5.715784073E0,-5.350026608E0,8.891773224E0,1.184721922E1
1.552045085E1,-5.572550774E0,-5.225268364E0,8.171154022E0,1.118590674E1
1.553979899E1,-5.754002571E0,-4.833657742E0,6.989454269E0,1.026280974E1
1.555917765E1,-5.884494781E0,-4.491588116E0,5.843232155E0,9.431065934E0
1.557852580E1,-5.952014923E0,-4.418268681E0,4.915825367E0,8.894544329E0
1.559793498E1,-5.761930466E0,-4.518514633E0,4.174861908E0,8.428896080E0
1.561725260E1,-5.284838676E0,-4.801417828E0,3.897472382E0,8.134704909E0
1.563663127E1,-4.885619164E0,-5.246479988E0,4.269444942E0,8.344039010E0
1.565600993E1,-4.814806938E0,-5.609763622E0,5.013466835E0,8.932338073E0
1.567535807E1,-4.964218140E0,-5.561768532E0,5.374714375E0,9.190445340E0
1.569473673E1,-5.326192856E0,-4.889833927E0,3.806444168E0,8.171158019E0
1.571411540E1,-6.765247822E0,-5.614289761E0,6.130800247E-1,8.812757498E0
1.573346354E1,-8.578603745E0,-6.822325706E0,-6.332719326E0,1.265859014E1
1.575284220E1,-9.311367035E0,-9.655269623E0,-1.887462425E1,2.315550104E1
1.577222087E1,-5.820296764E0,-1.362009525E1,-2.269183540E1,2.709801179E1
1.579156901E1,-4.825806618E-1,-1.758092499E1,-2.646295166E1,3.177435472E1
1.581097819E1,6.312077999E0,-1.476956463E1,-2.931616974E1,3.342783535E1
1.583035685E1,4.402652740E0,-1.228882980E1,-2.863563156E1,3.147059078E1
1.584970500E1,-2.241815090E0,-1.093440056E1,-2.565957832E1,2.798215164E1
1.586908366E1,-5.422228813E0,-8.820737839E0,-1.760976410E1,2.042816127E1
1.588843180E1,-6.704319954E0,-8.165573120E0,-9.836748123E0,1.443558465E1
1.590781046E1,-7.217484951E0,-7.997586727E0,-3.270784378E0,1.125839744E1
1.592715861E1,-7.374997616E0,-7.323058128E0,6.307477951E-1,1.041228183E1
1.594653727E1,-6.804236889E0,-6.469539642E0,2.707675457E0,9.771596042E0
1.596591593E1,-6.408261776E0,-5.690246582E0,3.681491375E0,9.327277411E0
1.598526408E1,-5.963026047E0,-4.964176178E0,5.029539108E0,9.246458154E0
1.600464274E1,-5.509833813E0,-4.457970142E0,5.969508171E0,9.266433739E0
1.602402140E1,-5.278074265E0,-4.238231659E0,6.218963623E0,9.192180594E0
1.604336955E1,-5.572964668E0,-4.168461323E0,6.096022129E0,9.251783114E0
1.606277873E1,-6.177186966E0,-4.266695976E0,5.872764587E0,9.531615669E0
1.608212687E1,-6.769205570E0,-4.453409672E0,5.702925682E0,9.908499538E0
1.610150553E1,-6.967315197E0,-4.477932930E0,5.202137470E0,9.780470267E0
1.612088420E1,-7.277876377E0,-4.325550079E0,3.762051105E0,9.264496563E0
1.614023234E1,-7.616318226E0,-3.757902145E0,5.363535881E-1,8.509865276E0
1.615961100E1,-7.605794430E0,-3.731842995E0,-6.150212765E0,1.046899604E1
1.617898966E1,-6.621397495E0,-4.479194164E0,-1.804702759E1,1.973832034E1
1.619833781E1,-5.302649498E0,-8.845410347E0,-2.499398041E1,2.703809225E1
1.621771647E1,-3.883493900E0,-1.548319435E1,-2.502043915E1,2.967883433E1
1.623706462E1,-1.298276424E0,-1.822365570E1,-2.723156357E1,3.279245650E1
1.625644328E1,-1.192436218E-1,-1.395393372E1,-2.889781189E1,3.209065311E1
1.627582194E1,-7.834300995E-1,-8.608345032E0,-2.868236351E1,2.995655760E1
1.629520060E1,-2.979406834E0,-7.645319939E0,-2.232968712E1,2.378955041E1
1.631454875E1,-3.844247818E0,-8.128194809E0,-1.544734764E1,1.787362138E1
1.633389689E1,-4.183038712E0,-7.990608215E0,-8.456481934E0,1.236364506E1
1.635327555E1,-4.876173019E0,-5.471095562E0,-2.551126957E0,7.760038577E0
1.637265422E1,-6.814019680E0,-4.228495598E0,1.388548851E0,8.138741127E0
1.639203288E1,-7.727146626E0,-4.715485096E0,4.950984955E0,1.031779272E1
1.641141154E1,-7.718046665E0,-5.349821091E0,7.899397850E0,1.227148387E1
1.643079020E1,-6.764214039E0,-5.380253792E0,8.930117607E0,1.242774006E1
1.645013835E1,-5.866806984E0,-5.374392986E0,8.354413986E0,1.153688681E1
1.646951701E1,-5.539160252E0,-5.110863686E0,7.081947327E0,1.034201150E1
1.648886515E1,-5.539770603E0,-4.738427162E0,5.723849297E0,9.268451925E0
1.650824381E1,-5.601628780E0,-4.620769024E0,4.792424679E0,8.700407213E0
1.652762248E1,-5.694126606E0,-4.816023827E0,4.440873146E0,8.679776357E0
1.654697062E1,-5.541316032E0,-5.369216919E0,4.238362789E0,8.803317149E0
1.656634928E1,-5.552851200E0,-5.868995190E0,4.128954411E0,9.073451687E0
1.658569743E1,-5.805367470E0,-6.006074429E0,4.073805332E0,9.293605941E0
1.660507609E1,-5.718475819E0,-6.293397903E0,4.746282578E0,9.738327432E0
1.662445475E1,-5.690695286E0,-6.129249573E0,5.625156403E0,1.007938975E1
1.664380290E1,-5.517499447E0,-5.836553574E0,5.591040134E0,9.786106864E0
1.666321208E1,-5.142938137E0,-5.133774281E0,3.908562183E0,8.251200482E0
1.668259074E1,-5.419997692E0,-5.033994675E0,3.195638657E-1,7.404025826E0
1.670193888E1,-5.788637638E0,-5.501393795E0,-7.356762409E0,1.085797461E1
1.672131754E1,-6.203075886E0,-9.985679626E0,-1.676464462E1,2.047547942E1
1.674066569E1,-3.582207680E0,-1.552316475E1,-2.014440918E1,2.568264155E1
1.676004435E1,1.284399509E0,-1.664753342E1,-2.193503189E1,2.756693082E1
1.677942301E1,3.538775444E0,-1.226611710E1,-2.571027374E1,2.870537818E1
1.679877116E1,2.197712421E0,-1.124819946E1,-2.958416939E1,3.172656630E1
1.681814982E1,2.114367485E-1,-1.262267303E1,-2.598316383E1,2.888773759E1
1.683749796E1,-4.537118912E0,-9.906664848E0,-2.024945450E1,2.299495301E1
1.685687663E1,-7.301713943E0,-7.639996052E0,-1.270020390E1,1.652209869E1
1.687625529E1,-8.349748611E0,-7.416804314E0,-5.444525242E0,1.242457819E1
1.689560343E1,-7.204181671E0,-7.361582279E0,1.046183586E0,1.035314577E1
1.691498210E1,-6.047770023E0,-7.307217121E0,5.285554886E0,1.085854662E1
1.693436076E1,-5.402643204E0,-6.802203178E0,7.214353561E0,1.129182974E1
1.695373942E1,-5.300550938E0,-5.884729862E0,7.993847847E0,1.125288804E1
1.697311808E1,-5.292417526E0,-5.297821999E0,7.778608799E0,1.079737728E1
1.699246623E1,-4.993254662E0,-5.116494179E0,6.989562988E0,9.998254626E0
1.701184489E1,-4.615389347E0,-5.051071644E0,5.863517284E0,9.010881118E0
1.703122355E1,-4.884658337E0,-4.968265533E0,4.837950230E0,8.482294023E0
1.705057170E1,-5.293979168E0,-4.762994289E0,3.970277309E0,8.153246712E0
1.706995036E1,-5.471726894E0,-4.730415344E0,3.424906254E0,8.002912431E0
1.708932902E1,-5.200053215E0,-4.744054794E0,2.909186840E0,7.616428126E0
1.710867716E1,-5.012925625E0,-5.668328285E0,1.989803314E0,7.824237094E0
1.712805583E1,-4.520518780E0,-6.869574547E0,-1.010827065E0,8.285403783E0
1.714740397E1,-4.405589104E0,-7.961478710E0,-8.295568466E0,1.231303434E1
1.716678263E1,-4.451146126E0,-8.665920258E0,-1.884195900E1,2.121156040E1
1.718616130E1,-3.310614109E0,-9.556909561E0,-2.780322266E1,2.958570392E1
1.720550944E1,-3.910160065E-2,-1.056717491E1,-3.333202362E1,3.496699177E1
1.722488810E1,8.433661461E-1,-1.151003170E1,-3.532387161E1,3.716137783E1
1.724426676E1,-2.870258331E0,-1.171381283E1,-3.217969894E1,3.436545967E1
1.726364543E1,-5.109725475E0,-1.115416050E1,-2.544781113E1,2.825094126E1
1.728302409E1,-6.820196152E0,-1.023059845E1,-1.757110214E1,2.144583528E1
1.730237223E1,-7.297371864E0,-9.280328751E0,-8.851264000E0,1.475537232E1
1.732175089E1,-7.686931610E0,-7.554248333E0,-2.069391727E0,1.097442334E1
1.734112956E1,-7.846853256E0,-6.278946400E0,1.605299473E0,1.017719315E1
1.736047770E1,-6.699476242E0,-5.867831707E0,4.814735889E0,1.012403638E1
1.737985636E1,-5.956353664E0,-5.105614185E0,8.455068588E0,1.153402055E1
1.739920451E1,-5.052836895E0,-4.055972099E0,1.074895287E1,1.255077918E1
1.741858317E1,-3.712075710E0,-3.718426228E0,1.116244698E1,1.233719669E1
1.743796183E1,-2.753479004E0,-4.020897388E0,9.670642853E0,1.082915489E1
1.745730998E1,-2.664608479E0,-4.337862968E0,7.817389011E0,9.328920861E0
1.747668864E1,-3.422701836E0,-4.382118225E0,5.830794811E0,8.057047606E0
1.749603678E1,-4.390268803E0,-4.807998180E0,4.781332970E0,8.077898961E0
1.751541545E1,-4.647762775E0,-5.553435802E0,4.600752831E0,8.579584759E0
1.753482463E1,-4.401696682E0,-6.135834217E0,4.579855919E0,8.831674556E0
1.755417277E1,-3.857044697E0,-6.639954567E0,5.071778774E0,9.202648009E0
1.757355143E1,-3.627273560E0,-6.855485439E0,5.885334492E0,9.736116072E0
1.759293009E1,-3.640940666E0,-6.662576675E0,6.762543201E0,1.016751530E1
1.761227824E1,-3.576562881E0,-6.017288208E0,7.334048271E0,1.013843299E1
1.763165690E1,-3.625529289E0,-5.552539825E0,7.721956253E0,1.017859369E1
1.765100504E1,-4.098794460E0,-5.292654991E0,7.168169498E0,9.807903285E0
1.767038371E1,-4.564214706E0,-6.086648464E0,4.205137253E0,8.692670748E0
1.768976237E1,-4.886782169E0,-8.186622620E0,-3.512702465E0,1.016073366E1
1.770911051E1,-5.399546146E0,-1.201556015E1,-1.743907166E1,2.185520543E1
1.772848918E1,-3.836080074E0,-1.218584633E1,-2.994033432E1,3.255201960E1
1.774783732E1,1.214681149E0,-7.731525898E0,-3.958919525E1,4.035537540E1
1.776721598E1,3.466055393E0,-8.290722847E0,-3.784026718E1,3.889261428E1
1.778659464E1,-6.627140045E-1,-1.181125832E1,-3.137577248E1,3.353183728E1
1.780597331E1,-5.163969517E0,-1.333364391E1,-2.209237671E1,2.631588398E1
1.782535197E1,-5.923900604E0,-1.166044426E1,-1.207007790E1,1.779734079E1
1.784473063E1,-5.414807320E0,-9.994255066E0,-4.121975899E0,1.209115205E1
1.786407878E1,-4.705577374E0,-8.366772652E0,-1.693978310E-1,9.600731152E0
1.788345744E1,-3.848715782E0,-6.928866863E0,2.268423080E0,8.244243595E0
1.790280558E1,-4.131280899E0,-5.839782238E0,3.550040245E0,7.985820196E0
1.792218424E1,-4.730699539E0,-5.243517876E0,4.548622608E0,8.400236037E0
1.794156291E1,-4.935709000E0,-5.008317947E0,4.859329224E0,8.547371087E0
1.796091105E1,-4.528932095E0,-5.255918026E0,5.585958481E0,8.907234833E0
1.798028971E1,-3.630394936E0,-5.682138920E0,6.574387550E0,9.417485957E0
1.799963786E1,-3.012218475E0,-6.034425259E0,7.140831470E0,9.822383745E0
1.801901652E1,-2.843113899E0,-6.379058361E0,7.559262276E0,1.029165334E1
1.803839518E1,-3.139084339E0,-6.691479206E0,7.711938381E0,1.068193513E1
1.805774333E1,-3.780755997E0,-6.578611851E0,7.020101547E0,1.033702450E1
1.807712199E1,-4.526318073E0,-6.325281620E0,5.187458038E0,9.349142408E0
1.809653117E1,-4.736892700E0,-6.398797035E0,2.538737774E0,8.356311712E0
1.811587931E1,-4.470036030E0,-7.317484856E0,-6.899518967E-1,8.602490357E0
1.813525798E1,-5.131498337E0,-8.579315186E0,-7.459066391E0,1.247295457E1
1.815460612E1,-4.114469051E0,-9.877721786E0,-1.985455513E1,2.255441426E1
1.817398478E1,-2.813076973E-1,-9.613111496E0,-3.133937454E1,3.278181574E1
1.819336344E1,1.063858509E0,-1.068702888E1,-3.457625580E1,3.620582614E1
1.821271159E1,-1.764592648E0,-1.252960300E1,-3.636004639E1,3.849880143E1
1.823209025E1,-2.283050060E0,-1.295178890E1,-3.101148415E1,3.368491209E1
1.825146891E1,-1.993438244E0,-1.287679291E1,-2.188003540E1,2.546608609E1
1.827081706E1,-2.278116703E0,-1.198971176E1,-1.286111069E1,1.772995127E1
1.829019572E1,-2.798828125E0,-1.026995468E1,-6.345476151E0,1.239235553E1
1.830954386E1,-3.922019482E0,-8.140663147E0,-2.273450851E0,9.317790085E0
1.832892252E1,-5.273627758E0,-6.525709152E0,-3.567304611E-1,8.397814376E0
1.834830119E1,-5.859563828E0,-5.799218178E0,2.646047115E0,8.658347710E0
1.836764933E1,-5.355651379E0,-5.875745773E0,6.362923622E0,1.018303428E1
1.838705851E1,-5.332984924E0,-6.284454346E0,8.966460228E0,1.217918321E1
1.840640666E1,-4.919573307E0,-5.990622520E0,1.063460732E1,1.315996324E1
1.842578532E1,-4.533521652E0,-5.829701900E0,1.060870743E1,1.292605571E1
1.844516398E1,-4.292173862E0,-5.341773033E0,9.144371033E0,1.142702136E1
1.846451213E1,-4.109755039E0,-4.771460533E0,7.333368778E0,9.666189515E0
1.848389079E1,-3.843722343E0,-4.354798794E0,6.177144527E0,8.479126635E0
1.850326945E1,-3.821093082E0,-4.289428711E0,5.465020180E0,7.928833242E0
1.852261759E1,-3.672563553E0,-4.985267162E0,5.395219326E0,8.212734216E0
1.854199626E1,-3.356960535E0,-5.868012428E0,5.711229801E0,8.849909589E0
1.856134440E1,-3.027638197E0,-6.404538631E0,5.890773773E0,9.213355729E0
1.858072306E1,-3.056593657E0,-6.270429134E0,6.325759411E0,9.416808293E0
1.860010173E1,-3.577531338E0,-5.834867477E0,6.642502308E0,9.537675076E0
1.861944987E1,-4.157784462E0,-5.385109901E0,6.426510334E0,9.358772107E0
1.863882853E1,-4.423696518E0,-5.817966461E0,4.067252159E0,8.364231271E0
1.865820719E1,-4.347394466E0,-6.714210510E0,-2.858524323E0,8.494211130E0
1.867758586E1,-3.824981928E0,-9.251642227E0,-1.291076279E1,1.633741615E1
1.869696452E1,-1.140358925E0,-1.349107647E1,-2.048828697E1,2.455767631E1
1.871631266E1,1.528778553E0,-1.619765091E1,-2.394442368E1,2.894885980E1
1.873569132E1,6.504577160E0,-1.222887802E1,-3.180854607E1,3.469349484E1
1.875506999E1,6.961876392E0,-9.216584206E0,-2.881071472E1,3.103982007E1
1.877441813E1,3.335803032E0,-1.145793343E1,-2.574646950E1,2.837767629E1
1.879379679E1,-4.757146835E-1,-9.642284393E0,-1.990239525E1,2.212024614E1
1.881314494E1,-3.422852039E0,-7.267614841E0,-1.333588791E1,1.556855960E1
1.883252360E1,-4.733330727E0,-6.654898167E0,-6.248548031E0,1.028282266E1
1.885190226E1,-4.751396656E0,-6.896753311E0,-4.714536667E-1,8.388280216E0
1.887125041E1,-4.535389423E0,-7.078093052E0,4.131531239E0,9.366894301E0
1.889062907E1,-4.989398479E0,-6.941434860E0,6.749332428E0,1.089179064E1
1.890997721E1,-5.260473728E0,-6.625842571E0,8.396266937E0,1.191938220E1
1.892935588E1,-4.992680550E0,-6.492059231E0,9.224927902E0,1.233584156E1
1.894873454E1,-4.225031853E0,-6.423637390E0,9.178142548E0,1.197298259E1
1.896811320E1,-3.755475044E0,-6.191623688E0,8.717811584E0,1.133313882E1
1.898749186E1,-3.725739956E0,-5.939484119E0,7.965646267E0,1.061179204E1
1.900687052E1,-3.767189980E0,-5.766119480E0,7.192961693E0,9.958842910E0
1.902621867E1,-3.728683472E0,-5.697243690E0,6.193632126E0,9.204495913E0
1.904559733E1,-3.887917042E0,-5.738207817E0,4.740671158E0,8.397433590E0
1.906494548E1,-3.773643970E0,-5.634615898E0,1.472707272E0,6.939607470E0
1.908432414E1,-3.704029083E0,-6.113831043E0,-5.042506695E0,8.747893189E0
1.910370280E1,-4.050408840E0,-6.427063465E0,-1.769049454E1,1.925270250E1
1.912305094E1,-2.226400852E0,-7.636569977E0,-2.415533066E1,2.543135979E1
1.914242960E1,-4.654755592E-1,-1.063898182E1,-2.484133148E1,2.702769601E1
1.916177775E1,4.298758507E-1,-1.334817791E1,-2.624341393E1,2.944614442E1
1.918115641E1,2.703126431E0,-1.429551029E1,-2.783512878E1,3.140800696E1
1.920053507E1,2.251555443E0,-1.209574509E1,-2.617211151E1,2.891981971E1
1.921988322E1,-1.490201950E0,-1.056625938E1,-2.022884369E1,2.287078171E1
1.923929240E1,-4.041829586E0,-9.853634834E0,-1.498235130E1,1.838209336E1
1.925864054E1,-5.744612217E0,-8.496054649E0,-8.600879669E0,1.338501570E1
1.927801920E1,-6.272864819E0,-7.384361744E0,-1.443465233E0,9.795979955E0
1.929739787E1,-6.184969425E0,-6.970035076E0,3.335529327E0,9.897524521E0
1.931674601E1,-5.905356407E0,-7.667638302E0,6.776986599E0,1.181496757E1
1.933612467E1,-5.612341881E0,-8.046760559E0,9.355370522E0,1.355624190E1
1.935550334E1,-5.095705032E0,-7.726948738E0,1.024889183E1,1.380984179E1
1.937485148E1,-4.493255138E0,-6.620738983E0,1.016972637E1,1.294012600E1
1.939423014E1,-4.007393837E0,-5.208375454E0,9.219125748E0,1.132160147E1
1.941360881E1,-3.205929518E0,-4.075411797E0,7.571678638E0,9.176997482E0
1.943295695E1,-2.231489182E0,-3.550530910E0,5.780390263E0,7.141339181E0
1.945233561E1,-1.605299473E0,-3.525663853E0,4.611189365E0,6.022487805E0
1.947168376E1,-1.903743982E0,-4.162593365E0,4.409984589E0,6.356051348E0
1.949106242E1,-2.689924955E0,-5.256612301E0,4.966920376E0,7.716084964E0
1.951044108E1,-3.157923937E0,-6.006834030E0,5.762680531E0,8.902978465E0
1.952981974E1,-3.192746162E0,-6.765635490E0,6.518766880E0,9.922790600E0
1.954919840E1,-2.914032936E0,-7.024460316E0,6.382841110E0,9.928509018E0
1.956854655E1,-2.809329987E0,-6.957986832E0,4.450438499E0,8.724237420E0
1.958792521E1,-3.504189014E0,-6.924164772E0,5.139293671E-1,7.777372425E0
1.960730387E1,-4.995410919E0,-8.527141571E0,-5.093700409E0,1.111809595E1
1.962665202E1,-4.955486298E0,-1.269252777E1,-1.383905411E1,1.942103304E1
1.964603068E1,-2.450597763E0,-1.643986893E1,-2.277217674E1,2.819302668E1
1.966540934E1,4.961131573E0,-1.173910332E1,-3.262523651E1,3.502606787E1
1.968475749E1,9.395696640E0,-8.488869667E0,-3.199681091E1,3.441127624E1
1.970413615E1,5.874058723E0,-1.246542358E1,-2.485793686E1,2.842196995E1
1.972348429E1,9.014430046E-1,-1.419264603E1,-1.872406387E1,2.351243009E1
1.974286296E1,-2.771755695E0,-1.152572250E1,-1.095776081E1,1.614303041E1
1.976224162E1,-4.720703602E0,-9.049548149E0,-4.213414192E0,1.104229249E1
1.978158976E1,-5.029241562E0,-7.341637135E0,6.621894836E-1,8.923642833E0
1.980096842E1,-4.079234123E0,-6.444248199E0,4.304703236E0,8.757794005E0
1.982034709E1,-3.178644180E0,-6.196756840E0,6.358692169E0,9.430617173E0
1.983972575E1,-2.303024530E0,-6.048163414E0,8.040105820E0,1.032121622E1
1.985910441E1,-2.018909454E0,-5.948440552E0,8.627183914E0,1.067184345E1
1.987845256E1,-2.231458426E0,-5.875584126E0,8.313388824E0,1.042181986E1
1.989783122E1,-2.541442633E0,-5.704087734E0,7.523641109E0,9.777562226E0
1.991720988E1,-2.457418203E0,-5.471435547E0,6.437650204E0,8.798798288E0
1.993655802E1,-1.978512526E0,-5.400283337E0,4.372729778E0,7.224841704E0
1.995593668E1,-1.578001499E0,-5.318790436E0,1.481166840E0,5.742253533E0
1.997528483E1,-1.704700947E0,-5.499361992E0,-2.102411747E0,6.129365611E0
1.999466349E1,-2.467125416E0,-6.015226364E0,-5.160009861E0,8.300322752E0
2.001404215E1,-3.379984856E0,-7.852810383E0,-7.401791573E0,1.130829107E1
2.003339030E1,-3.019321442E0,-1.022441292E1,-9.251880646E0,1.411567274E1
2.005276896E1,-2.056334257E0,-1.191111565E1,-1.039214134E1,1.594050778E1
2.007211710E1,-1.906469584E0,-1.209872627E1,-1.325084400E1,1.804435287E1
2.009149577E1,-7.641005516E-2,-1.227619457E1,-1.762850189E1,2.148196617E1
2.011090495E1,3.301523685E0,-1.311707306E1,-1.969184875E1,2.388988430E1
2.013025309E1,2.257029533E0,-1.283676338E1,-2.007056427E1,2.393123955E1
2.014963175E1,-3.123944759E0,-1.043571854E1,-1.837557983E1,2.136176927E1
2.016901042E1,-6.268486023E0,-9.779869080E0,-1.456703186E1,1.863164441E1
2.018835856E1,-6.175011635E0,-1.022901535E1,-8.390346527E0,1.460004927E1
2.020773722E1,-4.793168068E0,-9.864528656E0,-2.405359268E0,1.122805143E1
2.022708537E1,-4.485584259E0,-8.349660873E0,2.020746708E0,9.691270304E0
2.024646403E1,-4.899338722E0,-7.432993889E0,4.603478909E0,1.002222212E1
2.026584269E1,-4.811035156E0,-7.362778187E0,5.613037109E0,1.043373124E1
2.028519084E1,-4.354718208E0,-7.409189224E0,6.454181194E0,1.074784213E1
2.030456950E1,-4.088820457E0,-6.998379707E0,6.801714420E0,1.058107227E1
2.032391764E1,-3.736668587E0,-6.483581066E0,6.240430832E0,9.743843828E0
2.034329631E1,-3.318564415E0,-5.881509304E0,4.861976147E0,8.321287972E0
2.036267497E1,-3.165772915E0,-5.165906429E0,3.611125946E0,7.053292705E0
2.038205363E1,-3.350431919E0,-4.946248531E0,3.181385517E0,6.768454948E0
2.040143229E1,-3.431573391E0,-5.077413559E0,3.478433132E0,7.046653209E0
2.042081095E1,-3.493541241E0,-5.520308018E0,3.832143784E0,7.573899721E0
2.044015910E1,-3.424313068E0,-6.159027100E0,4.188348770E0,8.197670414E0
2.045953776E1,-3.383841515E0,-6.479426384E0,4.856791496E0,8.776204949E0
2.047888590E1,-3.074356079E0,-6.185492992E0,4.825291634E0,8.425878483E0
2.049826457E1,-2.881355762E0,-5.987868309E0,3.114192009E0,7.338594537E0
2.051764323E1,-3.115577221E0,-6.316537380E0,-6.613140106E-1,7.074093731E0
2.053699137E1,-3.174340248E0,-7.336092472E0,-7.389588356E0,1.088580290E1
2.055637004E1,-3.615879536E0,-1.111928177E1,-1.476409817E1,1.883325799E1
2.057571818E1,-2.793747425E0,-1.198249054E1,-2.119324493E1,2.450589184E1
2.059509684E1,1.000534534E0,-6.706092358E0,-2.725839043E1,2.808901196E1
2.061447550E1,6.576147079E-1,-7.086596012E0,-2.641597366E1,2.735792325E1
2.063382365E1,-1.628008842E0,-1.194875526E1,-2.274706078E1,2.574591111E1
2.065320231E1,-4.977338791E0,-1.353614044E1,-1.562699986E1,2.126509168E1
2.067261149E1,-7.096878052E0,-1.097914124E1,-8.834495544E0,1.577832475E1
2.069195964E1,-8.158349991E0,-8.048416138E0,-3.463885307E0,1.197222529E1
2.071133830E1,-6.160653114E0,-6.204701424E0,2.770051956E-1,8.748068268E0
2.073068644E1,-3.138287067E0,-5.856079102E0,2.497767925E0,7.097982303E0
2.075004653E1,-1.808184147E0,-6.082131863E0,3.516795158E0,7.254633422E0
2.076942520E1,-2.261967182E0,-5.646100998E0,4.356690884E0,7.481691484E0
2.078877334E1,-3.299870968E0,-5.402790546E0,5.191180706E0,8.187041664E0
2.080815200E1,-3.982215405E0,-5.989193916E0,5.906945229E0,9.307012691E0
2.082750015E1,-4.271821976E0,-6.547318935E0,6.419919491E0,1.011588921E1
2.084687881E1,-4.350097179E0,-6.828842640E0,6.681272030E0,1.049742031E1
2.086625747E1,-4.355385780E0,-6.624753475E0,6.692565441E0,1.037531571E1
2.088560562E1,-4.471707344E0,-6.095289230E0,6.255924225E0,9.812507594E0
2.090498428E1,-4.518925190E0,-4.987450600E0,4.701697826E0,8.209830133E0
2.092436294E1,-4.016895294E0,-4.118594170E0,1.806009293E0,6.029920008E0
2.094371108E1,-3.220360756E0,-3.667162895E0,-4.701164722E0,6.776411797E0
2.096315078E1,-3.658515930E0,-4.717991829E0,-1.256969070E1,1.391550610E1
2.098246841E1,-3.611797333E0,-8.744139671E0,-1.638104248E1,1.891675478E1
2.100184707E1,-3.539611816E0,-1.184463787E1,-1.849071884E1,2.224254890E1
2.102122573E1,-1.705095291E0,-1.356697464E1,-2.139632034E1,2.539237435E1
2.104057388E1,6.777200699E-1,-1.117782402E1,-2.440040970E1,2.684740300E1
2.105995254E1,-7.473173141E-1,-7.701118946E0,-2.572323036E1,2.686168826E1
2.107933120E1,-4.448468685E0,-7.150175571E0,-2.168221664E1,2.326010324E1
2.109867935E1,-5.620219707E0,-8.265614510E0,-1.679041481E1,1.954035011E1
2.111805801E1,-5.129522324E0,-8.963998795E0,-1.053213215E1,1.475096882E1
2.113740615E1,-4.177394867E0,-8.582992554E0,-5.155826092E0,1.084900603E1
2.115678482E1,-3.990081310E0,-7.022755146E0,-2.070905209E0,8.338374367E0
2.117616348E1,-4.084130764E0,-6.543777466E0,1.929998875E0,7.951480571E0
2.119551162E1,-4.052901745E0,-6.536925793E0,5.796382427E0,9.630963639E0
2.121489028E1,-4.264917374E0,-6.371257305E0,8.903255463E0,1.174948500E1
2.123426895E1,-4.119086742E0,-6.163130283E0,1.001851463E1,1.246281212E1
2.125364761E1,-3.620963097E0,-6.040030956E0,9.266677856E0,1.163892891E1
2.127302627E1,-3.387763977E0,-5.800230026E0,7.906864166E0,1.037487899E1
2.129237441E1,-3.533483505E0,-5.305852890E0,6.766280174E0,9.296242680E0
2.131175308E1,-3.754012585E0,-5.064883709E0,5.732802868E0,8.521190421E0
2.133113174E1,-3.934130669E0,-5.521328449E0,5.137676239E0,8.506360508E0
2.135047988E1,-4.070179939E0,-6.191009521E0,5.205147266E0,9.054751333E0
2.136985854E1,-4.290035248E0,-6.777830601E0,5.582255363E0,9.772664172E0
2.138920669E1,-4.385093212E0,-7.056815624E0,6.129605770E0,1.032471579E1
2.140858535E1,-4.484514236E0,-7.032150269E0,6.596509457E0,1.063371724E1
2.142799453E1,-4.211950302E0,-6.405222416E0,6.922666073E0,1.032911928E1
2.144731216E1,-3.701392651E0,-5.740213871E0,6.113749504E0,9.166694924E0
2.146669082E1,-3.906532288E0,-5.466658592E0,3.555140018E0,7.601603201E0
2.148603897E1,-4.144578457E0,-4.764643192E0,-3.427445889E0,7.185175061E0
2.150541763E1,-3.983431339E0,-7.028847694E0,-1.454509354E1,1.663827428E1
2.152479629E1,-1.840239525E0,-1.127162552E1,-2.271577835E1,2.542523568E1
2.154417495E1,-4.745960236E-2,-1.145579147E1,-2.539707565E1,2.786124302E1
2.156355361E1,1.054569244E0,-8.266881943E0,-2.975895309E1,3.090386291E1
2.158293228E1,-1.882592201E0,-7.155056000E0,-2.743064880E1,2.841090413E1
2.160228042E1,-4.391507626E0,-7.275445461E0,-2.262410164E1,2.416748685E1
2.162165908E1,-4.453152657E0,-7.369728565E0,-1.624917603E1,1.838964897E1
2.164100723E1,-3.676065445E0,-7.573201180E0,-8.845737457E0,1.221122043E1
2.166041641E1,-3.558404446E0,-8.205005646E0,-2.184117794E0,9.206233235E0
2.167976455E1,-3.338631868E0,-8.029510498E0,2.571545601E0,9.068205355E0
2.169911270E1,-3.951855421E0,-7.319656372E0,4.901651859E0,9.655087862E0
2.171849136E1,-4.629652977E0,-6.962421417E0,5.979183197E0,1.027908704E1
2.173783950E1,-4.444814682E0,-6.357549667E0,6.674737930E0,1.023361821E1
2.175721816E1,-3.739085674E0,-6.001929283E0,7.319426060E0,1.017732355E1
2.177659683E1,-3.080383301E0,-5.518306732E0,7.320391178E0,9.671018430E0
2.179594497E1,-2.531087875E0,-5.154516697E0,6.925459862E0,8.996523913E0
2.181535415E1,-2.125578403E0,-5.129402637E0,6.259340763E0,8.367090400E0
2.183473281E1,-2.281863451E0,-5.326818943E0,5.645920753E0,8.090631744E0
2.185408096E1,-2.805712938E0,-5.233045101E0,4.468362331E0,7.431221168E0
2.187345962E1,-3.484732628E0,-5.199282646E0,2.405774117E0,6.705494063E0
2.189283828E1,-4.075828552E0,-5.514432907E0,-1.948763371E0,7.128746548E0
2.191218643E1,-4.245523453E0,-7.061137676E0,-8.391778946E0,1.176036090E1
2.193156509E1,-3.211806297E0,-8.648490906E0,-1.479756737E1,1.743789249E1
2.195091323E1,-1.649956465E0,-1.023056793E1,-2.016112518E1,2.266843279E1
2.197029190E1,-1.547737360E0,-1.103728580E1,-2.538601494E1,2.772484307E1
2.198964004E1,-2.119222879E0,-9.024132729E0,-2.897083473E1,3.041768141E1
2.200901870E1,-1.095861673E0,-8.627752304E0,-2.721379089E1,2.856972939E1
2.202839736E1,4.458189011E-1,-1.010566330E1,-2.096440887E1,2.327723404E1
2.204774551E1,-1.011106968E-1,-1.058718586E1,-1.492720222E1,1.830082222E1
2.206712417E1,-1.972573519E0,-9.031495094E0,-8.928581238E0,1.285217930E1
2.208650283E1,-3.822281361E0,-7.746345043E0,-3.600571156E0,9.358408464E0
2.210588149E1,-4.448249817E0,-6.879465103E0,1.159211636E0,8.273919153E0
2.212526016E1,-4.059367180E0,-7.248359203E0,5.389727116E0,9.902844613E0
2.214460830E1,-3.501459122E0,-7.437342167E0,9.276939392E0,1.239499411E1
2.216398696E1,-3.301090002E0,-6.691268921E0,1.124435043E1,1.349465419E1
2.218336562E1,-3.636343956E0,-5.882199287E0,1.095306396E1,1.295348895E1
2.220271377E1,-3.599905968E0,-4.967716217E0,9.698821068E0,1.147626496E1
2.222209243E1,-3.253755331E0,-4.630557060E0,8.262588501E0,1.001495637E1
2.224144058E1,-2.689189434E0,-4.414922237E0,6.905085087E0,8.625745083E0
2.226081924E1,-2.238310337E0,-3.834115028E0,5.634836674E0,7.173691906E0
2.228019790E1,-2.163527250E0,-3.748052597E0,5.286584854E0,6.832036874E0
2.229954605E1,-2.287191153E0,-4.389271736E0,5.856677055E0,7.667960346E0
2.231892471E1,-2.621249199E0,-5.293328285E0,6.844099522E0,9.040573542E0
2.233830337E1,-3.156884670E0,-5.787191868E0,7.715796471E0,1.014844942E1
2.235768203E1,-3.708662510E0,-6.024828911E0,8.258000374E0,1.087415795E1
2.237703018E1,-3.493708134E0,-6.201620579E0,8.552203178E0,1.112682675E1
2.239640884E1,-3.230659723E0,-5.530590534E0,7.614183903E0,9.949893990E0
2.241578750E1,-3.701419353E0,-4.605513573E0,5.041324139E0,7.766994887E0
2.243516616E1,-4.463215828E0,-5.160144329E0,7.856116295E-1,6.867646661E0
2.245451431E1,-4.421148300E0,-6.771612167E0,-8.672775269E0,1.185825934E1
2.247389297E1,-3.769664526E0,-9.967338562E0,-1.899507904E1,2.178006511E1
2.249324111E1,-1.393205643E0,-1.081770325E1,-2.700306702E1,2.912266049E1
2.251261978E1,4.839493275E0,-9.334285736E0,-3.449835587E1,3.606502659E1
2.253199844E1,4.709617138E0,-1.096858788E1,-3.394488525E1,3.598257423E1
2.255134658E1,1.447871685E0,-1.246400642E1,-2.789357376E1,3.058593215E1
2.257072524E1,-1.578094006E0,-1.126792908E1,-1.785861206E1,2.117514182E1
2.259010391E1,-3.393546820E0,-9.560791016E0,-8.323195457E0,1.312251757E1
2.260945205E1,-4.979592323E0,-8.234480858E0,-1.578972816E0,9.751726507E0
2.262883071E1,-5.300107956E0,-7.577099800E0,3.019422054E0,9.727306681E0
2.264817886E1,-4.872242451E0,-6.296220303E0,5.769921303E0,9.832249409E0
2.266758804E1,-4.426054001E0,-5.586663246E0,8.064504623E0,1.076275964E1
2.268696670E1,-3.607072353E0,-4.651950359E0,9.815214157E0,1.144508812E1
2.270631484E1,-2.822760344E0,-4.284343243E0,1.082891178E1,1.198285873E1
2.272569351E1,-1.933434486E0,-4.233141899E0,1.034103203E1,1.133995603E1
2.274504165E1,-1.111012697E0,-4.093468189E0,9.247173309E0,1.017354635E1
2.276442031E1,-7.187345028E-1,-4.356200695E0,8.353311539E0,9.448326701E0
2.278379898E1,-1.166341305E0,-4.643628120E0,7.525776386E0,8.919694186E0
2.280314712E1,-1.991948128E0,-4.477008343E0,6.488042355E0,8.130569146E0
2.282252578E1,-2.919137001E0,-4.153732777E0,4.693325520E0,6.913910705E0
2.284190444E1,-3.605948448E0,-4.813623905E0,1.384379864E0,6.171737755E0
2.286125259E1,-4.387837887E0,-5.488838196E0,-6.284254551E0,9.427211747E0
2.288063125E1,-3.790039301E0,-6.949827194E0,-1.800955963E1,1.967253756E1
2.289997940E1,7.400588989E-1,-8.965395927E0,-2.342137337E1,2.508957436E1
2.291935806E1,4.366753101E0,-1.251385784E1,-2.287698936E1,2.643902065E1
2.293873672E1,2.700257540E0,-1.714735031E1,-2.202753830E1,2.804523947E1
2.295811538E1,1.978285313E0,-1.798952484E1,-2.047345161E1,2.732579071E1
2.297749404E1,6.147937775E-1,-1.305019188E1,-1.809300804E1,2.231686401E1
2.299684219E1,-1.007702827E0,-9.026798248E0,-1.563454247E1,1.808141227E1
2.301622085E1,-2.400246143E0,-7.245704651E0,-1.214375877E1,1.434337110E1
2.303559951E1,-3.870627880E0,-6.079169750E0,-6.627122402E0,9.790649436E0
2.305494766E1,-3.577662706E0,-6.229908943E0,-1.489841461E0,7.336965549E0
2.307432632E1,-3.156891584E0,-6.582422733E0,3.565148830E0,8.124317799E0
2.309370498E1,-3.139213800E0,-6.884765148E0,7.707232475E0,1.080074474E1
2.311305312E1,-3.072685719E0,-6.167623997E0,1.051127243E1,1.256852543E1
2.313243179E1,-2.791990757E0,-5.834418297E0,1.156629276E1,1.325197259E1
2.315177993E1,-2.261843443E0,-5.516921520E0,1.129408646E1,1.277140351E1
2.317115859E1,-1.962104082E0,-4.862775326E0,9.590845108E0,1.093072487E1
2.319053726E1,-1.942867994E0,-4.241572857E0,7.700922012E0,9.003881173E0
2.320988540E1,-1.909029245E0,-3.583939075E0,6.398118019E0,7.577923604E0
2.322926406E1,-1.921986341E0,-3.800368786E0,5.929799557E0,7.300640875E0
2.324864272E1,-2.069648743E0,-4.492140770E0,5.492170811E0,7.390988759E0
2.326802139E1,-2.127547264E0,-5.189828873E0,5.504155636E0,7.858531056E0
2.328740005E1,-1.961734533E0,-5.682707310E0,6.107729435E0,8.570059720E0
2.330674819E1,-1.831826448E0,-6.090388775E0,6.848816395E0,9.346374141E0
2.332612686E1,-1.803423166E0,-6.531167984E0,7.223203659E0,9.903694334E0
2.334550552E1,-1.831356525E0,-6.744062901E0,6.139599323E0,9.302200330E0
2.336485366E1,-2.814841509E0,-7.820170879E0,2.777297974E0,8.763092453E0
2.338423232E1,-3.842054367E0,-8.015732765E0,-3.808954239E0,9.670650749E0
2.340358047E1,-3.381958485E0,-8.870237350E0,-1.276340103E1,1.590670172E1
2.342295913E1,-2.111459255E0,-1.238706970E1,-1.993875504E1,2.356802300E1
2.344233779E1,7.958679199E-1,-1.554063225E1,-2.523842812E1,2.965000692E1
2.346168594E1,7.236523628E0,-1.171194077E1,-3.058255386E1,3.353847688E1
2.348106460E1,8.108753204E0,-9.809412003E0,-2.727328873E1,3.009665630E1
2.350041274E1,5.784587860E0,-1.380970001E1,-1.956488991E1,2.463644025E1
2.351979141E1,1.353205442E0,-1.381587219E1,-1.190328598E1,1.828654441E1
2.353920059E1,-2.778661728E0,-1.118610954E1,-5.825309753E0,1.291449734E1
2.355854873E1,-5.020361900E0,-8.565605164E0,-8.602070808E-1,9.965619983E0
2.357792739E1,-4.831100941E0,-6.631204128E0,3.573747158E0,8.948970513E0
2.359730606E1,-4.012897968E0,-5.413949966E0,7.036177635E0,9.742792210E0
2.361665420E1,-3.393245220E0,-4.790487289E0,9.363301277E0,1.105143848E1
2.363603286E1,-3.096248388E0,-4.336131096E0,1.067914009E1,1.193452220E1
2.365538101E1,-2.993406296E0,-4.149339199E0,1.129261780E1,1.239760920E1
2.367475967E1,-2.745084286E0,-4.133035183E0,1.132673454E1,1.236577466E1
2.369413833E1,-2.330996990E0,-4.263231277E0,1.100936508E1,1.203390242E1
2.371348648E1,-2.046983957E0,-4.251120567E0,1.015286827E1,1.119566450E1
2.373286514E1,-1.936366081E0,-4.094218254E0,9.103298187E0,1.016770252E1
2.375221328E1,-1.631053686E0,-4.073640347E0,7.659812450E0,8.827661558E0
2.377159194E1,-7.515046597E-1,-3.915886402E0,5.339232445E0,6.663807370E0
2.379097061E1,-3.270602226E-1,-4.635860443E0,1.547454357E0,4.898243096E0
2.381034927E1,-1.069473267E0,-5.744516850E0,-4.609074593E0,7.442231890E0
2.382972793E1,-2.541524172E0,-6.722086906E0,-1.397415638E1,1.571377879E1
2.384910659E1,-1.913846254E0,-9.003540993E0,-2.073619080E1,2.268735698E1
2.386845474E1,7.178127766E-1,-1.151893711E1,-2.660678101E1,2.900210273E1
2.388783340E1,1.556035519E0,-1.332172585E1,-3.181006622E1,3.452202108E1
2.390718154E1,1.717496157E0,-1.234911156E1,-3.267676544E1,3.497458147E1
2.392656020E1,1.000861406E0,-1.136509323E1,-2.670299149E1,2.903819591E1
2.394593887E1,-1.612574100E0,-1.047906303E1,-1.741405869E1,2.038775606E1
2.396528701E1,-3.599397182E0,-9.570686340E0,-1.207354164E1,1.582163408E1
2.398466567E1,-3.155784845E0,-8.687845230E0,-6.700041294E0,1.141613709E1
2.400404434E1,-1.963266373E0,-6.611456394E0,-2.459486485E0,7.322215803E0
2.402339248E1,-2.606457233E0,-5.263580322E0,1.187544346E0,5.992425109E0
2.404277114E1,-3.386577368E0,-4.578103065E0,5.462285519E0,7.890785578E0
2.406211929E1,-3.930419445E0,-4.366235256E0,9.726734161E0,1.136316702E1
2.408149795E1,-4.345215797E0,-4.427111149E0,1.250989723E1,1.396344306E1
2.410087661E1,-3.979316235E0,-4.167704582E0,1.289662361E1,1.412542459E1
2.412025527E1,-2.814673901E0,-4.079824924E0,1.171946239E1,1.272451018E1
2.413963394E1,-2.498079777E0,-3.646452904E0,9.870779037E0,1.081523463E1
2.415898208E1,-2.819471359E0,-2.708356380E0,8.587250710E0,9.435331885E0
2.417836074E1,-3.203443050E0,-2.078537464E0,7.913994789E0,8.787131437E0
2.419773940E1,-3.286767960E0,-2.180902958E0,7.624870777E0,8.584744358E0
2.421708755E1,-3.325771332E0,-2.872733116E0,8.137932777E0,9.248745882E0
2.423646621E1,-3.537876368E0,-3.225577354E0,8.336223602E0,9.613196264E0
2.425584487E1,-3.806781292E0,-3.447939396E0,8.160437584E0,9.642230626E0
2.427519302E1,-3.887783527E0,-3.559859753E0,8.026807785E0,9.602973781E0
2.429457168E1,-4.074301720E0,-3.303974152E0,7.375652790E0,9.050769789E0
2.431391982E1,-4.070916176E0,-3.151864529E0,6.211340427E0,8.067673669E0
2.433329849E1,-4.227534294E0,-3.683024406E0,3.451398849E0,6.583985799E0
2.435267715E1,-4.837656021E0,-5.274993896E0,-2.095590115E0,7.457880015E0
2.437202529E1,-4.314591885E0,-8.022584915E0,-1.092791557E1,1.422662682E1
2.439143447E1,-2.204699993E0,-1.361298752E1,-1.624662018E1,2.131025102E1
2.441078262E1,2.068352222E0,-1.655229187E1,-2.515544128E1,3.018364910E1
2.443016128E1,6.470520020E0,-1.150912857E1,-3.341451263E1,3.592850295E1
2.444953994E1,3.327635765E0,-9.662494659E0,-3.258194351E1,3.414703510E1
2.446888809E1,1.762938499E-1,-1.115648651E1,-2.768605232E1,2.984988717E1
2.448826675E1,-3.503051281E0,-1.128586388E1,-1.812652206E1,2.163822760E1
2.450761489E1,-5.281733990E0,-9.556798935E0,-8.707756042E0,1.396617826E1
2.452699356E1,-5.422632217E0,-7.243000507E0,-7.313666344E-1,9.077493799E0
2.454637222E1,-3.682518482E0,-5.419870853E0,4.396615982E0,7.890891872E0
2.456572036E1,-3.439726830E0,-4.210660934E0,7.022480965E0,8.881251323E0
2.458509902E1,-3.954192638E0,-3.327944279E0,8.661152840E0,1.008595167E1
2.460447769E1,-4.514092922E0,-2.888650417E0,8.992334366E0,1.046820966E1
2.462382583E1,-4.805216789E0,-2.838565350E0,8.922140121E0,1.052388455E1
2.464320449E1,-4.904660702E0,-2.960718155E0,8.824644089E0,1.052121152E1
2.466255264E1,-5.061370373E0,-2.892786503E0,8.775465012E0,1.053539131E1
2.468196182E1,-5.064812183E0,-3.011326313E0,8.837915421E0,1.062210702E1
2.470134048E1,-4.880185127E0,-3.445925713E0,8.853769302E0,1.068081653E1
2.472068862E1,-4.876379490E0,-3.581605434E0,8.515171051E0,1.044581794E1
2.474006729E1,-4.727513790E0,-3.328464508E0,7.603668690E0,9.552164161E0
2.475944595E1,-4.431847572E0,-3.278720856E0,5.762572289E0,7.974868195E0
2.477879409E1,-4.278092861E0,-3.602560520E0,2.011786938E0,5.943720006E0
2.479817275E1,-4.333495140E0,-4.756970406E0,-3.701587200E0,7.423590463E0
2.481752090E1,-4.417511463E0,-5.683922291E0,-1.254433727E1,1.446311784E1
2.483689956E1,-2.839697838E0,-7.444881916E0,-1.973032188E1,2.127852796E1
2.485627822E1,-4.254961014E-2,-8.991587639E0,-2.556823349E1,2.710322901E1
2.487562637E1,2.414341450E0,-1.284662437E1,-2.909453964E1,3.189603485E1
2.489500503E1,3.378077984E0,-1.423858452E1,-2.999193954E1,3.337162174E1
2.491435317E1,6.066579819E-1,-1.314498711E1,-2.744394302E1,3.043564898E1
2.493373184E1,-3.011287212E0,-1.106212616E1,-2.188034821E1,2.470198622E1
2.495311050E1,-3.287358284E0,-1.267326164E1,-1.423811245E1,1.934275397E1
2.497248916E1,-2.802535534E0,-1.043364906E1,-6.754449844E0,1.274118640E1
2.499186782E1,-4.222283363E0,-6.529064655E0,-7.134313583E-1,7.808030890E0
2.501121597E1,-5.327147484E0,-3.283469677E0,5.643836498E0,8.426895268E0
2.503059463E1,-5.614485741E0,-2.231064320E0,1.060647583E1,1.220645025E1
2.504997329E1,-5.604052067E0,-2.944110870E0,1.342480373E1,1.484245747E1
2.506932144E1,-5.556540966E0,-3.046681404E0,1.290734100E1,1.437904263E1
2.508870010E1,-5.369669437E0,-3.291875362E0,1.108533478E1,1.274968393E1
2.510807876E1,-4.960080624E0,-3.698739052E0,9.148754120E0,1.104458113E1
2.512742690E1,-4.595295429E0,-3.468230724E0,7.215724468E0,9.231036997E0
2.514680557E1,-4.471920013E0,-3.042757988E0,5.957321644E0,8.046497744E0
2.516615371E1,-4.389810085E0,-2.920771122E0,5.752748966E0,7.803554139E0
2.518553237E1,-4.303617954E0,-3.587314606E0,6.155774593E0,8.323671931E0
2.520491104E1,-4.200048923E0,-4.242392540E0,6.783618927E0,9.036359398E0
2.522425918E1,-4.058729649E0,-5.182103157E0,7.619531631E0,1.006899905E1
2.524366836E1,-3.971665859E0,-5.960300922E0,8.113614082E0,1.082266373E1
2.526301650E1,-3.971029282E0,-5.720551968E0,8.310498238E0,1.084242451E1
2.528239517E1,-4.426325321E0,-4.677516460E0,7.562563896E0,9.932969786E0
2.530177383E1,-4.284145355E0,-3.759424686E0,5.314622879E0,7.793098982E0
2.532112197E1,-4.035498619E0,-3.968235493E0,1.360994816E0,5.821035038E0
2.534050064E1,-3.441187382E0,-4.830605030E0,-3.645977974E0,6.962016298E0
2.535987930E1,-2.561221600E0,-8.295871735E0,-1.170392418E1,1.457268627E1
2.537922744E1,-8.735570908E-1,-1.158531761E1,-1.905416870E1,2.231690012E1
2.539860610E1,1.017332077E-2,-6.817285538E0,-2.852086067E1,2.932430697E1
2.541795425E1,2.346312046E0,-5.225378990E0,-3.317745209E1,3.366828022E1
2.543733291E1,2.611920834E0,-1.254952240E1,-3.042684555E1,3.301674686E1
2.545671157E1,-2.422153473E0,-1.358042145E1,-2.250170517E1,2.639358653E1
2.547605972E1,-6.361035347E0,-9.321798325E0,-1.240108681E1,1.676739839E1
2.549543838E1,-7.368009090E0,-7.075091362E0,-3.432122707E0,1.077608194E1
2.551478652E1,-5.017985821E0,-6.703844070E0,3.264386177E0,8.987653984E0
2.553419570E1,-3.611001968E0,-6.089695930E0,7.021668911E0,9.971337224E0
2.555357437E1,-2.676658869E0,-5.419741154E0,8.779458046E0,1.065912663E1
2.557292251E1,-2.566050529E0,-4.669936657E0,9.348102570E0,1.076010898E1
2.559230117E1,-2.530106544E0,-4.481739044E0,1.003754425E1,1.128005845E1
2.561167983E1,-2.957931995E0,-4.328238487E0,9.404737473E0,1.076717684E1
2.563102798E1,-3.310038567E0,-4.272989273E0,7.663346767E0,9.377722342E0
2.565040664E1,-3.437059641E0,-4.496626854E0,6.075633526E0,8.303394172E0
2.566975479E1,-3.575709581E0,-4.541968346E0,5.374991417E0,7.893396493E0
2.568913345E1,-3.676758289E0,-4.668321609E0,5.909301758E0,8.380431101E0
2.570851211E1,-3.803400755E0,-4.880492687E0,6.294870377E0,8.826690163E0
2.572786025E1,-3.791305542E0,-5.109121323E0,5.477233410E0,8.395070234E0
2.574723892E1,-3.655257225E0,-6.315383434E0,2.996615887E0,7.888262171E0
2.576658706E1,-4.570100784E0,-8.146612167E0,-2.521387577E0,9.675252260E0
2.578596572E1,-5.569378376E0,-8.090944290E0,-1.284757423E1,1.617224532E1
2.580534438E1,-3.762477875E0,-7.169576645E0,-2.281037140E1,2.420479524E1
2.582472305E1,-1.644983292E-1,-7.319967747E0,-2.790183258E1,2.884651190E1
2.584410171E1,4.004549980E0,-1.139296722E1,-3.209642410E1,3.429309789E1
2.586348037E1,6.066361427E0,-1.375306129E1,-3.018951607E1,3.372468408E1
2.588282852E1,-8.537435532E-2,-1.259643745E1,-2.283556938E1,2.607950832E1
2.590220718E1,-7.016383171E0,-1.139204502E1,-1.871391296E1,2.300475736E1
2.592155532E1,-7.223736286E0,-1.189601994E1,-1.135532951E1,1.796221491E1
2.594093398E1,-6.344220161E0,-1.113468742E1,-5.467720509E0,1.393292364E1
2.596031265E1,-6.255119324E0,-7.393828392E0,-3.203434944E-1,9.690089576E0
2.597966079E1,-5.433634758E0,-3.683539867E0,4.800359249E0,8.132422859E0
2.599903945E1,-4.843110561E0,-2.721174717E0,8.356513023E0,1.003453146E1
2.601838760E1,-4.134697437E0,-2.969285965E0,1.104254150E1,1.215936285E1
2.603776626E1,-3.998360157E0,-3.521296501E0,1.195503521E1,1.308851710E1
2.605714492E1,-3.907538891E0,-3.789781094E0,1.140524292E1,1.263767649E1
2.607649307E1,-3.653759718E0,-3.837121964E0,9.570046425E0,1.093888722E1
2.609587173E1,-3.605392694E0,-3.256153584E0,7.381537437E0,8.836769069E0
2.611528091E1,-3.251652002E0,-2.501604080E0,6.057210922E0,7.315809448E0
2.613462905E1,-3.363181591E0,-1.872834206E0,5.253515244E0,6.512904175E0
2.615400772E1,-3.584393740E0,-2.012546062E0,5.291162491E0,6.700344815E0
2.617335586E1,-3.584431648E0,-3.118155003E0,6.292483807E0,7.884566781E0
2.619273452E1,-3.510849953E0,-4.517683983E0,7.335257053E0,9.302770125E0
2.621211318E1,-3.230617523E0,-5.404494286E0,8.285243988E0,1.040628253E1
2.623146133E1,-2.874912739E0,-5.946474552E0,8.819244385E0,1.101838257E1
2.625083999E1,-3.116812706E0,-5.842607498E0,8.691347122E0,1.092657763E1
2.627018814E1,-3.720502615E0,-5.218908787E0,8.174797058E0,1.038780321E1
2.628956680E1,-4.044448853E0,-4.215198040E0,6.863010883E0,9.012567859E0
2.630894546E1,-4.054294586E0,-4.541117191E0,4.016802311E0,7.293404606E0
2.632829360E1,-4.075133801E0,-5.709918976E0,3.115386963E-1,7.021890526E0
2.634767227E1,-3.416413784E0,-7.828468323E0,-9.274778366E0,1.260866024E1
2.636705093E1,-1.645782471E0,-9.902023315E0,-2.173098373E1,2.393729976E1
2.638642959E1,-1.595559120E-1,-6.684564590E0,-3.193672752E1,3.262918060E1
2.640580825E1,3.279563904E0,-3.287927151E0,-3.763472366E1,3.792015862E1
2.642515640E1,2.997904778E0,-7.996512890E0,-3.014800453E1,3.133422775E1
2.644453506E1,-5.949950218E-1,-1.116493416E1,-2.213410187E1,2.479774666E1
2.646391372E1,-3.125253677E0,-9.904069901E0,-1.282254505E1,1.650077188E1
2.648326187E1,-4.407681942E0,-8.256474495E0,-5.648957253E0,1.093195999E1
2.650264053E1,-5.149660587E0,-7.415799618E0,-1.232875347E0,9.112248337E0
2.652198867E1,-5.471666813E0,-6.357017517E0,2.257298470E0,8.685977539E0
2.654136733E1,-5.688911438E0,-5.503871918E0,5.227925777E0,9.486175592E0
2.656074600E1,-5.255321980E0,-4.951045990E0,7.350334167E0,1.030333334E1
2.658009414E1,-4.422260761E0,-4.854794025E0,8.736967087E0,1.092977626E1
2.659947280E1,-3.535982609E0,-4.615458012E0,9.363022804E0,1.102142557E1
2.661885147E1,-2.936679602E0,-4.094610214E0,9.517048836E0,1.076866465E1
2.663819961E1,-2.798643351E0,-3.658841133E0,9.479731560E0,1.053967900E1
2.665757827E1,-3.239752293E0,-3.255669594E0,9.223644257E0,1.030393094E1
2.667695693E1,-3.734175444E0,-3.236644745E0,8.914842606E0,1.019285800E1
2.669633560E1,-3.930932045E0,-3.564849854E0,8.745979309E0,1.022998217E1
2.671571426E1,-3.805961370E0,-4.023801327E0,7.415696621E0,9.255748238E0
2.673506240E1,-3.398468733E0,-4.166365147E0,3.915253639E0,6.651120155E0
2.675444106E1,-3.410141468E0,-3.905877590E0,-2.012799740E0,5.562041655E0
2.677378921E1,-3.697382927E0,-5.784451485E0,-9.632375717E0,1.182849024E1
2.679316787E1,-2.228360176E0,-1.027779770E1,-1.887637711E1,2.160824674E1
2.681254653E1,1.803680897E0,-1.564691544E1,-2.447873306E1,2.910820503E1
2.683189468E1,2.815448284E0,-1.764802170E1,-2.695262527E1,3.233919337E1
2.685127334E1,-2.579617977E0,-1.468313122E1,-2.616375542E1,3.011296845E1
2.687065200E1,-6.611491680E0,-1.132435417E1,-2.307962036E1,2.654471126E1
2.689000015E1,-5.409745216E0,-1.026993275E1,-1.700039101E1,2.058519265E1
2.690937881E1,-3.439778805E0,-8.956156731E0,-1.014033699E1,1.395962950E1
2.692872695E1,-2.445356369E0,-8.078274727E0,-4.791591167E0,9.705546674E0
2.694810562E1,-1.937584877E0,-7.004701138E0,-1.780743599E0,7.482721493E0
2.696751480E1,-2.685413837E0,-5.754378319E0,1.085184097E0,6.442200078E0
2.698686294E1,-3.476319075E0,-4.958463669E0,4.265982151E0,7.407412502E0
2.700624160E1,-3.958296061E0,-4.538001537E0,8.238376617E0,1.020452914E1
2.702558975E1,-4.380744934E0,-4.066602230E0,1.156249905E1,1.301612708E1
2.704496841E1,-3.958770037E0,-3.761028290E0,1.317208958E1,1.425907212E1
2.706434707E1,-3.396986008E0,-3.402693748E0,1.265530491E1,1.353789426E1
2.708369522E1,-3.448920250E0,-2.744338274E0,1.060596466E1,1.148533543E1
2.710307388E1,-3.537757397E0,-1.931570530E0,8.447286606E0,9.359665759E0
2.712245254E1,-3.304957390E0,-1.542427063E0,7.265467644E0,8.129504577E0
2.714180068E1,-2.899213314E0,-1.715951443E0,6.813971519E0,7.601324560E0
2.716117935E1,-2.671007872E0,-2.732741356E0,7.130057335E0,8.089491700E0
2.718052749E1,-2.762436390E0,-3.514831066E0,7.690082550E0,8.895080767E0
2.719990615E1,-2.852019787E0,-4.031727314E0,8.238592148E0,9.605375712E0
2.721928482E1,-2.784633636E0,-4.357428074E0,8.723428726E0,1.014098480E1
2.723863296E1,-2.597142696E0,-4.380921841E0,8.638834953E0,1.002831470E1
2.725807266E1,-2.351727724E0,-4.258022785E0,8.343287468E0,9.657734056E0
2.727739028E1,-2.953193426E0,-4.323704720E0,6.847479820E0,8.619962517E0
2.729676895E1,-3.040331602E0,-5.308733940E0,2.406682968E0,6.574069912E0
2.731614761E1,-2.433186769E0,-8.235176086E0,-6.921478271E0,1.102929665E1
2.733549575E1,-1.311536551E0,-1.249090767E1,-1.568570232E1,2.009438130E1
2.735487441E1,-1.271181107E-1,-1.424448013E1,-2.205116463E1,2.625214724E1
2.737425308E1,4.055011272E0,-8.306501389E0,-3.184637833E1,3.316071311E1
2.739360122E1,5.845959663E0,-6.795690060E0,-2.981830597E1,3.113660255E1
2.741297988E1,3.235494137E0,-1.165413380E1,-2.372593117E1,2.663094190E1
2.743232803E1,-1.671185970E0,-1.151273441E1,-1.531935024E1,1.923586255E1
2.745170669E1,-4.929711342E0,-9.690294266E0,-8.084121704E0,1.354831652E1
2.747108535E1,-5.066455364E0,-8.362438202E0,-1.259036064E0,9.858220653E0
2.749043350E1,-3.825387239E0,-7.006737232E0,3.503403664E0,8.717900631E0
2.750981216E1,-3.125632048E0,-5.542184830E0,6.703366756E0,9.242321908E0
2.752919082E1,-3.112622738E0,-4.258750916E0,8.426105499E0,9.941057970E0
2.754856948E1,-3.489108086E0,-3.427418709E0,9.097961426E0,1.032927763E1
2.756794815E1,-3.775739670E0,-2.810662746E0,9.167600632E0,1.030538386E1
2.758729629E1,-3.730555534E0,-2.532218933E0,9.390569687E0,1.041690820E1
2.760667495E1,-3.476501226E0,-2.598540783E0,9.381147385E0,1.033655655E1
2.762605361E1,-3.103918552E0,-2.935951233E0,9.071660042E0,1.002741921E1
2.764540176E1,-2.909979582E0,-3.423251152E0,8.581523895E0,9.686546442E0
2.766478042E1,-2.673406363E0,-3.730488777E0,7.632396698E0,8.906016363E0
2.768412856E1,-2.754064798E0,-4.220270157E0,5.393986702E0,7.381777946E0
2.770350723E1,-2.932784319E0,-4.549062729E0,-2.623701096E-2,5.412567224E0
2.772291641E1,-3.322628975E0,-5.402509689E0,-1.069050026E1,1.243035679E1
2.774223403E1,-2.514129639E0,-7.949404240E0,-1.949921417E1,2.120691465E1
2.776161270E1,1.125229359E0,-1.244946384E1,-2.330274200E1,2.644377197E1
2.778096084E1,5.074064255E0,-1.499352360E1,-2.756661606E1,3.178789390E1
2.780033950E1,6.465842724E0,-1.562955379E1,-2.595225525E1,3.097756650E1
2.781971816E1,1.822368622E0,-1.370173454E1,-2.243797874E1,2.635377482E1
2.783909683E1,-3.363006115E0,-1.066863823E1,-1.755344009E1,2.081472822E1
2.785847549E1,-4.938488483E0,-9.026552200E0,-1.215656281E1,1.592637223E1
2.787785415E1,-4.150726318E0,-7.757329941E0,-6.202960491E0,1.076482307E1
2.789720230E1,-3.665842772E0,-6.158381939E0,-1.384668827E0,7.299409503E0
2.791658096E1,-3.734365940E0,-4.864759922E0,1.667022705E0,6.355339706E0
2.793592910E1,-4.082631111E0,-4.430549622E0,3.292788982E0,6.865865278E0
2.795533828E1,-4.130745411E0,-4.345199108E0,5.567111492E0,8.181475619E0
2.797468643E1,-3.440308809E0,-4.533607006E0,8.857209206E0,1.052803268E1
2.799403457E1,-2.832153082E0,-4.255307198E0,1.077513790E1,1.192611954E1
2.801341323E1,-2.587664843E0,-3.777100563E0,1.131943512E1,1.221032798E1
2.803276138E1,-2.405012131E0,-2.999717236E0,1.044571018E1,1.113082423E1
2.805214004E1,-2.566225290E0,-2.426620245E0,9.103791237E0,9.764886735E0
2.807151870E1,-2.745047331E0,-1.967421770E0,8.146821976E0,8.819112289E0
2.809086685E1,-3.038110971E0,-1.959704161E0,7.857810974E0,8.649609932E0
2.811027603E1,-3.062013388E0,-2.283370733E0,8.202717781E0,9.048441130E0
2.812965469E1,-2.682119131E0,-2.892061472E0,9.240786552E0,1.004738367E1
2.814900283E1,-2.446048975E0,-3.331233740E0,1.004315567E1,1.086026011E1
2.816838149E1,-2.395093441E0,-3.559956312E0,1.077180004E1,1.159488843E1
2.818776016E1,-2.830411911E0,-3.210288286E0,1.095719719E1,1.176339036E1
2.820710830E1,-3.308841705E0,-2.594446182E0,9.991557121E0,1.084023976E1
2.822648696E1,-3.980388641E0,-2.309507608E0,6.520961761E0,7.981244353E0
2.824583511E1,-4.753379345E0,-2.514221191E0,1.090510368E0,5.486814764E0
2.826521377E1,-3.456345797E0,-6.124592304E0,-3.084446907E0,7.679242793E0
2.828456191E1,-4.088850021E-1,-1.216953182E1,-7.984713554E0,1.456091832E1
2.830394058E1,1.932544708E0,-1.474515915E1,-2.212116432E1,2.665521259E1
2.832331924E1,5.881864071E0,-1.015813637E1,-3.807752228E1,3.984572452E1
2.834266738E1,7.234329700E0,-7.076249123E0,-3.387311554E1,3.535246504E1
2.836204605E1,2.377684116E0,-1.276184273E1,-2.633630753E1,2.936186482E1
2.838139419E1,-4.481934547E0,-1.455344772E1,-1.744815826E1,2.315877382E1
2.840080337E1,-7.122702599E0,-1.127564621E1,-9.554651260E0,1.640623206E1
2.842018203E1,-5.743964195E0,-8.396141052E0,-1.455765247E0,1.027655398E1
2.843953018E1,-2.552373886E0,-6.796736717E0,4.427420139E0,8.503663419E0
2.845890884E1,-1.807624817E0,-5.279467106E0,7.114143848E0,9.041643827E0
2.847828750E1,-2.389202595E0,-4.228833675E0,8.988734245E0,1.021707721E1
2.849763565E1,-2.880933523E0,-3.349420071E0,9.550714493E0,1.052304804E1
2.851701431E1,-3.160142183E0,-3.193295956E0,9.093151093E0,1.014243730E1
2.853636245E1,-2.871829748E0,-3.349460125E0,8.100211143E0,9.223866315E0
2.855574111E1,-2.126402617E0,-4.015767097E0,7.603071213E0,8.857463821E0
2.857511978E1,-1.087479830E0,-4.852909088E0,7.761713505E0,9.218326070E0
2.859446792E1,-8.186156750E-1,-5.006263733E0,7.786459923E0,9.293103159E0
2.861384658E1,-1.021654367E0,-4.922286510E0,7.380815506E0,8.930236261E0
2.863319473E1,-1.590814590E0,-4.763677597E0,5.789853573E0,7.664575638E0
2.865260391E1,-1.984781742E0,-5.236224174E0,2.815641880E0,6.267793979E0
2.867195205E1,-2.631814003E0,-5.248424530E0,-4.662786484E0,7.497598468E0
2.869133071E1,-2.892248392E0,-4.461449623E0,-1.553312683E1,1.641790677E1
2.871070938E1,-2.271716118E0,-5.734323502E0,-2.300296402E1,2.381553094E1
2.873008804E1,-7.465994358E-1,-9.345196724E0,-2.739017868E1,2.895016409E1
2.874943618E1,2.728586197E-1,-1.203128433E1,-3.025775909E1,3.256314235E1
2.876881484E1,-4.251599312E-2,-1.021491814E1,-2.840217781E1,3.018327458E1
2.878816299E1,-2.285865307E0,-8.291379929E0,-2.296637726E1,2.452400142E1
2.880754165E1,-4.214766026E0,-8.016916275E0,-1.595586586E1,1.834733917E1
2.882692031E1,-3.355218887E0,-7.268063545E0,-1.020643044E1,1.297125529E1
2.884626846E1,-1.891705036E0,-7.760808945E0,-3.632702351E0,8.775262377E0
2.886564712E1,-2.255092144E0,-6.748405457E0,2.459448338E0,7.528300134E0
2.888502578E1,-4.180015564E0,-5.205689907E0,7.407642841E0,9.972206877E0
2.890437393E1,-5.397732735E0,-4.428166866E0,1.085962105E1,1.291028852E1
2.892375259E1,-6.143150330E0,-3.044826031E0,1.280818081E1,1.452786141E1
2.894310073E1,-5.524224281E0,-1.409827709E0,1.285676003E1,1.406417244E1
2.896250991E1,-4.049184322E0,-1.195113659E0,1.126713181E1,1.203214235E1
2.898188857E1,-2.597702980E0,-1.959103584E0,1.011523724E1,1.062563749E1
2.900123672E1,-1.005728245E0,-2.823278427E0,9.682040215E0,1.013529936E1
2.902061538E1,-1.202705145E0,-2.947937012E0,9.150361061E0,9.688443623E0
2.903996353E1,-2.573700428E0,-3.018362522E0,7.529086113E0,8.510087185E0
2.905934219E1,-3.614912510E0,-3.511585712E0,6.722544670E0,8.401870834E0
2.907872085E1,-3.743408442E0,-4.293693542E0,6.633618355E0,8.743786564E0
2.909806899E1,-3.182647228E0,-5.204725742E0,7.668400764E0,9.799121579E0
2.911744766E1,-2.609719038E0,-5.565550804E0,8.539263725E0,1.052164503E1
2.913679580E1,-2.576217651E0,-5.318580627E0,9.460688591E0,1.115476696E1
2.915617446E1,-3.132392883E0,-4.629158497E0,9.572555542E0,1.108489121E1
2.917555312E1,-3.751027346E0,-3.971785545E0,6.802690506E0,8.724785653E0
2.919490127E1,-4.410196304E0,-4.827322006E0,1.825929642E0,6.788732448E0
2.921427993E1,-4.600106239E0,-6.277991772E0,-6.079932213E0,9.876220624E0
2.923365859E1,-4.769577980E0,-9.601016998E0,-1.407841969E1,1.769548819E1
2.925303726E1,-1.892623425E0,-1.131666946E1,-2.341570282E1,2.607573910E1
2.927241592E1,4.622847080E0,-4.771608829E0,-3.653540802E1,3.713455271E1
2.929176406E1,5.404838562E0,-3.111585617E0,-3.283287811E1,3.341993612E1
2.931114273E1,2.269517899E0,-1.046138191E1,-2.652366066E1,2.860237399E1
2.933052139E1,-2.234293938E0,-1.262510395E1,-1.688877106E1,2.120414834E1
2.934986953E1,-5.694064140E0,-9.817312241E0,-8.710232735E0,1.430629723E1
2.936924819E1,-6.134323597E0,-7.403347492E0,-3.370847225E0,1.018833112E1
2.938859634E1,-4.625955582E0,-6.255326748E0,8.167891502E-1,7.822769476E0
2.940797500E1,-3.185509205E0,-5.606496334E0,4.471413136E0,7.846897824E0
2.942735366E1,-3.052038193E0,-4.955887794E0,7.314762592E0,9.347807911E0
2.944670181E1,-4.090120792E0,-3.872726917E0,8.867427826E0,1.050515960E1
2.946608047E1,-4.925837040E0,-3.207328796E0,9.682993889E0,1.132745334E1
2.948545913E1,-5.253274441E0,-2.871509552E0,9.809312820E0,1.149195708E1
2.950480728E1,-5.006391525E0,-3.102867126E0,9.670740128E0,1.132320428E1
2.952418594E1,-4.411859035E0,-3.574368954E0,9.579587936E0,1.113593816E1
2.954356460E1,-3.806197643E0,-3.769676685E0,9.283942223E0,1.071863732E1
2.956294326E1,-3.433271170E0,-3.815515995E0,8.912061691E0,1.028447164E1
2.958232192E1,-3.280869484E0,-3.778980255E0,8.621982574E0,9.969121318E0
2.960167007E1,-2.832383156E0,-3.627125740E0,7.757493019E0,9.019818924E0
2.962104873E1,-2.193652868E0,-3.325508118E0,4.419332027E0,5.949925438E0
2.964039688E1,-2.449847221E0,-4.023262501E0,-8.458838463E-1,4.785803176E0
2.965977554E1,-3.078259706E0,-6.189822674E0,-9.536878586E0,1.177886415E1
2.967915420E1,-3.148357868E0,-5.742870331E0,-1.849571800E1,1.962101683E1
2.969850234E1,-3.062759876E0,-5.226375103E0,-1.945876694E1,2.037987010E1
2.971788101E1,-1.164086819E0,-8.002977371E0,-1.902061844E1,2.066849464E1
2.973725967E1,1.953770161E0,-9.989519119E0,-1.643027878E1,1.932774614E1
2.975660781E1,4.700565338E-2,-9.640054703E0,-1.160331345E1,1.508541505E1
2.977598648E1,-3.846547604E0,-8.670547485E0,-8.679002762E0,1.285688186E1
2.979533462E1,-6.429563999E0,-7.965003014E0,-6.903354645E0,1.234653278E1
2.981471328E1,-6.828894615E0,-7.247744083E0,-5.491377354E0,1.137184335E1
2.983412246E1,-5.412403584E0,-6.312730312E0,-3.553462505E0,9.042774592E0
2.985347061E1,-3.950099468E0,-5.653803349E0,-2.042850018E0,7.193192220E0
2.987284927E1,-3.349532127E0,-5.219543934E0,-6.454281807E-1,6.235349380E0
2.989219741E1,-2.996362686E0,-5.026328564E0,1.106222630E0,5.955325069E0
2.991157607E1,-3.195390940E0,-5.022301197E0,2.617504120E0,6.502719461E0
2.993095474E1,-3.742223501E0,-5.112079620E0,3.407146931E0,7.193486289E0
2.995030288E1,-3.861346245E0,-5.027876377E0,2.948208809E0,6.991528507E0
2.996968154E1,-3.856933594E0,-4.969265938E0,2.129233360E0,6.641022166E0
2.998902969E1,-3.827964783E0,-4.730608940E0,7.804431915E-1,6.135231609E0
3.000840835E1,-3.741423845E0,-4.791345596E0,-8.163862228E-1,6.133655637E0
