"Time (s)","Linear Acceleration x (m/s^2)","Linear Acceleration y (m/s^2)","Linear Acceleration z (m/s^2)","Absolute acceleration (m/s^2)"
1.718901380E-1,4.077623844E0,2.585807419E1,7.291357040E0,2.717408516E1
1.912382830E-1,4.784679413E0,2.989416504E1,1.717190742E-1,3.027513415E1
2.106169450E-1,3.814990997E0,3.157274055E1,1.923400640E0,3.186050176E1
2.299650900E-1,-1.151244640E0,2.329529190E1,2.025709867E0,2.341152471E1
2.493437520E-1,-2.285819530E0,1.118619919E1,-7.409133911E-1,1.144137124E1
2.687224140E-1,-1.267625809E0,8.781337738E-1,-2.277831078E0,2.750728728E0
2.880705580E-1,-6.016047001E-1,-6.623161316E0,-2.334342003E0,7.048215846E0
3.074492200E-1,8.123528957E-1,-1.006706047E1,-1.378106475E0,1.019337045E1
3.267973650E-1,1.165302515E0,-1.033556747E1,-1.012254477E0,1.045019350E1
3.461760270E-1,8.927884102E-1,-1.074431610E1,-1.560545921E0,1.089370016E1
3.655852070E-1,1.147300243E0,-1.167877769E1,-3.853647470E0,1.235154829E1
3.849333510E-1,2.250032187E0,-1.235460377E1,-5.244482040E0,1.360894819E1
4.043120130E-1,3.347818136E0,-1.110864162E1,-3.727787733E-1,1.160813374E1
4.236906750E-1,4.375896454E0,-1.017162704E1,3.090259314E0,1.149609365E1
4.430388200E-1,3.612034321E0,-9.513380051E0,2.973399639E0,1.060152335E1
4.624174820E-1,3.012737274E0,-8.666802406E0,-3.372875452E-1,9.181710773E0
4.817656270E-1,3.178504705E0,-8.227316856E0,-1.156851768E0,8.895501157E0
5.011442890E-1,3.017419815E0,-8.717868805E0,-2.168582916E0,9.476751063E0
5.205229510E-1,2.771205664E0,-9.024561882E0,-2.510960102E0,9.768685614E0
5.398710950E-1,2.110858917E0,-9.550272942E0,-2.764098167E0,1.016384166E1
5.592497570E-1,1.237723112E0,-1.001270866E1,-2.466531277E0,1.038605170E1
5.785979020E-1,7.454814911E-1,-9.927927017E0,-1.958955050E0,1.014677202E1
5.979765640E-1,1.071613789E0,-8.845620155E0,-1.063772321E0,8.973570281E0
6.173552260E-1,1.632593632E0,-8.966685295E0,-1.117070556E0,9.182301115E0
6.367033710E-1,5.408806801E-1,-7.811644554E0,-4.079809189E0,8.829449902E0
6.561350980E-1,-1.311573744E0,-4.956386566E0,-5.799799442E0,7.741037854E0
6.754832430E-1,-1.892963052E0,5.316008568E0,5.450788498E0,7.845658128E0
6.948619050E-1,-7.398777008E-1,2.023288727E1,7.514017105E0,2.159577735E1
7.142405670E-1,1.873045921E0,5.979154968E1,3.793997526E0,5.994107216E1
7.335887120E-1,8.004919052E0,2.005283546E1,7.447763443E0,2.283996759E1
7.529673740E-1,1.247720242E0,1.100263405E1,6.098956108E0,1.264167819E1
7.723460360E-1,2.841484070E0,1.144474506E1,2.143119097E0,1.198537362E1
7.916941800E-1,1.033324838E0,1.014704037E1,-3.809163570E0,1.088760376E1
8.110728430E-1,-1.444553375E0,7.233970642E0,-3.555567741E0,8.188963773E0
8.304209870E-1,9.898889065E-2,2.504513741E0,-1.838982701E0,3.108736922E0
8.497996490E-1,2.935551405E-1,-3.084038734E0,-1.886851549E0,3.627351417E0
8.691783110E-1,-8.852295876E-1,-6.505695343E0,-1.758671761E0,6.797104507E0
8.885264560E-1,-2.538185596E0,-8.405520439E0,-1.531248808E0,8.912905412E0
9.079051180E-1,-1.391739964E0,-1.043508911E1,-3.490147114E0,1.109094909E1
9.272532630E-1,7.338716984E-1,-1.298504734E1,-3.291732788E0,1.341586847E1
9.466624420E-1,2.936342716E0,-1.430611420E1,-9.520256519E-1,1.463534642E1
9.660411040E-1,4.687724590E0,-1.211973190E1,-4.853278399E-1,1.300377662E1
9.853892490E-1,3.728257895E0,-7.789220810E0,-1.952773809E0,8.853541286E0
1.004767911E0,1.903688908E0,-6.006143570E0,-2.829684019E0,6.906873655E0
1.024116055E0,5.386335850E-1,-5.849156380E0,-1.792012334E0,6.141177794E0
1.043494718E0,2.201467752E-1,-5.204575539E0,-1.397223234E0,5.393357387E0
1.062873380E0,-2.047499418E-1,-3.337089539E0,-1.247877836E0,3.568653559E0
1.082221524E0,-2.046278715E0,4.225730896E-1,5.667777061E-1,2.164962255E0
1.101600186E0,-3.803029537E0,3.201216698E0,5.200562477E0,7.194211012E0
1.120948331E0,3.137799740E0,8.913325310E0,8.457855225E0,1.268181652E1
1.140326993E0,8.113745689E0,2.716783905E1,5.958277225E0,2.897283927E1
1.159705655E0,6.704928398E0,3.948380280E1,1.061986923E0,4.006313223E1
1.179053800E0,6.719374657E0,3.015700531E1,4.261330128E0,3.118900286E1
1.198432462E0,1.261435270E0,1.687183762E1,1.536952019E0,1.698859456E1
1.217811124E0,-2.408606529E0,7.991562843E0,-1.056972742E0,8.413302174E0
1.237189786E0,-3.426301956E0,-5.893526077E-1,-2.302101612E0,4.169718626E0
1.256568448E0,-2.240251064E0,-6.593486786E0,-2.288486004E0,7.330072375E0
1.275916593E0,1.958508492E-1,-9.193515778E0,-2.259045839E0,9.469022020E0
1.295295255E0,1.649773121E0,-9.053842545E0,-2.492170811E0,9.534397282E0
1.314673917E0,2.028900385E0,-9.104146957E0,-1.977800846E0,9.534863648E0
1.334022061E0,1.601623058E0,-9.081580162E0,-4.641097069E0,1.032376272E1
1.353400723E0,1.274519205E0,-8.373764992E0,-4.520493031E0,9.600999770E0
1.372748868E0,2.714433908E0,-9.856480598E0,1.249127150E0,1.029945046E1
1.392127530E0,4.108637810E0,-1.197847843E1,3.724428177E0,1.319985664E1
1.411506192E0,3.629096985E0,-1.181356716E1,1.012911081E0,1.239986705E1
1.430854337E0,2.785159826E0,-1.074664593E1,-2.120077610E0,1.130231140E1
1.450232999E0,2.990653515E0,-9.038840294E0,-2.545104504E0,9.855059576E0
1.469581143E0,3.215161085E0,-8.236899376E0,-9.813404083E-1,8.896448793E0
1.488959805E0,2.175224304E0,-8.605206490E0,-4.070899487E-1,8.885206904E0
1.508338468E0,7.918169498E-1,-9.441625595E0,-1.351924181E0,9.570734922E0
1.527717130E0,3.518542051E-1,-9.713947296E0,-1.689530969E0,9.866057386E0
1.547095792E0,5.619006157E-1,-9.391825676E0,-1.706804037E0,9.562180810E0
1.566443936E0,7.107567787E-1,-9.290793419E0,-1.860824704E0,9.501930653E0
1.585822598E0,-5.581034422E-1,-7.137222290E0,-3.419776917E0,7.933870154E0
1.605201261E0,-3.227638721E0,-2.847394943E0,-6.888063908E0,8.122237012E0
1.624549405E0,-6.092048645E0,1.073261929E1,-8.954131603E-2,1.234140150E1
1.643928067E0,3.388804674E0,2.723217201E1,1.689607048E1,3.222657890E1
1.663276212E0,4.146417141E0,4.398031998E1,-4.848025322E0,4.444057459E1
1.682654874E0,4.878957272E0,1.993174744E1,1.018126011E1,2.290713507E1
1.702033536E0,2.831446171E0,1.442082787E1,7.029032707E-1,1.471296832E1
1.721381680E0,2.257921219E0,1.066686821E1,4.686527252E-1,1.091329103E1
1.740760343E0,4.152655602E-3,3.422164917E0,-3.281598091E0,4.741320069E0
1.760139005E0,-1.559104204E0,-1.839832306E0,-3.292613029E0,4.081309765E0
1.779487149E0,-9.350758791E-1,-4.442337990E0,-1.538573503E0,4.793322662E0
1.798926847E0,5.697448254E-1,-6.063951492E0,-1.198974252E0,6.207548318E0
1.818244473E0,2.944343090E-1,-7.871162415E0,-1.168758154E0,7.962906815E0
1.837623136E0,8.095097542E-2,-8.972719193E0,-1.621814370E0,9.118471616E0
1.857001798E0,5.100318193E-1,-1.023768139E1,-3.050765991E0,1.069473823E1
1.876349942E0,9.897358418E-1,-1.162028408E1,-4.043146610E0,1.234332263E1
1.895728604E0,1.925251722E0,-1.235901260E1,-3.332822323E0,1.294447725E1
1.915076749E0,2.915977955E0,-1.145536709E1,-5.734201670E-1,1.183457533E1
1.934455411E0,2.543998718E0,-1.042876339E1,-4.002287388E-1,1.074203046E1
1.953834073E0,-5.983710289E-3,-8.831844330E0,-1.508105636E0,8.959681505E0
1.973182218E0,-1.840488672E0,-6.125358582E0,-2.750258684E0,6.962136104E0
1.992560880E0,-1.648653269E0,1.600114822E0,-4.008293152E0,4.620047515E0
2.011909024E0,-1.575757980E0,1.691857910E1,1.257233906E1,2.113729030E1
2.031287686E0,7.176669121E0,1.129338646E1,3.326001167E0,1.378794550E1
2.050666348E0,7.680047989E0,1.715703583E1,6.664934158E0,1.994413104E1
2.070014493E0,5.082638264E0,2.699955750E1,5.114242554E0,2.794574732E1
2.089423673E0,5.332018852E0,2.842535400E1,5.839293003E0,2.950472027E1
2.108802335E0,2.931061745E0,2.119818687E1,3.993476629E0,2.176929271E1
2.128150479E0,8.855069876E-1,1.406016827E1,4.829769135E-1,1.409630168E1
2.147529141E0,-3.934836388E-2,6.099977493E0,-3.524767160E0,7.045229396E0
2.166877286E0,-1.979724169E0,-1.109728813E0,-3.144971848E0,3.878357094E0
2.186255948E0,-1.193134785E0,-6.334879875E0,-2.323039770E0,6.852064464E0
2.205634610E0,2.480103970E-1,-7.953074455E0,-1.830045700E0,8.164678176E0
2.224982755E0,5.443418026E-1,-8.872319221E0,-1.751690626E0,9.059954548E0
2.244361417E0,5.170826912E-1,-9.686117172E0,-2.280588150E0,9.964402777E0
2.263709561E0,9.523265362E-1,-8.980210304E0,-5.113008022E0,1.037756975E1
2.283088223E0,3.000441313E0,-8.999970436E0,-1.391838431E0,9.588499890E0
2.302466886E0,4.470141411E0,-1.109818268E1,1.473334908E0,1.205497983E1
2.321815030E0,5.033336639E0,-1.253065014E1,5.174145699E-1,1.351367413E1
2.341193692E0,4.247689247E0,-1.201790810E1,1.085134745E0,1.279259537E1
2.360572354E0,3.546683311E0,-9.902971268E0,2.024025917E0,1.071188514E1
2.379951016E0,3.260335445E0,-8.639780045E0,-2.467035055E-1,9.237772949E0
2.399329679E0,2.205554962E0,-8.690938950E0,-2.795133829E0,9.392000087E0
2.418677823E0,1.616517425E0,-9.094749451E0,-2.946813107E0,9.695942638E0
2.438056485E0,1.318737626E0,-9.683431625E0,-2.679219246E0,1.013341664E1
2.457404630E0,6.886279583E-1,-1.005980778E1,-2.702613354E0,1.043925572E1
2.476783292E0,-1.090121269E-2,-1.012877083E1,-2.358803988E0,1.039981123E1
2.496192472E0,-5.328838825E-1,-9.015403748E0,-2.369522333E0,9.336814556E0
2.515510098E0,-1.266135931E0,-5.640010834E0,-3.467102528E0,6.740446746E0
2.534888761E0,-2.961765766E0,2.355127335E-1,-6.317384720E0,6.981179872E0
2.554267423E0,-4.680445671E0,1.622864532E1,8.416013718E0,1.887073893E1
2.573615567E0,2.195527077E0,3.410367966E1,8.644909859E0,3.525075562E1
2.592994229E0,6.724888325E0,2.411250305E1,4.852078438E0,2.549861941E1
2.612342374E0,6.921415806E0,1.989578247E1,2.698487520E0,2.123746670E1
2.631721036E0,4.646115780E0,1.743191338E1,3.588004589E0,1.839379713E1
2.651099698E0,2.915493011E0,1.061335182E1,3.419061422E0,1.152533372E1
2.670478360E0,8.518754244E-1,4.309102058E0,-1.732220531E0,4.721720053E0
2.689857022E0,-9.722092152E-1,1.115802765E0,-3.655955315E0,3.944136893E0
2.709205167E0,-8.555085659E-1,-2.986249924E-1,-3.430078506E0,3.547747222E0
2.728614347E0,-3.868839741E-1,-3.605077744E0,-1.498315930E0,3.923163949E0
2.747962491E0,-6.866812706E-2,-6.614419937E0,-1.976958513E-1,6.617729978E0
2.767310636E0,-4.216337204E-2,-8.497910500E0,-6.046563983E-1,8.519499397E0
2.786689298E0,4.917314053E-1,-9.691574097E0,-1.442471385E0,9.810664195E0
2.806037442E0,1.717045546E0,-1.074550915E1,-1.978589892E0,1.106024549E1
2.825416104E0,2.901210070E0,-1.166126251E1,-1.818329215E0,1.215353382E1
2.844794766E0,4.580078125E0,-1.105131340E1,-1.146358848E0,1.201760301E1
2.864142911E0,5.405642986E0,-9.706613541E0,-9.120913148E-1,1.114770080E1
2.883521573E0,2.724428654E0,-7.531373024E0,-9.702892900E-1,8.067561740E0
2.902869718E0,2.154953480E-1,-5.498837471E0,3.281446099E-1,5.512833270E0
2.922248380E0,-1.736772060E-1,-5.514317513E0,-3.677606583E-1,5.529295552E0
2.941657559E0,-8.779025078E-1,-3.727644920E0,-1.942400575E0,4.294062116E0
2.961036222E0,-2.417244196E0,-2.337713242E-1,-2.356189251E0,3.383688272E0
2.980384366E0,-5.757623911E-1,8.865509987E0,1.396060562E1,1.654772731E1
2.999763028E0,6.119047165E0,1.169510460E1,7.334896088E0,1.510029504E1
3.019111173E0,8.734103203E0,3.092005920E1,2.978611946E0,3.226773542E1
3.038489835E0,8.197338104E0,3.646578217E1,6.882994652E0,3.800427918E1
3.057837979E0,5.561435223E0,2.448328590E1,5.811315536E0,2.577076325E1
3.077216641E0,1.678284764E0,1.659318161E1,1.764291525E0,1.677089861E1
3.096595304E0,-4.999351501E-1,1.002051258E1,-8.301516771E-1,1.006726176E1
3.115943448E0,-3.177562237E0,1.000954628E0,-2.566402912E0,4.205381771E0
3.135322110E0,-3.920091152E0,-5.659050941E0,-6.817298532E-1,6.917855722E0
3.154670255E0,-2.078980207E0,-9.341504097E0,-9.410220385E-1,9.616204031E0
3.174048917E0,7.559621334E-1,-9.414532661E0,-1.682552099E0,9.593533528E0
3.193458097E0,3.171681643E0,-8.135317802E0,-2.458445311E0,9.071213454E0
3.212775723E0,4.846349239E0,-8.189533234E0,-4.565403938E0,1.055454730E1
3.232184903E0,5.122670174E0,-8.699611664E0,-4.150702477E0,1.091573744E1
3.251533048E0,4.261923790E0,-9.928058624E0,2.994099259E-1,1.080832960E1
3.270911710E0,3.043126106E0,-1.164159870E1,6.225468636E0,1.354783734E1
3.290290372E0,2.307559013E0,-1.198962784E1,4.868316174E0,1.314444775E1
3.309638516E0,2.148857117E0,-1.085234737E1,1.218361974E0,1.112993425E1
3.329017179E0,1.904773235E0,-8.928087234E0,-8.500568271E-1,9.168505841E0
3.348365323E0,2.026674747E0,-7.939659119E0,-8.756626844E-1,8.240896953E0
3.367743985E0,3.192109585E0,-8.530055046E0,1.427399516E-1,9.108884530E0
3.387122647E0,3.761305571E0,-9.041986465E0,-6.908493638E-1,9.817444254E0
3.406470792E0,3.510389090E0,-9.247457504E0,-1.736730099E0,1.004263577E1
3.425879972E0,2.683561087E0,-9.437652588E0,-2.252057076E0,1.006690357E1
3.445228116E0,1.448184013E0,-9.400006294E0,-1.872440577E0,9.693471462E0
3.464576261E0,1.201689243E-1,-8.272506714E0,-2.228053093E0,8.568140317E0
3.483954923E0,-1.302246809E0,-4.808245659E0,-2.549901009E0,5.596165493E0
3.503333585E0,-3.908479452E0,1.473035812E0,-1.270672798E0,4.365851062E0
3.522712247E0,-2.329027653E0,1.458024120E1,1.308031368E1,1.972567893E1
3.542090909E0,2.577599049E0,4.428147125E1,4.171377182E0,4.455213913E1
3.561439054E0,2.492606640E0,3.071893120E1,4.352160454E0,3.112566662E1
3.580817716E0,3.582313299E0,1.407911110E1,9.760844231E0,1.750224037E1
3.600165860E0,4.434872150E0,1.373122883E1,4.372326851E0,1.507753223E1
3.619544522E0,2.891167641E0,9.203269958E0,-9.510065317E-1,9.693474180E0
3.638923184E0,-1.748022437E0,4.333992958E0,-2.701984167E0,5.398128920E0
3.658301847E0,-2.524658442E0,1.530696869E0,-1.326882839E0,3.236904574E0
3.677649991E0,-5.039126873E-1,-6.801490784E-1,-7.063081861E-1,1.102452729E0
3.696998136E0,7.542691231E-1,-4.202747345E0,-4.809483886E-1,4.296896381E0
3.716376798E0,4.535853863E-1,-6.682106018E0,-1.603266478E0,6.886707772E0
3.735755460E0,-1.655404568E-1,-8.960333824E0,-1.954845190E0,9.172589907E0
3.755103604E0,3.557806015E-1,-1.127210236E1,-2.585511684E0,1.157029568E1
3.774482266E0,1.228818178E0,-1.269364262E1,-1.757079840E0,1.287345667E1
3.793860929E0,1.947437286E0,-1.322196102E1,9.513121843E-2,1.336494726E1
3.813239591E0,3.015832901E0,-1.110421276E1,1.010433435E-1,1.150691092E1
3.832618253E0,2.267363310E0,-8.931777000E0,-9.439476132E-1,9.263293899E0
3.851966397E0,1.525178671E0,-7.551165581E0,-2.034019709E0,7.967653844E0
3.871345059E0,1.305206776E0,-6.439110756E0,-2.410510302E0,6.998304935E0
3.890723722E0,1.081671953E0,-4.818196297E0,-1.873196721E0,5.281467194E0
3.910071866E0,3.312696218E-1,-1.517324448E0,4.741768837E-1,1.623840127E0
3.929450528E0,-7.718768120E-1,4.354756355E0,8.781045914E0,9.831910499E0
3.948798673E0,1.501549840E0,6.408345222E0,1.366044402E0,6.722173586E0
3.968177335E0,7.392618179E0,2.480888748E1,9.638929367E0,2.762319064E1
3.987555997E0,6.797038555E0,2.308134079E1,1.025599241E0,2.408318666E1
4.006904141E0,7.353493690E0,2.523970222E1,4.963858604E0,2.675362275E1
4.026282804E0,3.732281685E0,2.628959274E1,3.965484619E0,2.684767553E1
4.045630948E0,1.033774614E0,1.778915024E1,4.203378201E0,1.830822068E1
4.065009610E0,7.292602062E-1,8.154989243E0,9.371664524E-1,8.240992110E0
4.084388272E0,-1.028278708E0,2.641792297E-1,-2.495039463E0,2.711525344E0
4.103766934E0,-2.249143600E0,-5.611509323E0,-2.220608234E0,6.440402530E0
4.123145597E0,-9.182484150E-1,-9.485321999E0,-1.548825860E0,9.654707407E0
4.142493741E0,5.129234791E-1,-1.062880230E1,-2.094019175E0,1.084524989E1
4.161872403E0,1.808351278E0,-9.590487480E0,-2.617455959E0,1.010438816E1
4.181251065E0,3.596164465E0,-8.536415100E0,-4.033643246E0,1.010312127E1
4.200599210E0,3.893451691E0,-8.377184868E0,-2.601771593E0,9.597156235E0
4.219977872E0,3.353978634E0,-8.853376389E0,-9.342372417E-1,9.513371925E0
4.239326016E0,2.470736265E0,-1.013031673E1,3.311257362E0,1.094039671E1
4.258704679E0,3.178904057E0,-1.074542427E1,3.778575420E0,1.182570108E1
4.278083341E0,2.840206146E0,-1.082505322E1,9.790527821E-1,1.123419300E1
4.297431485E0,2.876575708E0,-1.010603237E1,-1.765424490E0,1.065473142E1
4.316810147E0,3.273112297E0,-9.074582100E0,-7.957645059E-1,9.679594286E0
4.336188809E0,2.841350317E0,-8.606907845E0,1.211948395E0,9.144449310E0
4.355567472E0,1.778835535E0,-8.555290222E0,1.546658278E0,8.874085782E0
4.374946134E0,1.141810656E0,-8.494918823E0,9.820147753E-1,8.627382593E0
4.394294278E0,1.579420567E0,-8.923507690E0,-1.876359284E-1,9.064147289E0
4.413672940E0,2.149218082E0,-9.003411293E0,-1.368179917E0,9.356947663E0
4.433051602E0,2.077171803E0,-8.340911865E0,-2.432507753E0,8.933227155E0
4.452399747E0,-4.623316526E-1,-6.123257637E0,-3.479393005E0,7.057918272E0
4.471778409E0,-3.767712593E0,1.587388039E0,-1.613053322E0,4.395156424E0
4.491126554E0,8.679032326E-3,1.220683384E1,1.385971165E1,1.846885147E1
4.510505216E0,8.180561066E0,4.836683273E1,-2.446899891E0,4.911475753E1
4.529883878E0,4.682347298E0,3.397314835E1,8.652759552E0,3.536904625E1
4.549232022E0,-1.510232687E-1,1.067415714E1,7.738401890E0,1.318496502E1
4.568610684E0,2.735388279E0,1.177323151E1,3.652379513E0,1.262660704E1
4.587989347E0,2.957222939E0,8.990248680E0,-1.706014752E0,9.616663932E0
4.607337491E0,-2.552107573E-1,6.554953575E0,-2.653635025E0,7.076321626E0
4.626716153E0,-8.350744247E-1,4.243153572E0,-2.403589249E0,4.947619913E0
4.646064298E0,-2.278329134E-1,-5.553035736E-1,-8.318755627E-1,1.025810337E0
4.665473477E0,1.015517712E-1,-5.514561653E0,-9.356358647E-1,5.594293294E0
4.684852139E0,-1.819076538E-1,-7.646967888E0,-1.855397940E0,7.870940845E0
4.704200284E0,2.817796469E-1,-8.853831291E0,-2.583469391E0,9.227352946E0
4.723578946E0,1.186068177E0,-9.300496101E0,-2.829142094E0,9.793366655E0
4.742927091E0,1.839051008E0,-1.044444180E1,-2.465415478E0,1.088791745E1
4.762305753E0,2.315768719E0,-1.154656219E1,-1.549081206E0,1.187794325E1
4.781684415E0,3.034348488E0,-1.106183529E1,-1.074246407E0,1.152065432E1
4.801032559E0,2.900546551E0,-9.203985214E0,-9.786372185E-1,9.699703342E0
4.820411222E0,1.808208227E0,-7.140511513E0,-1.206269145E0,7.464020827E0
4.839759366E0,7.539258003E-1,-5.637637138E0,-1.101641059E0,5.793528255E0
4.859138028E0,4.993650913E-1,-5.265379906E0,-1.872143626E0,5.610571522E0
4.878516690E0,9.741376638E-1,-3.831855774E0,-6.125266552E-1,4.000906368E0
4.897864835E0,1.780926943E0,-9.154911041E-1,5.137633801E0,5.514082499E0
4.917243497E0,-9.848738909E-1,-1.107375145E0,1.840430975E0,2.362930906E0
4.936622159E0,-3.332667351E-1,5.284086227E0,-3.330743551E0,6.255116832E0
4.956000821E0,4.488572121E0,1.983107948E1,1.103041744E1,2.313199304E1
4.975379483E0,5.478619576E0,2.446516037E1,2.213430166E0,2.516860380E1
4.994727628E0,5.716302872E0,2.904574203E1,4.248637199E0,2.990622288E1
5.014106290E0,4.318969250E0,2.784072113E1,4.239741325E0,2.849095742E1
5.033454434E0,2.138116360E0,1.893096542E1,3.824790001E0,1.943146963E1
5.052833097E0,7.107663155E-2,1.164698219E1,-3.697575331E-1,1.165306684E1
5.072211759E0,-1.884675026E0,4.271036148E0,-2.154481649E0,5.141550438E0
5.091559903E0,-1.317355871E0,-2.160225868E0,-2.110156536E0,3.294656720E0
5.110938565E0,1.016045451E0,-7.462403297E0,-1.749879241E0,7.731874850E0
5.130286710E0,1.537124872E0,-1.044937611E1,-2.431349277E0,1.083806593E1
5.149665372E0,9.596686363E-1,-1.061487198E1,-2.244256258E0,1.089188492E1
5.169044034E0,1.421057701E0,-1.051807404E1,-1.894797802E0,1.078144448E1
5.188392179E0,1.186326742E0,-1.070886612E1,-2.027870655E0,1.096355071E1
5.207770841E0,2.719361782E-1,-1.137715912E1,-2.405315876E0,1.163182029E1
5.227149503E0,1.650735855E0,-1.112653160E1,9.202474356E-1,1.128589782E1
5.246528165E0,3.468731880E0,-1.130195618E1,9.804700017E-1,1.186286794E1
5.265906827E0,3.140829086E0,-1.097983074E1,-2.514672279E-1,1.142299112E1
5.285254972E0,3.107561111E0,-9.430053711E0,8.387488127E-2,9.929243881E0
5.304633634E0,4.368107796E0,-7.788256645E0,2.262912512E0,9.211844567E0
5.324012296E0,5.009357929E0,-7.859161377E0,2.548803806E0,9.662115982E0
5.343360440E0,4.015376091E0,-8.352088928E0,-1.518042684E-1,9.268423769E0
5.362739102E0,2.689025640E0,-9.135839462E0,-2.450499535E0,9.833583759E0
5.382087247E0,1.960050344E0,-9.218078613E0,-2.078636646E0,9.650673602E0
5.401465909E0,1.679497004E0,-9.001694679E0,-1.298355460E0,9.248618501E0
5.420844571E0,1.424955606E0,-8.784776688E0,-1.222619176E0,8.983184156E0
5.440192716E0,2.092003822E-2,-6.903715134E0,-2.553892612E0,7.360984158E0
5.459571378E0,-2.594144106E0,-3.188776970E0,-5.515775681E0,6.879074325E0
5.478919522E0,-6.321783066E0,6.090451241E0,-6.088465691E0,1.068306847E1
5.498298184E0,-2.793824673E0,2.927328110E1,1.643640518E1,3.368806699E1
5.517707364E0,3.202999115E0,5.040485001E1,6.663712502E0,5.094421627E1
5.537055509E0,6.079821587E0,1.963055420E1,9.675506592E0,2.271427561E1
5.556434171E0,5.471650124E0,1.830599594E1,-9.357292652E-1,1.912914090E1
5.575812833E0,2.541248560E0,1.136922169E1,-1.060646892E0,1.169795358E1
5.595160977E0,-2.086813927E0,5.837484360E0,-2.386338949E0,6.642712518E0
5.614539639E0,-3.511265278E0,1.036658287E0,-1.990493536E0,4.167218350E0
5.633887784E0,-1.348781824E0,-3.418085098E0,-8.264631033E-1,3.766372181E0
5.653266446E0,9.483251572E-1,-6.545305252E0,-2.057568312E0,6.926321448E0
5.672645108E0,1.144899368E0,-8.436458588E0,-1.951565146E0,8.734599853E0
5.691993253E0,1.183150768E0,-9.608767509E0,-2.271105051E0,9.944152902E0
5.711371915E0,1.614640474E0,-1.078554630E1,-2.846164227E0,1.127101254E1
5.730720059E0,1.894987822E0,-1.186765194E1,-2.320300817E0,1.223993208E1
5.750098722E0,2.817163944E0,-1.310946941E1,-6.391682625E-1,1.342397620E1
5.769477384E0,4.160841942E0,-1.212098026E1,9.630755782E-1,1.285139225E1
5.788825528E0,4.363308907E0,-9.898577690E0,4.171240330E-1,1.082563150E1
5.808234708E0,3.476280451E0,-8.403326035E0,-3.519555330E-1,9.100784961E0
5.827582852E0,2.308920145E0,-7.370586395E0,-1.770214438E0,7.924034023E0
5.846961514E0,1.043667793E0,-6.288202286E0,-1.797155619E0,6.622725932E0
5.866340177E0,6.093881130E-1,-2.661509514E0,8.740350008E-1,2.866866573E0
5.885688321E0,-2.432875156E0,2.193601608E0,2.649824142E0,4.213352291E0
5.905066983E0,-4.529490948E0,1.979475594E1,-3.887040615E-1,2.031008965E1
5.924415128E0,7.863697529E0,3.635242462E1,1.468603039E1,3.998769815E1
5.943793790E0,7.508224964E0,1.887062073E1,3.379158974E0,2.058864940E1
5.963172452E0,4.231576443E0,2.339636040E1,3.913842678E0,2.409593500E1
5.982520597E0,4.404960632E0,2.360214615E1,3.701709986E0,2.429336613E1
6.001899259E0,1.020388842E0,1.399120331E1,4.428633451E-1,1.403535149E1
6.021247403E0,-2.642214298E0,5.761254311E0,-1.101780057E0,6.433293629E0
6.040626065E0,-2.899577141E0,-1.986246109E-1,-3.036185980E0,4.203025653E0
6.060004727E0,-6.439352036E-1,-6.208188057E0,-2.024047852E0,6.561480108E0
6.079383389E0,1.557661533E0,-8.984795570E0,-2.423195362E0,9.435292081E0
6.098762052E0,2.032155991E0,-7.613795280E0,-2.223064423E0,8.187890569E0
6.118140714E0,1.574044704E0,-8.643058777E0,-3.614956856E0,9.499894464E0
6.137488858E0,8.891000748E-1,-1.075128841E1,-5.312043190E0,1.202491182E1
6.156867520E0,1.474418402E0,-1.272842503E1,-2.173616648E0,1.299658888E1
6.176215665E0,3.323552608E0,-1.277808380E1,2.124656200E0,1.337309207E1
6.195594327E0,3.959959269E0,-1.153247738E1,1.654394150E0,1.230513437E1
6.214972989E0,3.900220633E0,-9.884613037E0,2.540659904E-1,1.062929186E1
6.234321134E0,4.255118370E0,-7.618931770E0,-4.884374142E-1,8.740293174E0
6.253699796E0,4.002491951E0,-7.174558640E0,-1.567751169E-1,8.216983140E0
6.273047940E0,2.882074356E0,-8.172739983E0,-3.697077036E-1,8.673910030E0
6.292426602E0,1.553190231E0,-9.174977303E0,-1.061728120E0,9.365888906E0
6.311805264E0,6.190855503E-1,-9.770835876E0,-1.804827809E0,9.955395726E0
6.331153409E0,6.098005772E-1,-1.021752453E1,-2.237719059E0,1.047745441E1
6.350532071E0,8.172205687E-1,-1.025085831E1,-2.098448753E0,1.049530527E1
6.369910733E0,5.708726645E-1,-9.422497749E0,-2.243747711E0,9.702770905E0
6.389289395E0,-1.247224331E0,-5.732640266E0,-2.546391964E0,6.395533206E0
6.408668057E0,-2.716104031E0,2.664260864E-1,-3.767994404E0,4.652524669E0
6.428016202E0,-2.385012865E0,1.432654476E1,3.783404589E0,1.500840836E1
6.447394864E0,6.247962475E0,4.249808502E1,1.651772308E1,4.602129335E1
6.466773526E0,8.889714241E0,3.369144821E1,4.269495487E0,3.510511777E1
6.486121671E0,7.216321468E0,1.626697922E1,-2.372218609E0,1.795319831E1
6.505500333E0,3.180941820E0,1.257996655E1,-1.146557808E0,1.302645554E1
6.524848477E0,2.688491821E0,7.263669014E0,-2.476457357E-1,7.749206684E0
6.544227139E0,-1.167339087E0,1.011182785E0,-9.645112753E-1,1.820838589E0
6.563605802E0,-1.996572495E0,-3.373933792E0,-1.890184522E0,4.352301516E0
6.582953946E0,-1.063679457E0,-4.718338013E0,-2.532039881E0,5.459427950E0
6.602332608E0,-2.363960743E-1,-6.475556374E0,-2.183251381E0,6.837784732E0
6.621680753E0,3.959670067E-1,-8.127089500E0,-1.594906330E0,8.291567995E0
6.641059415E0,1.106861115E0,-9.439946175E0,-1.237601995E0,9.584851799E0
6.660468595E0,2.069835186E0,-1.001161957E1,-2.217614174E0,1.046109730E1
6.679816739E0,2.456891537E0,-1.023470592E1,-3.442606211E0,1.107416177E1
6.699195401E0,2.823968172E0,-9.419564247E0,-3.982983589E0,1.060976650E1
6.718543546E0,2.079717636E0,-9.183957100E0,-3.463683605E0,1.003331439E1
6.737922208E0,7.886121273E-1,-8.104969025E0,-2.219669819E0,8.440341586E0
6.757300870E0,-1.133010983E0,-5.053870201E0,8.303870559E-1,5.245460948E0
6.776649014E0,-8.979810476E-1,-2.442281723E0,1.512548208E0,3.009802661E0
6.796027677E0,1.472902179E0,1.278208733E0,-2.379298210E-3,1.950195901E0
6.815375821E0,1.405752301E0,7.734164238E0,3.402107954E0,8.565499082E0
6.834754483E0,2.963295460E0,1.146772385E1,7.467370033E-1,1.186791584E1
6.854133145E0,6.332583427E0,1.363779926E1,1.590745687E0,1.512023986E1
6.873481290E0,5.701505184E0,1.340717697E1,5.279063225E0,1.549606609E1
6.892859952E0,4.653275967E0,2.273665237E1,6.414591789E0,2.407810886E1
6.912238614E0,3.445660591E0,2.395231247E1,5.487071991E0,2.481317812E1
6.931586759E0,8.264138699E-1,1.760058212E1,1.881868124E0,1.772018280E1
6.950995938E0,-1.169168353E0,1.011678314E1,-1.963608861E0,1.037169299E1
6.970344083E0,-1.281818867E0,2.477600098E0,-2.747511625E0,3.915403170E0
6.989722745E0,-2.438102961E0,-3.193393707E0,-3.301440239E0,5.200155485E0
7.009101407E0,-2.343249798E0,-6.138789177E0,-2.946686745E0,7.201285645E0
7.028449552E0,-1.386860847E0,-5.936248779E0,-1.506052971E0,6.279381190E0
7.047828214E0,1.436260700E0,-5.866130829E0,-3.543501198E-1,6.049785096E0
7.067176358E0,4.041209221E0,-8.351397514E0,1.855790615E-3,9.277780761E0
7.086555020E0,5.464029312E0,-9.279517174E0,1.383527756E0,1.085721900E1
7.105933682E0,5.307229996E0,-1.106899071E1,6.816017032E-1,1.229446324E1
7.125281827E0,4.193546772E0,-1.158294964E1,-6.316868067E-1,1.233489299E1
7.144660489E0,4.249961853E0,-1.202062416E1,-9.274239540E-1,1.278349311E1
7.164008634E0,3.767742157E0,-1.049215508E1,1.104913950E0,1.120276903E1
7.183387296E0,3.105898857E0,-9.713553429E0,2.988719225E0,1.062695490E1
7.202765958E0,1.164117813E0,-9.323360443E0,5.633582473E-1,9.412629428E0
7.222114102E0,5.956985950E-1,-8.911118507E0,-1.497915506E0,9.055751804E0
7.241523282E0,1.151380777E0,-9.162631989E0,-2.444127560E0,9.552657336E0
7.260871427E0,1.847281694E0,-9.508076668E0,-2.644136906E0,1.004029041E1
7.280250089E0,2.367320538E0,-9.958842278E0,-2.637791634E0,1.057074693E1
7.299628751E0,2.136534452E0,-9.987031937E0,-2.275417566E0,1.046341777E1
7.318976895E0,3.336114883E-1,-7.800518036E0,-3.155875206E0,8.421337576E0
7.338355557E0,-3.080268383E0,-2.232917786E0,-4.596446037E0,5.966681768E0
7.357734220E0,-7.401911736E0,9.093935013E0,-5.940201759E0,1.314435043E1
7.377082364E0,2.801200151E-1,3.415694809E1,2.473898315E1,4.217573778E1
7.396461026E0,7.955832958E0,3.395183182E1,-4.182777405E-1,3.487401781E1
7.415809171E0,7.653285503E0,2.289127350E1,6.683509827E0,2.504500918E1
7.435187833E0,2.434233665E0,1.461918068E1,-4.563457489E0,1.550713002E1
7.454566495E0,2.071340561E0,9.564009666E0,3.593645334E0,1.042473114E1
7.473914639E0,1.028175712E0,3.587747574E0,1.790706396E0,4.139529846E0
7.493293302E0,-1.563034177E0,-1.655768394E0,-8.154919147E-1,2.418609492E0
7.512671964E0,-1.375723124E0,-4.333643913E0,-3.093034744E0,5.499086070E0
7.532050626E0,6.551828384E-1,-5.744889259E0,-2.858604908E0,6.450165825E0
7.551429288E0,1.764486074E0,-6.616890907E0,-2.281517029E0,7.218169875E0
7.570777432E0,2.466808319E0,-8.208074570E0,-6.322963834E-1,8.594034567E0
7.590156095E0,1.942672729E0,-9.981576920E0,-9.516875148E-1,1.021330330E1
7.609504239E0,1.907301426E0,-1.049332237E1,-2.820729256E0,1.103195933E1
7.628882901E0,2.811136723E0,-1.046992874E1,-3.939473391E0,1.153435512E1
7.648261563E0,3.332627773E0,-1.005282211E1,-2.853642702E0,1.096854215E1
7.667609708E0,2.503716469E0,-8.782302856E0,-1.602693677E0,9.271788751E0
7.686988370E0,4.122653008E-1,-5.788435936E0,-6.843423843E-2,5.803502090E0
7.706336514E0,-6.196715832E-1,-3.435808182E0,2.538727760E0,4.316701214E0
7.725715177E0,2.187409401E-1,-2.117093086E0,5.449950695E-2,2.129061044E0
7.745093839E0,3.614115715E-1,1.978444099E0,-1.284298897E-1,2.015280034E0
7.764441983E0,-1.824737787E0,9.833537102E0,6.058178902E0,1.169314549E1
7.783820645E0,1.379830360E0,1.326807117E1,9.716574669E0,1.650325628E1
7.803199307E0,3.668977022E0,1.574753666E1,8.720833778E0,1.837115252E1
7.822577970E0,4.746058941E0,2.920784569E1,4.155387878E0,2.988127463E1
7.841956632E0,6.979786396E0,2.951231956E1,4.425796986E0,3.064770959E1
7.861304776E0,4.727236748E0,1.891784668E1,2.778466940E0,1.969648620E1
7.880683438E0,5.018348694E-1,9.602904320E0,-9.777839780E-1,9.665592125E0
7.900062100E0,-1.731960297E0,1.552079201E0,-1.963887095E0,3.043926549E0
7.919410245E0,-3.162864685E0,-4.773908615E0,-2.158259630E0,6.119804009E0
7.938788907E0,-2.348602057E0,-7.300665855E0,-1.974202633E0,7.919162177E0
7.958137052E0,2.686696053E-1,-7.446944237E0,-6.039267778E-1,7.476221598E0
7.977515714E0,2.346132994E0,-7.215328217E0,6.367638707E-2,7.587447264E0
7.996894376E0,2.818809509E0,-8.374225616E0,-1.820538759E0,9.021513349E0
8.016242520E0,2.255884647E0,-9.651912689E0,-2.158752441E0,1.014438989E1
8.035621182E0,3.542880535E0,-1.068309879E1,1.456508160E0,1.134909769E1
8.054969327E0,3.904028654E0,-1.185927391E1,4.511962891E0,1.327560268E1
8.074347989E0,4.266564369E0,-1.197743797E1,4.153852463E0,1.337598902E1
8.093757169E0,4.560912132E0,-1.071591091E1,3.189864159E-1,1.165051151E1
8.113105313E0,3.702830315E0,-8.871684074E0,-1.009973168E0,9.666321765E0
8.132483975E0,2.408598661E0,-8.013947487E0,2.793416679E-1,8.372737521E0
8.151832120E0,2.146451950E0,-8.233236313E0,-1.375687957E0,8.618929952E0
8.171210782E0,1.969068050E0,-8.921823502E0,-2.392922401E0,9.444693812E0
8.190589444E0,1.929591894E0,-9.548478127E0,-2.055374622E0,9.955969277E0
8.209937589E0,1.831281900E0,-9.766292572E0,-1.634393215E0,1.007002012E1
8.229316251E0,1.695523739E0,-1.001148701E1,-6.115500927E-1,1.017244643E1
8.248694913E0,5.013504028E-1,-9.148583412E0,-1.151490092E0,9.234384663E0
8.268043057E0,-1.889617682E0,-5.329888344E0,-3.066472292E0,6.432854503E0
8.287421720E0,-4.508931160E0,3.967155457E0,4.985795319E-1,6.026388983E0
8.306769864E0,-9.883239269E-1,2.345297432E1,1.295357800E1,2.681070628E1
8.326148526E0,4.006548405E0,5.812638855E1,1.078440285E1,5.925396882E1
8.345527188E0,5.167833805E0,1.260152435E1,4.693049431E0,1.440588891E1
8.364875333E0,5.225507021E-1,1.400879765E1,4.425874710E0,1.470060671E1
8.384284513E0,3.066303730E0,1.596696472E1,4.189507961E0,1.678982305E1
8.403632657E0,1.285958290E0,8.345591545E0,-1.463871479E0,8.570035395E0
8.423011319E0,-1.996874332E0,2.143931389E0,-1.522108316E0,3.301630298E0
8.442389981E0,-2.033952475E0,-2.443608284E0,-4.137945771E-1,3.206151909E0
8.461738126E0,-5.977115631E-1,-5.671258926E0,-3.144581020E-1,5.711332666E0
8.481116788E0,3.143939972E-1,-7.475518227E0,-1.225534439E0,7.581830320E0
8.500464932E0,6.413898468E-1,-8.801456451E0,-9.663989544E-1,8.877552790E0
8.519843595E0,1.274114847E0,-1.058249474E1,6.119862199E-2,1.065909512E1
8.539222257E0,2.342715025E0,-1.176678848E1,3.956892490E-1,1.200425736E1
8.558570401E0,3.446592808E0,-1.198084450E1,-1.048709750E-1,1.246718231E1
8.577949063E0,3.365569830E0,-1.121813393E1,-4.131214917E-1,1.171939668E1
8.597297208E0,2.833081961E0,-9.286447525E0,-9.508502483E-1,9.755438341E0
8.616675870E0,2.379413605E0,-7.219811440E0,-1.023497343E0,7.670386766E0
8.636054532E0,2.546733141E0,-6.823549271E0,-2.410922527E0,7.671976393E0
8.655433194E0,2.573497534E0,-6.018214226E0,-1.569097757E0,6.730814200E0
8.674811856E0,1.816917419E0,-3.237663269E0,5.333160758E-1,3.750743712E0
8.694190518E0,8.907129765E-1,8.597259521E-1,3.829077482E0,4.024218270E0
8.713538663E0,6.922702789E-1,5.757810593E0,6.775341988E0,8.918345138E0
8.732917325E0,5.096377373E0,1.699464417E1,1.212637806E1,2.149046387E1
8.752265470E0,2.124047995E0,3.459980392E1,7.106217861E0,3.538582123E1
8.771644132E0,2.223378658E0,3.257253265E1,1.205911541E1,3.480424630E1
8.791022794E0,6.281170845E0,2.299114799E1,6.348737240E0,2.466480200E1
8.810370938E0,5.909375191E0,1.668849564E1,1.040403962E0,1.773440279E1
8.829749600E0,8.104691505E-1,7.914601326E0,-6.335946918E-1,7.981178900E0
8.849097745E0,-3.063887119E0,-8.651542664E-1,-3.171004653E-1,3.199445091E0
8.868476407E0,-4.455124855E0,-6.828006744E0,1.708637476E-1,8.154692391E0
8.887855069E0,-6.837503910E-1,-9.670749664E0,-1.091283083E0,9.756116668E0
8.907203214E0,3.164222479E0,-8.909835815E0,-8.950524330E-1,9.497294194E0
8.926581876E0,3.937319994E0,-7.864573479E0,-2.706850767E0,9.202230480E0
8.945960538E0,3.109390259E0,-8.230464935E0,-5.385966778E0,1.031588576E1
8.965339200E0,2.629619598E0,-9.276369095E0,-4.087579250E0,1.047254634E1
8.984717862E0,2.737574577E0,-1.054973507E1,1.045369983E0,1.094915627E1
9.004066007E0,2.628137112E0,-1.295381355E1,6.002226830E0,1.451671854E1
9.023444669E0,2.547603607E0,-1.307500458E1,2.978721142E0,1.364986478E1
9.042792813E0,3.372867346E0,-1.049266911E1,4.354460239E-1,1.103004770E1
9.062171475E0,4.312213421E0,-7.741165161E0,-4.899123013E-1,8.874730233E0
9.081550138E0,3.762786150E0,-7.206870079E0,8.531077504E-1,8.174676066E0
9.100898282E0,2.655322552E0,-8.837744713E0,-3.987797797E-1,9.236638716E0
9.120276944E0,1.904809475E0,-1.009946346E1,-1.158298969E0,1.034258758E1
9.139655606E0,1.360907793E0,-1.045147991E1,-8.147569895E-1,1.057115563E1
9.159003751E0,1.061510801E0,-9.473924637E0,-4.817198515E-1,9.545370984E0
9.178382413E0,8.179428577E-1,-8.630504608E0,5.944493413E-2,8.669381409E0
9.197730557E0,-7.607305050E-1,-6.123331070E0,-7.454434633E-1,6.215269926E0
9.217109220E0,-4.477598190E0,9.348058701E-1,-3.403914452E0,5.701699848E0
9.236518399E0,-2.040737867E0,1.849960136E1,1.280870342E1,2.259342261E1
9.255866544E0,7.759545326E0,3.906164551E1,6.398911953E0,4.033570091E1
9.275245206E0,6.532289505E0,3.238152313E1,3.098866463E0,3.317886104E1
9.294593350E0,-8.035846949E-1,1.515127373E1,5.561192036E-1,1.518275708E1
9.313972013E0,-5.896039009E-1,1.692574120E1,6.658022881E0,1.819773658E1
9.333350675E0,1.786009073E-1,8.124773979E0,1.554500818E0,8.274075374E0
9.352698819E0,-8.723547459E-1,-1.576188087E0,1.560043097E-1,1.808233678E0
9.372077481E0,-8.793361187E-1,-5.392160416E0,-5.016201735E-2,5.463619879E0
9.391425626E0,1.298896074E0,-5.646970749E0,-6.262916327E-2,5.794767645E0
9.410804288E0,3.262705326E0,-5.331313133E0,-7.796196342E-1,6.298885024E0
9.430182950E0,3.322089434E0,-5.749302864E0,-1.714200020E0,6.857787058E0
9.449531095E0,2.627142429E0,-6.324929237E0,-2.669581413E0,7.350732761E0
9.468909757E0,1.575784922E0,-7.371749878E0,-1.779303908E0,7.745431994E0
9.488257901E0,5.703074932E-1,-9.277350426E0,-7.796866894E-1,9.327507325E0
9.507636563E0,8.854460716E-2,-1.086357498E1,1.966906488E-1,1.086571621E1
9.527045743E0,7.057354450E-1,-1.093778896E1,1.306120753E0,1.103808142E1
9.546393888E0,1.491103888E0,-9.669718742E0,4.521079063E-1,9.794450108E0
9.565772550E0,2.554078102E0,-8.629978180E0,-6.290450692E-1,9.021947464E0
9.585151212E0,2.363157988E0,-6.170197487E0,-1.914855480E0,6.879136880E0
9.604499356E0,1.718457937E0,-2.103434563E0,-1.201187372E0,2.969913424E0
9.623878018E0,1.035247087E0,1.179684639E0,3.392946720E0,3.738379305E0
9.643226163E0,6.498066187E-1,4.610040665E0,5.322768211E0,7.071533427E0
9.662604825E0,3.540792942E0,1.367477798E1,1.289928246E1,1.912925130E1
9.681983487E0,3.629530191E0,2.459147263E1,5.698075294E0,2.550258962E1
9.701331632E0,5.786866665E0,2.618916130E1,2.644121170E0,2.695090670E1
9.720710294E0,3.303173304E0,2.852925491E1,3.844512463E0,2.897601794E1
9.740058438E0,-3.396663666E-1,2.335201645E1,3.765389442E0,2.365608174E1
9.759437100E0,-4.644500017E-1,1.307900238E1,1.346613884E0,1.315634395E1
9.778815763E0,-1.832979918E-1,4.199904442E0,-1.103312612E0,4.346273599E0
9.798194425E0,-5.319142342E-1,-3.663459778E0,-1.186506987E0,3.887373037E0
9.817573087E0,-1.621713638E-1,-8.692428589E0,-1.510584354E0,8.824198514E0
9.836921231E0,1.374168634E0,-1.014780045E1,-4.861012995E-1,1.025195044E1
9.856299893E0,3.177976131E0,-9.433680534E0,5.025525093E-1,9.967267416E0
9.875678555E0,3.722065926E0,-9.094282150E0,1.014412194E-1,9.827005287E0
9.895026700E0,3.385874510E0,-1.039718437E1,-2.395316839E0,1.119388815E1
9.914405362E0,2.711824417E0,-1.075453568E1,-2.737251520E0,1.142394744E1
9.933784024E0,2.746510744E0,-1.060518646E1,1.359553814E0,1.103909814E1
9.953132169E0,3.596478701E0,-1.039419937E1,3.219209671E0,1.146025089E1
9.972510831E0,3.359184980E0,-9.989499092E0,2.090155602E0,1.074443885E1
9.991858975E0,2.831936836E0,-9.134352684E0,-5.345845222E-2,9.563426321E0
1.001123764E1,2.740268469E0,-8.665251732E0,3.780675828E-1,9.096075745E0
1.003061630E1,2.647534609E0,-9.040196419E0,6.281769276E-1,9.440826079E0
1.004996444E1,2.688625336E0,-8.746687889E0,-9.689028263E-1,9.201740483E0
1.006934311E1,2.330120325E0,-8.656202316E0,-1.665171266E0,9.117680331E0
1.008872177E1,1.936593056E0,-9.195291519E0,-1.353059053E0,9.493921613E0
1.010810043E1,1.832257509E0,-9.765666008E0,-8.394250870E-1,9.971461008E0
1.012747909E1,1.352833271E0,-9.270233154E0,-1.066727638E0,9.428960094E0
1.014682724E1,2.150273323E-1,-6.456632614E0,-1.138548136E0,6.559773878E0
1.016620590E1,-2.368522882E0,-1.977157593E-2,-2.785063744E0,3.656073251E0
1.018555404E1,-1.576401711E0,1.487411594E1,1.057411003E1,1.831764642E1
1.020493271E1,4.686192513E0,5.164973831E1,1.047880173E1,5.290993436E1
1.022431137E1,8.263654709E0,3.657447815E1,5.643723965E0,3.791875606E1
1.024365951E1,3.304316282E0,4.641052246E0,9.635447264E-1,5.778087096E0
1.026303818E1,3.138131618E0,1.293614483E1,5.420072556E0,1.437250499E1
1.028238632E1,4.717909813E0,8.199213982E0,3.291069031E0,1.001583338E1
1.030176498E1,-3.316967487E-1,8.570089340E-1,-1.918240309E0,2.127000923E0
1.032114364E1,-1.318258762E0,-2.853174210E0,-1.864011884E0,3.654168789E0
1.034049179E1,4.788684845E-2,-1.068883896E0,-2.227864504E0,2.471474495E0
1.035987045E1,1.396482229E0,-2.813694000E0,-2.172900438E0,3.819493796E0
1.037924911E1,9.905073643E-1,-5.209767342E0,-2.490919590E0,5.858964157E0
1.039862777E1,2.970447540E-1,-6.580764771E0,-2.024803877E0,6.891627623E0
1.041800644E1,5.956761837E-1,-8.588735580E0,-4.668787122E-1,8.622017439E0
1.043735458E1,1.755329370E0,-1.115675449E1,1.045799732E0,1.134231234E1
1.045673324E1,2.823395491E0,-1.308821487E1,1.940466762E0,1.352916634E1
1.047611190E1,2.917192936E0,-1.129930592E1,9.298012257E-1,1.170678688E1
1.049546005E1,2.878579140E0,-8.268511772E0,-1.812960744E0,8.940991637E0
1.051483871E1,2.586907148E0,-5.855916977E0,-2.107852459E0,6.739947643E0
1.053418686E1,2.596854448E0,-4.518441200E0,2.415676415E-2,5.211578212E0
1.055356552E1,1.651597738E0,-4.045592308E0,1.200241089E0,4.531574879E0
1.057294418E1,6.206083298E-2,-3.532719612E0,1.298377275E0,3.764271902E0
1.059229232E1,-8.118844032E-1,2.024530411E0,8.586037636E0,8.858776549E0
1.061167099E1,3.142477274E0,6.709061623E0,3.789579868E0,8.321513495E0
1.063101913E1,9.501801491E0,3.085813141E1,8.063481331E0,3.327954682E1
1.065037134E1,7.468155861E0,2.837027740E1,1.580404043E0,2.937930681E1
1.066978052E1,2.007981062E0,2.511709785E1,4.489829540E0,2.559412358E1
1.068912866E1,-8.262137175E-1,2.372625732E1,5.093117714E0,2.428081061E1
1.070850733E1,1.666687250E0,1.613638496E1,1.687621236E0,1.630977718E1
1.072785547E1,6.133768559E-1,5.030918121E0,-9.088504910E-1,5.149017142E0
1.074723413E1,-7.641997337E-1,-3.319769859E0,-8.683307171E-1,3.515518651E0
1.076661280E1,-9.742963314E-1,-8.117882729E0,4.129997492E-1,8.186564733E0
1.078596094E1,7.773587704E-1,-1.127717972E1,-2.190854549E-1,1.130606331E1
1.080533960E1,2.081936121E0,-9.799100876E0,-6.651884913E-1,1.003988604E1
1.082471826E1,4.051176071E0,-7.974543571E0,-1.611483335E0,9.088578067E0
1.084406641E1,5.085086823E0,-7.751054764E0,-2.081652403E0,9.501064923E0
1.086344507E1,3.655385017E0,-9.822175980E0,-2.025595427E0,1.067426894E1
1.088279322E1,1.738422632E0,-1.140036774E1,2.515167594E-1,1.153489308E1
1.090217188E1,1.196479559E0,-1.104330349E1,2.576745033E0,1.140288254E1
1.092155054E1,1.163250685E0,-1.059296703E1,2.426105499E0,1.092932251E1
1.094089868E1,1.083027363E0,-9.495438576E0,1.811630011E0,9.727194113E0
1.096030786E1,2.318791151E0,-8.742793083E0,2.271359205E0,9.325893841E0
1.097965601E1,3.591621637E0,-8.891803741E0,1.904846072E0,9.777134464E0
1.099903467E1,3.583701849E0,-9.787349701E0,-4.479431212E-1,1.043243913E1
1.101841333E1,2.861982822E0,-9.530799866E0,-1.496072769E0,1.006306740E1
1.103776148E1,2.043929815E0,-8.994833946E0,-6.149653196E-1,9.244612980E0
1.105714014E1,1.605898619E0,-8.556252480E0,2.964405417E-1,8.710697094E0
1.107648828E1,7.638585567E-1,-7.343471527E0,-2.373725176E-3,7.383092821E0
1.109586695E1,-8.976972103E-1,-4.660565376E0,-9.537372589E-1,4.841109859E0
1.111524561E1,-3.820920944E0,1.871335983E0,-4.062997341E0,5.882965461E0
1.113459375E1,-1.060634971E0,2.041042328E1,1.354922581E1,2.452125292E1
1.115397241E1,1.087588310E0,4.831847000E1,9.639030457E0,4.928253544E1
1.117332056E1,2.129142761E0,2.715480423E1,7.151365280E0,2.816129732E1
1.119269922E1,2.889010906E0,8.589042664E0,-2.559547901E0,9.416438995E0
1.121207788E1,1.718759775E0,1.060229969E1,1.939400077E0,1.091440180E1
1.123145654E1,3.782509565E0,4.915976524E0,6.445534706E0,8.945340768E0
1.125083521E1,-2.808010578E-2,-5.700960159E-1,-7.847414017E-1,9.703695313E-1
1.127021387E1,-1.585225105E0,-3.701413155E0,-1.254161954E0,4.217383096E0
1.128956201E1,-1.082251310E0,-2.408895493E0,-1.436320186E0,3.006170499E0
1.130894068E1,4.243659973E-1,-3.472308159E0,-9.912329912E-1,3.635870362E0
1.132828882E1,1.022827864E0,-5.582681656E0,-2.779660940E0,6.319733084E0
1.134766748E1,1.447356701E0,-7.779021263E0,-1.645074964E0,8.081725365E0
1.136704614E1,1.159246445E0,-9.337742805E0,4.173980355E-1,9.418679002E0
1.138639429E1,8.535101414E-1,-1.062037086E1,1.643199325E0,1.078057795E1
1.140577295E1,1.041012287E0,-1.088192463E1,2.541533947E0,1.122316288E1
1.142512110E1,1.663408518E0,-8.851481438E0,2.127664804E0,9.254329206E0
1.144449976E1,2.069212914E0,-6.710087776E0,-5.785824060E-1,7.045685037E0
1.146387842E1,1.988211870E0,-5.245066643E0,-1.723322272E0,5.868010752E0
1.148322656E1,1.346808910E0,-3.669639587E0,-2.101302147E-3,3.908983673E0
1.150260523E1,2.027432919E-1,-2.697188377E0,1.559192777E0,3.122020516E0
1.152198389E1,-3.765841722E-1,-1.984751701E0,2.067697525E0,2.890748694E0
1.154136255E1,-1.294769287E0,3.295218468E0,6.135366917E0,7.083616270E0
1.156074121E1,5.668648481E-1,1.246282768E1,1.218133640E1,1.743640921E1
1.158008936E1,3.997514248E0,2.347081757E1,7.680493355E0,2.501698174E1
1.159946802E1,5.260109901E0,2.699320602E1,8.457031846E-1,2.751394449E1
1.161881616E1,4.512753487E0,2.897231674E1,4.391334534E0,2.964867451E1
1.163819483E1,7.512551546E-1,2.228303719E1,4.484166145E0,2.274216077E1
1.165757349E1,9.579309225E-1,1.322289181E1,3.070879698E0,1.360855619E1
1.167692163E1,4.491840601E-1,5.366355896E0,1.490132511E-2,5.385142892E0
1.169630030E1,-1.178806305E0,-2.826123238E0,-2.705878913E-1,3.074048579E0
1.171567896E1,-1.412099123E0,-9.547706604E0,1.623710990E-2,9.651579610E0
1.173502710E1,4.912567139E-2,-1.257689953E1,-1.329948306E-1,1.257769863E1
1.175440576E1,1.753703117E0,-1.216526699E1,-4.472130537E-2,1.229110229E1
1.177375391E1,3.668003082E0,-9.552598000E0,-2.902335525E-1,1.023672851E1
1.179313257E1,3.288793325E0,-8.800168991E0,-2.141676903E0,9.635658554E0
1.181257227E1,1.676918507E0,-9.332666397E0,-1.945334792E0,9.679620096E0
1.183188989E1,4.771790504E-1,-9.735393524E0,2.277571201E0,1.000964123E1
1.185126856E1,2.195962429E0,-8.786366463E0,6.803929329E0,1.132766264E1
1.187061670E1,2.743256092E0,-9.360107422E0,3.486462593E0,1.035820865E1
1.188999536E1,2.791132212E0,-1.002692795E1,-8.531608582E-1,1.044306404E1
1.190937402E1,2.939067841E0,-1.025261402E1,-4.533735514E-1,1.067519375E1
1.192872217E1,3.268707275E0,-9.114198685E0,2.021564960E0,9.891399790E0
1.194810083E1,2.748484612E0,-9.005391121E0,2.349657059E0,9.704232334E0
1.196744898E1,1.912351847E0,-9.740456581E0,5.828135014E-1,9.943503184E0
1.198682764E1,1.596438169E0,-9.814342499E0,3.169988990E-1,9.948387900E0
1.200620630E1,1.987883806E0,-8.911898613E0,4.583057761E-1,9.142410136E0
1.202555445E1,2.208299398E0,-8.334251404E0,1.489756703E-1,8.623139013E0
1.204493311E1,5.363156796E-1,-6.850131989E0,-1.386541843E0,7.009596354E0
1.206428125E1,-1.936544180E0,-2.625510216E0,-4.902344704E0,5.888674796E0
1.208365991E1,-3.773643732E0,1.272456646E1,1.376460361E1,1.912117390E1
1.210306909E1,-8.531163931E-1,4.482269669E1,5.710582733E0,4.519306032E1
1.212241724E1,7.395400047E0,4.794252777E1,1.103327084E1,4.974847713E1
1.214179590E1,3.692944050E0,1.917060852E0,6.369845390E0,7.608409056E0
1.216117456E1,9.824656248E-1,1.232822514E1,2.551451206E0,1.262775819E1
1.218052271E1,1.610387921E0,8.113686562E0,2.013873816E0,8.513574257E0
1.219990137E1,-2.044039726E0,1.807260513E0,-1.998136878E0,3.381839728E0
1.221924951E1,-1.394016743E0,2.576704025E-1,-1.423310041E0,2.008852456E0
1.223862818E1,9.044985771E-1,-2.590923309E-1,-6.267688870E-1,1.130524546E0
1.225800684E1,1.465762615E0,-3.522199631E0,-2.765337229E-1,3.825025645E0
1.227735498E1,1.413771868E0,-6.326688766E0,-1.286814213E0,6.609208157E0
1.229673364E1,1.748964787E0,-8.096727371E0,-7.408246398E-1,8.316531314E0
1.231608179E1,1.919314623E0,-1.049449158E1,1.574778557E-2,1.066856926E1
1.233546045E1,2.258834839E0,-1.226240158E1,5.842647552E-1,1.248239531E1
1.235483911E1,2.919257402E0,-1.372556114E1,1.812978983E0,1.414920440E1
1.237421778E1,3.191940784E0,-1.166607285E1,2.191959381E0,1.229188462E1
1.239359644E1,2.278273582E0,-8.839322090E0,1.562211514E-1,9.129542737E0
1.241294458E1,1.460955620E0,-7.496686935E0,-5.950263143E-1,7.660859132E0
1.243232324E1,2.320138693E0,-6.316946030E0,-3.015764058E-1,6.736304553E0
1.245170191E1,1.615993023E0,-4.417607307E0,-7.049009800E-1,4.756424410E0
1.247105005E1,-7.239249945E-1,3.532567024E0,3.452558041E0,4.992319521E0
1.249042871E1,-3.461934566E0,7.434219360E0,5.212848663E0,9.717324716E0
1.250977686E1,6.180561066E0,2.253436661E1,7.282790661E0,2.447521304E1
1.252915552E1,7.517735958E0,1.985799217E1,1.109398651E1,2.395689345E1
1.254853418E1,5.201899052E0,2.525776291E1,3.844265461E0,2.607283486E1
1.256788233E1,3.705326080E0,2.694084930E1,6.487864494E0,2.795766779E1
1.258726099E1,2.170188904E0,1.825513840E1,3.739727020E0,1.876020671E1
1.260663965E1,2.405581474E-1,1.056834507E1,8.192591667E-1,1.060278130E1
1.262598780E1,-1.907874346E-1,2.641261101E0,-2.576353848E-1,2.660645794E0
1.264536646E1,-1.150036335E0,-4.082508087E0,-7.543977499E-1,4.307966088E0
1.266474512E1,-1.350038767E0,-9.026156425E0,-1.497183561E0,9.248549243E0
1.268412378E1,1.716122627E-1,-8.892782211E0,-1.464306593E0,9.014167739E0
1.270350244E1,1.786313772E0,-6.659758568E0,-5.650620461E-1,6.918279858E0
1.272285059E1,2.575011969E0,-6.965250015E0,-1.205816507E0,7.523256467E0
1.274225977E1,2.131956339E0,-9.007309914E0,-1.670214653E0,9.405662481E0
1.276157739E1,2.411200047E0,-1.098142624E1,1.503322601E0,1.134308542E1
1.278095606E1,3.513145685E0,-1.205700684E1,2.725802422E0,1.285082119E1
1.280033472E1,3.693610430E0,-1.111590290E1,2.137635231E0,1.190695342E1
1.281968286E1,3.171952248E0,-1.013949585E1,7.010458112E-1,1.064716499E1
1.283906152E1,2.738871574E0,-9.259255409E0,4.049305618E-1,9.664325998E0
1.285840967E1,3.301257372E0,-8.819485664E0,2.002797842E0,9.627711401E0
1.287778833E1,3.060182333E0,-9.172236443E0,6.409596205E-1,9.690483296E0
1.289716699E1,2.285180807E0,-9.638408661E0,-8.389341235E-1,9.941065501E0
1.291651514E1,1.643940449E0,-9.420451164E0,-6.816720366E-1,9.587080739E0
1.293589380E1,1.630301952E0,-9.267540932E0,-3.964543641E-1,9.418193852E0
1.295527246E1,1.929200411E0,-9.730458260E0,-4.084363580E-1,9.928265328E0
1.297468164E1,8.613064289E-1,-9.006224632E0,-1.968685150E0,9.259030841E0
1.299402979E1,-9.975545406E-1,-5.744408607E0,-4.491204739E0,7.359637580E0
1.301337793E1,-3.506962061E0,1.665539742E0,-7.040956497E0,8.040390160E0
1.303275659E1,-3.093823910E0,2.784702682E1,2.110538864E1,3.507799993E1
1.305213526E1,2.454756737E0,4.937956619E1,6.030161858E0,4.980692964E1
1.307148340E1,3.814868689E0,1.926477432E1,7.802920818E0,2.113221063E1
1.309086206E1,4.398504257E0,1.439131260E1,5.411945343E0,1.599205648E1
1.311021021E1,4.731755733E0,1.340647697E1,3.451117039E0,1.462987854E1
1.312958887E1,5.647424698E0,7.313847542E0,-4.530578256E-1,9.251542194E0
1.314896753E1,7.486518621E-1,1.130989075E0,-1.974845886E0,2.395752945E0
1.316831568E1,-2.354431152E0,-1.273777008E0,-4.318421185E-1,2.711520152E0
1.318769434E1,-1.651666880E0,-3.581573486E0,8.292770386E-1,4.030306753E0
1.320704248E1,1.397650242E-1,-5.628463745E0,1.771500707E-2,5.630226657E0
1.322642114E1,4.380750656E-1,-8.127140045E0,-9.611164331E-1,8.195490216E0
1.324583032E1,6.508634090E-1,-1.010719013E1,-1.362890720E0,1.021941225E1
1.326517847E1,1.722054243E0,-1.131527901E1,-1.664335966E0,1.156594242E1
1.328455713E1,2.965497017E0,-1.230047703E1,-1.003548861E0,1.269263637E1
1.330390528E1,4.302606106E0,-1.307074165E1,4.265793860E-1,1.376730463E1
1.332328394E1,3.370090723E0,-1.038738441E1,9.285345078E-1,1.095981034E1
1.334266260E1,1.120137215E0,-8.491897583E0,1.004001498E-2,8.565461619E0
1.336201074E1,6.295504570E-1,-8.533099174E0,-3.924649060E-1,8.565287152E0
1.338138941E1,1.664780378E0,-7.855571747E0,-8.256049156E-1,8.072367971E0
1.340073755E1,1.926668167E0,-6.658721924E0,5.476427078E-1,6.953455286E0
1.342011621E1,4.482138157E-2,-1.716681480E0,2.788694382E0,3.275029865E0
1.343952539E1,-1.921666026E0,7.851429939E0,8.501808167E0,1.173109093E1
1.345884302E1,6.485314369E0,2.968962479E1,3.364322662E0,3.057534610E1
1.347822168E1,1.230177975E1,3.464923096E1,1.099078083E1,3.837577692E1
1.349760034E1,4.894256115E0,1.683265305E1,4.981801033E0,1.822389346E1
1.351694849E1,5.481550217E0,2.036124039E1,6.632175446E0,2.210459803E1
1.353635767E1,4.424403191E0,1.963631248E1,4.096956253E0,2.054130381E1
1.355570581E1,7.092740536E-1,1.180687809E1,1.363363504E0,1.190647723E1
1.357508448E1,-1.498874307E0,3.502359390E0,-1.294047832E0,4.023394746E0
1.359446314E1,-1.045804739E0,-3.091220856E0,-1.387035489E0,3.545873853E0
1.361381128E1,-1.718773842E-1,-8.153609276E0,-3.707994223E-1,8.163845801E0
1.363318994E1,7.579872608E-1,-1.047210789E1,-7.779219747E-1,1.052828338E1
1.365253809E1,1.590235233E0,-9.402015686E0,-1.274215341E0,9.620310379E0
1.367194727E1,1.947887421E0,-9.016223907E0,-2.577822208E0,9.577668103E0
1.369129541E1,1.339285135E0,-9.014037132E0,-2.958589077E0,9.581221186E0
1.371064356E1,1.588434219E0,-9.372601509E0,9.847325683E-1,9.557116749E0
1.373002222E1,2.761075020E0,-1.104626942E1,6.045351028E0,1.289146510E1
1.374937036E1,2.989230871E0,-1.114434242E1,3.128255844E0,1.195482555E1
1.376874902E1,2.868426085E0,-1.010235882E1,9.317759275E-1,1.054294685E1
1.378812769E1,4.445897102E0,-8.780606270E0,5.654371381E-1,9.858233446E0
1.380750635E1,5.288736343E0,-8.157038689E0,1.953953981E0,9.915944153E0
1.382688501E1,4.145714760E0,-9.141280174E0,9.076501131E-1,1.007838195E1
1.384623316E1,2.912488699E0,-9.768182755E0,-1.230323315E0,1.026711645E1
1.386561182E1,2.001661539E0,-9.922806740E0,-1.566997290E0,1.024325256E1
1.388499048E1,1.375235796E0,-9.687791824E0,-7.046297193E-1,9.810254174E0
1.390436914E1,1.352503538E0,-8.826476097E0,-2.420108616E-1,8.932777584E0
1.392371729E1,3.955304623E-1,-6.672965050E0,-7.923862934E-1,6.731477025E0
1.394309595E1,-1.959695578E0,-2.521341324E0,-3.580428123E0,4.797607151E0
1.396244409E1,-4.197464943E0,1.200650883E1,9.259583473E0,1.573260475E1
1.398182276E1,3.209990025E0,3.347751999E1,7.103578568E0,3.437308844E1
1.400117090E1,5.707025528E0,4.596811295E1,7.032701492E0,4.685185630E1
1.402054956E1,4.281376839E0,1.102220535E1,6.689035892E0,1.358537448E1
1.403992822E1,3.880384922E0,1.522705364E1,6.538069248E0,1.701960338E1
1.405927637E1,4.420138836E0,1.159598351E1,1.286817789E0,1.247639214E1
1.407865503E1,6.475603580E-2,8.914117813E-1,-2.387731552E0,2.549523538E0
1.409803369E1,-2.601113558E0,-2.379692078E0,-2.242707968E0,4.178332820E0
1.411741236E1,-1.794389248E0,-2.683096886E0,-6.208720207E-1,3.286993115E0
1.413679102E1,6.902964115E-1,-3.542957306E0,1.542143583E0,3.925208585E0
1.415613916E1,1.754735708E0,-6.959763527E0,7.007836103E-1,7.211692133E0
1.417551782E1,1.903128386E0,-8.428176880E0,1.065799594E-1,8.641031331E0
1.419486597E1,2.010017395E0,-9.824660301E0,-8.614540100E-3,1.002817003E1
1.421424463E1,1.757282019E0,-1.112640285E1,1.121747494E-1,1.126487744E1
1.423362329E1,2.401056051E0,-1.212035942E1,1.570260763E0,1.245527605E1
1.425297144E1,3.971323252E0,-1.135027885E1,3.306842089E0,1.247138497E1
1.427235010E1,3.272668123E0,-8.570436478E0,2.425588846E0,9.489268640E0
1.429169824E1,1.507052183E0,-7.171908379E0,-6.780022383E-2,7.328852089E0
1.431107691E1,6.416811943E-1,-6.716597557E0,-8.504303098E-1,6.800563889E0
1.433045557E1,7.576394081E-1,-5.623551369E0,1.012951732E-1,5.675262829E0
1.434980371E1,3.052623272E-1,-2.528773308E0,2.395986795E0,3.496946133E0
1.436921289E1,1.412650347E-1,6.347423553E0,1.504542923E1,1.633017704E1
1.438859156E1,5.672617912E0,1.008947468E1,1.782467604E0,1.171124605E1
1.440793970E1,5.613673210E0,3.594469452E1,4.973017693E0,3.671873222E1
1.442731836E1,4.435652733E0,3.684564590E1,9.057325363E0,3.820093952E1
1.444666651E1,4.522782326E0,2.033652496E1,6.267762184E0,2.175579579E1
1.446604517E1,3.834370136E0,1.763955688E1,2.129028320E0,1.817660923E1
1.448542383E1,-3.016303778E-1,9.946475983E0,4.113250375E-1,9.959545855E0
1.450477198E1,-2.639132023E0,-7.429447174E-1,-6.115468740E-1,2.809087800E0
1.452415064E1,-2.519105673E0,-4.436613083E0,3.247544169E-1,5.112229892E0
1.454349878E1,1.184461117E0,-6.866028786E0,4.321691990E-1,6.980835884E0
1.456287744E1,2.337163925E0,-7.837113380E0,-1.565200090E-1,8.179680915E0
1.458225610E1,2.868407488E0,-7.502156258E0,-1.235868692E0,8.126344901E0
1.460163477E1,3.033934593E0,-7.354771614E0,-2.870974779E0,8.458127499E0
1.462098291E1,2.286608934E0,-8.521229744E0,-2.386433363E0,9.139748408E0
1.464033106E1,2.331063747E0,-1.078552151E1,2.494696617E0,1.131303865E1
1.465970972E1,3.017461777E0,-1.201595879E1,5.198448181E0,1.343548304E1
1.467911890E1,2.718105316E0,-1.211203575E1,3.565782309E0,1.291527429E1
1.469846704E1,2.702682018E0,-1.133017826E1,1.560462475E0,1.175212630E1
1.471784570E1,2.696795702E0,-1.005886078E1,9.778702259E-2,1.041455470E1
1.473719385E1,2.693707466E0,-8.687703133E0,9.132390022E-1,9.141457822E0
1.475657251E1,2.969240665E0,-9.095346451E0,1.068345070E0,9.627205118E0
1.477595117E1,2.786947012E0,-9.247369766E0,-6.818997860E-2,9.658445585E0
1.479529932E1,2.378386974E0,-9.039039612E0,-4.353106022E-3,9.346709616E0
1.481467798E1,1.850767374E0,-8.997046471E0,2.581915855E-1,9.189061321E0
1.483405664E1,1.228686810E0,-9.350800514E0,4.944281578E-1,9.444130491E0
1.485340479E1,2.623052597E-1,-8.327810287E0,-4.156769514E-1,8.342302773E0
1.487278345E1,-2.077683687E0,-4.921834946E0,-2.093824387E0,5.738059715E0
1.489213159E1,-6.357051849E0,7.134400368E0,-1.221058369E0,9.633418934E0
1.491151026E1,6.454051733E-1,3.101360130E1,1.855879211E1,3.614815041E1
1.493088892E1,1.170414162E1,5.542006683E1,6.352786064E0,5.699761951E1
1.495026758E1,3.882901192E0,1.650650787E1,7.313262463E0,1.846687661E1
1.496964624E1,1.126486301E0,1.508161831E1,-5.501022339E-1,1.513363125E1
1.498899439E1,2.996622562E0,1.171623039E1,3.554773569E0,1.260500760E1
1.500837305E1,7.447195053E-1,1.414385796E0,1.592552513E-1,1.606379954E0
1.502775171E1,-1.472813249E0,-3.107807159E0,8.550971746E-3,3.439144854E0
1.504709986E1,-8.507380486E-1,-5.317449570E0,1.832598746E-1,5.388191657E0
1.506647852E1,3.577864170E-1,-5.540734291E0,-2.174135447E-1,5.556529155E0
1.508582666E1,1.495155573E0,-6.463101387E0,-9.936864376E-1,6.707800121E0
1.510520532E1,2.057319164E0,-7.854527473E0,-1.600709677E0,8.275774009E0
1.512458399E1,2.807462692E0,-9.470726013E0,-1.304835916E0,9.963889539E0
1.514393213E1,3.081181526E0,-1.036630630E1,-4.212847352E-1,1.082272918E1
1.516331079E1,3.000463724E0,-1.116333485E1,1.416345239E-1,1.156040171E1
1.518265894E1,2.502582550E0,-1.026468182E1,6.838073730E-1,1.058745506E1
1.520203760E1,1.010542631E0,-8.352087021E0,7.738315463E-1,8.448512844E0
1.522141626E1,3.032789230E-1,-6.296958923E0,1.645337820E0,6.515428330E0
1.524079492E1,1.574129820E0,-5.076213837E0,1.936245680E0,5.656401589E0
1.526017359E1,2.675817490E0,-4.072651863E0,3.075322807E-1,4.882731668E0
1.527955225E1,1.624262810E0,-1.722594261E0,4.492386580E-1,2.409849795E0
1.529890039E1,2.132953405E0,4.600702286E0,1.233779430E1,1.333930733E1
1.531827906E1,5.731871605E0,1.019909286E1,9.527289867E-1,1.173812335E1
1.533762720E1,9.568723679E0,2.734518814E1,6.391219616E0,2.966761661E1
1.535700586E1,4.301321030E0,2.439163589E1,2.338054657E0,2.487809807E1
1.537638452E1,2.017883778E0,2.533375549E1,5.187507629E0,2.593802725E1
1.539573267E1,2.422355413E0,2.184188080E1,3.977361441E0,2.233282263E1
1.541511133E1,2.962864161E0,1.379766846E1,4.306359887E-1,1.411877000E1
1.543445948E1,3.348815441E-1,4.141184807E0,-1.170115113E0,4.316332544E0
1.545383814E1,-1.253105044E0,-4.277861595E0,-6.983879805E-1,4.511997102E0
1.547321680E1,-1.067468166E0,-9.244784355E0,6.475585699E-2,9.306434300E0
1.549256494E1,-2.817583084E-1,-1.147611332E1,-1.877090931E-1,1.148110619E1
1.551194360E1,7.941772938E-1,-1.145679665E1,1.166307926E-2,1.148429549E1
1.553132227E1,2.487971783E0,-1.029226208E1,-9.703397751E-1,1.063307206E1
1.555070093E1,3.520957947E0,-7.462312698E0,-1.302853107E0,8.353483219E0
1.557007959E1,3.528779030E0,-7.789314270E0,6.231626272E-1,8.574032301E0
1.558942774E1,3.100198984E0,-9.961470604E0,4.437484741E0,1.133725722E1
1.560880640E1,2.028889894E0,-1.026762486E1,5.814022064E0,1.197260903E1
1.562815454E1,2.193385363E0,-9.942693710E0,2.416620016E0,1.046461418E1
1.564753320E1,3.232129812E0,-9.172437668E0,-5.637645721E-1,9.741565910E0
1.566691187E1,3.559490204E0,-9.022153854E0,8.366554976E-2,9.699290212E0
1.568626001E1,2.831291676E0,-9.300950050E0,9.584149122E-1,9.769464854E0
1.570563867E1,2.272584915E0,-9.294606209E0,-1.122735739E-1,9.569062239E0
1.572498682E1,2.017634153E0,-9.240228653E0,-8.247232437E-1,9.493831764E0
1.574436548E1,1.734781504E0,-9.379167557E0,-7.464327812E-1,9.567414114E0
1.576374414E1,9.466798306E-1,-8.626251221E0,-1.399622560E0,8.790185216E0
1.578309229E1,-6.578357220E-1,-6.003592491E0,-1.639662027E0,6.258143671E0
1.580247095E1,-1.627589345E0,-3.083225250E0,-3.214498520E0,4.742185757E0
1.582188013E1,-1.234526634E0,8.313827515E0,9.648530960E0,1.279601241E1
1.584122827E1,1.829242110E0,4.270227051E1,9.962585449E0,4.388716375E1
1.586060694E1,2.196002245E0,4.778060532E1,8.604347229E0,4.859880103E1
1.587995508E1,5.240499496E0,3.633036613E0,9.716586113E0,1.162212699E1
1.589933374E1,2.695001841E0,1.023722267E1,1.963530898E0,1.076657868E1
1.591871240E1,5.331200600E0,9.253146172E0,2.706410885E0,1.101667254E1
1.593806055E1,-8.976749182E-1,4.601383209E0,-7.123206258E-1,4.741935087E0
1.595743921E1,-3.357738972E0,9.963874817E-1,-5.402681828E-1,3.543880461E0
1.597678736E1,-1.542096853E0,-2.067604065E-1,1.756160498E0,2.346254944E0
1.599616602E1,8.658912182E-1,-5.033269882E0,6.099909544E-1,5.143506807E0
1.601554468E1,1.283622742E0,-8.306979179E0,-1.434009790E0,8.527014396E0
1.603489282E1,1.657048464E0,-9.249679565E0,-5.084828138E-1,9.410682039E0
1.605427149E1,1.226965666E0,-9.625123024E0,6.158183813E-1,9.722534148E0
1.607361963E1,5.141618252E-1,-1.099275589E1,7.182967663E-1,1.102819091E1
1.609299829E1,5.458126068E-1,-1.237056351E1,1.575271368E0,1.248239692E1
1.611240747E1,1.215304255E0,-1.297715855E1,2.907457352E0,1.335428458E1
1.613175562E1,9.019906521E-1,-8.862786293E0,1.582334161E0,9.048002509E0
1.615113428E1,3.420913219E-1,-4.957320213E0,-8.538174629E-2,4.969843077E0
1.617051294E1,1.724567413E-1,-1.699131966E0,5.525211096E-1,1.795012630E0
1.618986109E1,7.778712511E-1,8.300895691E-1,4.243950844E0,4.393774134E0
1.620923975E1,6.155977249E-1,2.041130066E0,7.016654015E0,7.333389807E0
1.622858789E1,4.410749674E-1,2.901529312E0,7.871860027E0,8.401166572E0
1.624796656E1,1.879472613E0,9.014958382E0,7.963639259E0,1.217462288E1
1.626734522E1,4.023241043E0,2.299029732E1,3.873888016E0,2.365897816E1
1.628669336E1,3.771455765E0,2.608136177E1,4.366104603E0,2.671187339E1
1.630607202E1,3.016372919E0,2.715987015E1,5.111987114E0,2.780088963E1
1.632542017E1,1.957533956E0,2.052830124E1,6.195175171E0,2.153191321E1
1.634479883E1,1.604376316E0,1.176420784E1,3.250396013E0,1.230998309E1
1.636417749E1,-1.873049736E-1,3.170111656E0,1.767879963E0,3.634568837E0
1.638355615E1,-1.621817946E0,-3.320338249E0,6.212772131E-1,3.747122218E0
1.640293482E1,-6.947854757E-1,-7.325766563E0,4.255980253E-2,7.358763071E0
1.642228296E1,1.944585562E0,-8.780088425E0,3.435953856E-1,8.999412400E0
1.644166162E1,2.992377281E0,-8.918332100E0,8.733391762E-3,9.406967923E0
1.646104028E1,2.649306059E0,-8.913714409E0,5.957887173E-1,9.318159226E0
1.648038843E1,6.695849895E-1,-1.029049587E1,-5.462869406E-1,1.032671675E1
1.649976709E1,-9.805476665E-1,-1.142133713E1,-1.896233559E0,1.161912721E1
1.651914575E1,1.477777958E-1,-1.227173328E1,1.157212019E0,1.232706030E1
1.653849390E1,2.946309566E0,-1.136275768E1,3.884223700E0,1.236447314E1
1.655787256E1,4.303995609E0,-1.050032330E1,2.915410995E0,1.171668847E1
1.657722071E1,3.529352427E0,-9.123768806E0,1.182954073E0,9.853875690E0
1.659659937E1,3.047152042E0,-8.178032875E0,9.234501123E-1,8.775996660E0
1.661597803E1,2.472173691E0,-8.262768745E0,1.912955761E0,8.834273589E0
1.663532617E1,1.571609974E0,-9.215353966E0,1.867429018E0,9.533100113E0
1.665470484E1,9.883072376E-1,-9.849724770E0,6.570937037E-1,9.920967764E0
1.667408350E1,6.372427940E-1,-9.922549248E0,-4.804142118E-1,9.954589884E0
1.669346216E1,3.471122980E-1,-9.194174767E0,-1.059285879E0,9.261502209E0
1.671284082E1,-3.232988119E-1,-6.458614349E0,-9.749925733E-1,6.539788372E0
1.673218897E1,-1.181126356E0,-3.660464287E0,-1.203238010E0,4.030116620E0
1.675156763E1,-3.162792921E-1,7.959131241E0,1.182977962E1,1.426153879E1
1.677091577E1,8.027751923E0,2.521099854E1,3.954841137E0,2.675219648E1
1.679029444E1,3.832229614E0,6.852976227E1,6.249949455E0,6.892079634E1
1.680967310E1,2.239857197E0,1.266930008E1,4.155097008E0,1.352009452E1
1.682902124E1,-9.830158949E-1,6.991923332E0,3.790276527E0,8.013707524E0
1.684839990E1,4.602483749E0,1.015583229E1,9.860577583E0,1.488471620E1
1.686774805E1,3.133367062E0,6.530685425E-1,-4.363007843E-1,3.230301230E0
1.688712671E1,3.942346573E-1,-6.116083145E0,-3.411508799E0,7.014291574E0
1.690650537E1,-9.676432610E-1,-6.476181030E0,-3.464174747E0,7.407952544E0
1.692585352E1,2.152006626E-1,-3.146149635E0,-6.087622643E-1,3.211722333E0
1.694523218E1,7.942292690E-1,-4.869281769E0,-4.877209663E-1,4.957678571E0
1.696464136E1,1.210652828E0,-6.939603806E0,-2.365921974E0,7.431108130E0
1.698398950E1,8.096957207E-1,-8.183018684E0,-1.731420994E0,8.403286298E0
1.700336817E1,-4.811613560E-1,-1.091269970E1,-3.406980038E-1,1.092861410E1
1.702271631E1,-1.045264006E0,-1.322009182E1,8.404296637E-1,1.328795419E1
1.704209497E1,2.212610245E-1,-1.488236618E1,2.747367620E0,1.513544874E1
1.706147364E1,2.064616680E0,-1.265281963E1,1.689954281E0,1.293106462E1
1.708082178E1,3.091740370E0,-6.183785439E0,-8.222028017E-1,6.962332821E0
1.710020044E1,1.751591682E0,-1.922994614E0,-2.287250996E0,3.463740583E0
1.711954859E1,4.567422867E-1,3.390323639E0,2.142677307E0,4.036579485E0
1.713892725E1,2.033475637E0,6.436979294E0,1.030942440E1,1.232290376E1
1.715830591E1,2.071088314E0,1.122389889E1,1.119645119E1,1.598830298E1
1.717765406E1,1.668970227E0,1.013156796E1,9.826779366E-1,1.031502723E1
1.719703272E1,7.624632359E0,1.206223106E1,9.169442177E0,1.696204901E1
1.721638086E1,5.236025333E0,1.967860985E1,-1.180286169E0,2.039746853E1
1.723575952E1,2.262305260E0,2.632698822E1,5.682845116E0,2.702819014E1
1.725516870E1,7.260131836E-2,2.538070679E1,3.616372824E0,2.563715469E1
1.727451685E1,1.920413733E0,1.549746037E1,1.520379424E0,1.568983175E1
1.729389551E1,2.558988810E0,6.442458153E0,5.627606511E-1,6.954882481E0
1.731324365E1,1.593067050E0,-1.550547600E0,-3.615847826E-1,2.252288623E0
1.733262232E1,1.439155817E0,-7.863846779E0,5.922513008E-1,8.016359350E0
1.735200098E1,1.894932985E0,-1.144604206E1,6.350873411E-2,1.160201203E1
1.737134912E1,2.133884668E0,-1.223829651E1,1.950794160E-1,1.242446865E1
1.739072779E1,2.859537840E0,-1.202874851E1,-2.865220010E-1,1.236728921E1
1.741010645E1,2.282359123E0,-1.168219185E1,-4.881480336E-1,1.191306250E1
1.742945459E1,1.387847662E0,-9.487861633E0,-1.866415024E0,9.768784190E0
1.744883325E1,1.939249277E0,-8.849776268E0,-1.131100059E0,9.130093926E0
1.746818140E1,3.030861616E0,-8.881479263E0,1.163336754E0,9.456222737E0
1.748756006E1,3.451363087E0,-8.908497810E0,1.873893738E0,9.735744354E0
1.750693872E1,3.366032600E0,-8.472052574E0,4.762895107E-1,9.128674711E0
1.752631739E1,3.408683062E0,-8.238944054E0,1.694891974E-2,8.916255189E0
1.754569605E1,2.975425482E0,-8.691598892E0,4.718142748E-1,9.198894325E0
1.756504419E1,2.396866083E0,-9.306959152E0,1.316924840E-1,9.611545068E0
1.758442285E1,2.190775633E0,-9.717376709E0,-3.641419709E-1,9.967923924E0
1.760380152E1,2.012815714E0,-9.741754532E0,-7.850264907E-1,9.978450533E0
1.762314966E1,1.756721497E0,-9.009413719E0,-1.718151808E0,9.338503714E0
1.764252832E1,2.702016830E-1,-6.388430595E0,-3.008840561E0,7.066694839E0
1.766187647E1,-7.406289577E-1,-3.381066322E0,-4.059047699E0,5.334417396E0
1.768125513E1,-1.738619804E-2,9.392992020E0,4.648073196E0,1.048013291E1
1.770063379E1,4.329724312E0,4.797154617E1,9.531296730E0,4.910052314E1
1.771998194E1,3.994518757E0,4.405455780E1,7.439446926E0,4.485650024E1
1.773936060E1,4.566991329E0,2.538255692E0,5.964751244E0,7.929590731E0
1.775870874E1,4.658526421E0,9.388896942E0,9.890500307E-1,1.052765283E1
1.777808740E1,5.235048294E0,1.089195061E1,8.253744841E-1,1.211286761E1
1.779746607E1,-4.075055122E-1,5.243822098E0,-2.900093317E0,6.006186160E0
1.781684473E1,-1.107826471E0,4.002399445E-1,-1.153825283E0,1.648873642E0
1.783622339E1,4.162499905E-1,-2.301707268E0,-4.418999553E-1,2.380419285E0
1.785560205E1,1.692002296E0,-5.573768616E0,-9.152833819E-1,5.896398225E0
1.787495020E1,2.513466597E0,-6.966871262E0,-2.107342958E0,7.700370371E0
1.789432886E1,2.212687254E0,-7.914183617E0,-1.745334864E0,8.400980954E0
1.791367700E1,1.593861818E0,-9.887856483E0,-9.480381608E-1,1.006026231E1
1.793305567E1,1.447822094E0,-1.156832218E1,-7.053961754E-1,1.167989087E1
1.795243433E1,2.314419985E0,-1.280391026E1,1.815476418E-1,1.301267141E1
1.797178247E1,3.097121954E0,-1.044252777E1,1.259106994E0,1.096466603E1
1.799116114E1,3.169965744E0,-8.140892029E0,-3.806496859E-1,8.744581181E0
1.801050928E1,3.280928850E0,-7.080171585E0,-3.760185957E0,8.662119961E0
1.802988794E1,2.905844450E0,-4.529668808E0,-4.776830673E0,7.195828150E0
1.804926660E1,2.450080156E0,-1.543911934E0,-2.649653912E0,3.925203521E0
1.806861475E1,1.740440607E0,1.261500359E0,3.565122366E0,4.163005422E0
1.808799341E1,-1.023065686E0,6.500994682E0,7.326179028E0,9.847969050E0
1.810737207E1,2.760283947E0,1.242350388E1,5.716666698E0,1.395144774E1
1.812675073E1,4.342312813E0,2.134062195E1,7.118653297E0,2.291185393E1
1.814612940E1,4.505419731E0,2.817223358E1,8.268516541E0,2.970424074E1
1.816547754E1,8.475660324E0,2.512185669E1,6.852938652E0,2.738443481E1
1.818485620E1,6.509721756E0,1.722203064E1,1.440150976E0,1.846750799E1
1.820420435E1,3.792664528E0,9.997364044E0,1.113052368E-1,1.069317450E1
1.822358301E1,2.881162167E-1,3.344537735E0,-2.154806376E0,3.989001646E0
1.824296167E1,-1.678959370E0,-2.393811226E0,-2.518319130E0,3.858907616E0
1.826230982E1,-1.140617132E0,-6.575032234E0,-2.492439747E0,7.123504209E0
1.828168848E1,1.418156147E0,-9.329731941E0,-1.697970152E0,9.588439268E0
1.830106714E1,2.668463230E0,-9.519108772E0,-1.320705891E0,9.973885496E0
1.832041529E1,2.908769846E0,-8.430660248E0,-3.087169647E0,9.437562750E0
1.833979395E1,2.902006626E0,-8.821213722E0,-4.544157982E0,1.033851178E1
1.835914209E1,2.805733681E0,-9.396428108E0,-3.063680410E0,1.027380846E1
1.837852075E1,3.296081305E0,-1.028939056E1,3.878161430E0,1.147936611E1
1.839792993E1,4.633333683E0,-1.066645527E1,4.392173767E0,1.243109969E1
1.841727808E1,3.967388868E0,-1.017273426E1,8.158397675E-1,1.094944251E1
1.843665674E1,3.522819042E0,-9.282969475E0,-1.769706249E0,1.008541702E1
1.845600489E1,3.015652895E0,-8.536584854E0,-3.142779827E0,9.583554059E0
1.847538355E1,2.584399462E0,-8.845325470E0,-2.993952751E0,9.689306287E0
1.849476221E1,1.952715158E0,-9.824750900E0,-6.671693325E-1,1.003912056E1
1.851411035E1,7.797064781E-1,-1.001402760E1,3.645379543E-1,1.005094915E1
1.853348902E1,5.552392006E-1,-9.648435593E0,-9.688096046E-1,9.712836455E0
1.855283716E1,1.218911648E0,-8.321873665E0,-2.647904873E0,8.817637275E0
1.857221582E1,3.694155216E-1,-6.074994087E0,-3.592076778E0,7.067180242E0
1.859159448E1,-4.294509888E-1,-1.157276154E0,-4.192514420E0,4.370456888E0
1.861094263E1,2.205302715E-1,1.406920433E1,4.223476410E0,1.469111626E1
1.863032129E1,3.802377701E0,5.749235153E1,6.886154652E0,5.802799055E1
1.864966944E1,2.498104811E0,3.261736298E1,1.139289379E1,3.464001911E1
1.866904810E1,6.197401047E0,4.164423943E0,7.263207912E0,1.041654433E1
1.868845728E1,7.440824509E0,1.327239895E1,5.245374441E-1,1.522490009E1
1.870780542E1,6.840580940E0,1.267406845E1,-2.811213970E0,1.467407519E1
1.872718408E1,3.921079636E-2,6.185442924E0,-1.962706804E0,6.489488397E0
1.874656275E1,-1.914675474E0,9.162979126E-1,-1.046411753E0,2.366550568E0
1.876591089E1,-1.702358723E-1,-4.091423035E0,-1.033154249E0,4.223284315E0
1.878528955E1,1.260666370E0,-7.553836823E0,-1.930625677E0,7.897914025E0
1.880463770E1,1.646202087E0,-9.347693443E0,-2.024963856E0,9.705144648E0
1.882401636E1,1.855364799E0,-1.059598827E1,-2.270749807E0,1.099425535E1
1.884339502E1,2.091593742E0,-1.204026127E1,-1.743849039E0,1.234437788E1
1.886274317E1,3.878226757E0,-1.248536777E1,-6.133224964E-1,1.308820903E1
1.888212183E1,5.457873821E0,-1.102671337E1,-7.926023006E-2,1.230378302E1
1.890146997E1,4.789027691E0,-9.222433090E0,-1.308480620E0,1.047378536E1
1.892084864E1,2.656473160E0,-8.091629028E0,-1.722625136E0,8.689001516E0
1.894022730E1,9.905498028E-1,-7.783191681E0,-1.285989881E0,7.950662339E0
1.895960596E1,5.471205711E-2,-8.314725876E0,-1.224884748E0,8.404641720E0
1.897898462E1,5.787689686E-1,-7.285880089E0,-1.049302340E0,7.383769876E0
1.899833277E1,1.429820299E0,-2.828171730E0,-3.173053265E-2,3.169218871E0
1.901771143E1,4.389231205E-1,5.255085945E0,6.483467579E0,8.357268312E0
1.903709009E1,4.721903801E0,9.576945305E0,-2.328992605E0,1.092879058E1
1.905643823E1,8.074174881E0,2.449500465E1,7.668140888E0,2.690720977E1
1.907581690E1,7.759018421E0,2.145716476E1,4.922874451E0,2.334195749E1
1.909516504E1,4.077529907E0,2.112367249E1,7.095541954E0,2.265353184E1
1.911454370E1,5.408866882E0,2.259671402E1,4.855248451E0,2.373690719E1
1.913392236E1,5.752583981E0,1.892156219E1,2.910156965E0,1.998966613E1
1.915327051E1,4.245838165E0,1.410270214E1,6.229832172E-1,1.474114845E1
1.917264917E1,1.865075827E0,5.119052887E0,-3.768509388E0,6.624565896E0
1.919202783E1,-5.049984455E-1,-1.849073410E0,-3.741786003E0,4.204171547E0
1.921137598E1,-3.503787518E-1,-6.185453415E0,-3.380988598E0,7.057880923E0
1.923075464E1,2.449150085E-1,-1.003837776E1,-2.070493460E0,1.025260721E1
1.925013330E1,6.397910118E-1,-1.078214264E1,-2.634764671E0,1.111781981E1
1.926951196E1,1.116333008E0,-1.046173477E1,-3.507386208E0,1.109034949E1
1.928886011E1,1.337221384E0,-9.214329720E0,-4.883187294E0,1.051368401E1
1.930823877E1,2.217331648E0,-8.234340668E0,-3.262431383E0,9.130409870E0
1.932761743E1,2.683403969E0,-9.406796455E0,1.812934875E0,9.948628512E0
1.934696558E1,2.549715519E0,-1.065985966E1,5.600435734E0,1.230847422E1
1.936634424E1,2.819093227E0,-1.043535423E1,3.526149273E0,1.137003225E1
1.938572290E1,3.631824493E0,-9.307589531E0,-1.757694125E0,1.014449903E1
1.940507105E1,4.103749275E0,-7.821850777E0,-2.971445560E0,9.319420390E0
1.942444971E1,3.719631910E0,-8.148204803E0,-1.521128774E0,9.085303287E0
1.944379785E1,2.899690628E0,-9.025026321E0,-5.138604641E-1,9.493332314E0
1.946317652E1,2.642796040E0,-9.651068687E0,-3.936301470E-1,1.001411216E1
1.948255518E1,2.159212828E0,-1.006791687E1,-1.005391479E0,1.034581858E1
1.950190332E1,1.861974955E0,-1.042074203E1,-1.733592153E0,1.072679622E1
1.952128198E1,5.496752262E-1,-8.253801346E0,-3.194083691E0,8.867330496E0
1.954066065E1,-1.127672672E0,-3.348783493E0,-5.369748592E0,6.428078755E0
1.956003931E1,-4.072968483E0,1.134625530E1,3.687972546E0,1.260665392E1
1.957941797E1,4.114511490E0,4.273002243E1,7.669201851E0,4.360734661E1
1.959876612E1,9.010564804E0,4.625026703E1,6.007467747E0,4.750123311E1
1.961814478E1,4.955717087E0,6.495429039E0,5.675697327E0,9.948028467E0
1.963752344E1,3.101164103E0,1.423676968E1,2.533619404E-1,1.457281791E1
1.965687158E1,4.375381947E0,1.193654346E1,-7.359569073E-1,1.273446778E1
1.967625025E1,5.060739517E-1,2.914601326E0,-3.831011772E0,4.840213108E0
1.969559839E1,-2.039831877E0,-3.393775940E0,-1.912626624E0,4.397359414E0
1.971497705E1,-3.943426609E-1,-5.168739319E0,-7.754179239E-1,5.241435418E0
1.973435572E1,1.869077444E0,-6.263335228E0,-9.698957205E-1,6.607837496E0
1.975370386E1,2.039127588E0,-8.035923958E0,-2.183884144E0,8.573416188E0
1.977308252E1,2.856992960E0,-8.799553871E0,-2.865974426E0,9.685471931E0
1.979243067E1,3.276222706E0,-1.010923576E1,-2.701607704E0,1.096489704E1
1.981180933E1,3.535058737E0,-1.161722183E1,-8.827340007E-1,1.217520853E1
1.983121851E1,4.053269386E0,-9.181684494E0,1.383447051E0,1.013144850E1
1.985056665E1,3.987715244E0,-6.936926842E0,1.758911729E0,8.192471992E0
1.986994531E1,2.758886576E0,-5.353781700E0,5.169653893E-2,6.023047913E0
1.988929346E1,1.854556084E0,-6.073073387E0,-2.567446232E0,6.849334186E0
1.990867212E1,1.416805506E0,-5.707973480E0,-3.591630697E0,6.891161742E0
1.992805078E1,3.901562691E-1,-2.629538536E0,-2.064510107E0,3.365842660E0
1.994739893E1,-1.962106228E-1,1.557204247E0,9.691977501E-1,1.844648463E0
1.996677759E1,2.517357111E0,4.744659424E0,6.246853828E0,8.238450256E0
1.998612573E1,6.465202332E0,8.997797012E0,1.169497871E1,1.610998819E1
2.000550440E1,4.180041313E0,8.865826607E0,1.037366390E0,9.856559026E0
2.002488306E1,6.508224487E0,2.826584244E1,8.161623478E-1,2.901690810E1
2.004423120E1,5.130745888E0,2.979986191E1,7.299636841E0,3.110692883E1
2.006360986E1,5.330388069E0,2.074210358E1,3.506950855E0,2.170130416E1
2.008298853E1,4.004572868E0,1.724000168E1,-1.747267246E-1,1.769985286E1
2.010233667E1,9.235000610E-1,9.371263504E0,-2.498980522E0,9.742604153E0
2.012174585E1,-1.154797077E0,-3.222188950E-1,-2.958333969E0,3.192040285E0
2.014109400E1,-9.683258533E-1,-6.732798576E0,-1.415192485E0,6.947733544E0
2.016047266E1,3.489952087E-1,-9.663824081E0,-1.455238461E0,9.779008769E0
2.017985132E1,2.095973969E0,-1.086828613E1,-9.476847649E-1,1.110904392E1
2.019919946E1,3.265702724E0,-1.024246216E1,-1.349312544E0,1.083482763E1
2.021857813E1,3.332597971E0,-9.503299713E0,-2.835115671E0,1.046216018E1
2.023792627E1,2.194681168E0,-8.692324638E0,-4.197814941E0,9.899231451E0
2.025730493E1,2.085137129E0,-7.433294296E0,-9.959858656E-1,7.784192237E0
2.027668360E1,2.983850002E0,-8.803586960E0,3.542484045E0,9.947647833E0
2.029603174E1,4.138751507E0,-1.095882130E1,2.831564903E0,1.205167159E1
2.031541040E1,3.950943470E0,-1.079761887E1,1.898980737E-1,1.149932993E1
2.033475855E1,3.992751598E0,-9.297261238E0,-1.113494039E0,1.017944010E1
2.035413721E1,3.778150320E0,-8.669313431E0,-7.062478065E-1,9.483153545E0
2.037351587E1,3.295840263E0,-8.545860291E0,-1.474976540E0,9.277383626E0
2.039289453E1,2.587193727E0,-8.941431999E0,-2.300049782E0,9.588170137E0
2.041227320E1,2.271713972E0,-9.262418747E0,-1.576300383E0,9.666323412E0
2.043162134E1,2.366492271E0,-9.097472191E0,-1.416365385E0,9.506333512E0
2.045100000E1,1.476114988E0,-7.574569702E0,-2.412938595E0,8.085499013E0
2.047037866E1,-9.555706978E-1,-4.479756355E0,-4.984564781E0,6.769580372E0
2.048972681E1,-5.857193470E0,9.399852753E0,-2.678167582E0,1.139458331E1
2.050910547E1,6.746964455E-1,4.090422058E1,1.997544098E1,4.552613226E1
2.052848413E1,6.445666313E0,4.914229584E1,6.680324078E0,5.001138455E1
2.054783228E1,5.577800751E0,1.382425976E1,5.973428726E0,1.605938572E1
2.056721094E1,4.552075386E0,1.449499512E1,-2.381838799E0,1.537853796E1
2.058655908E1,5.341799736E0,1.077259922E1,1.431248546E0,1.210917796E1
2.060593775E1,5.966961384E-1,4.432078362E0,-2.593058109E0,5.169459860E0
2.062531641E1,-2.271613121E0,-1.303422928E0,-2.019376278E0,3.307116274E0
2.064466455E1,-1.671977758E0,-5.636838913E0,-1.215701818E0,6.003948157E0
2.066405759E1,3.196284771E-1,-6.602790833E0,-8.757483363E-1,6.668278960E0
2.068343625E1,1.099922895E0,-7.887763023E0,-1.924053192E0,8.193205513E0
2.070281491E1,2.193675995E0,-9.958599091E0,-3.283422947E0,1.071292567E1
2.072219357E1,3.229844809E0,-1.249580860E1,-2.292387486E0,1.310847705E1
2.074154172E1,3.516727686E0,-1.272902203E1,-9.947636127E-1,1.324329755E1
2.076092038E1,3.071948528E0,-9.529961586E0,1.620733738E-1,1.001415515E1
2.078026852E1,2.130849123E0,-7.243227959E0,1.060234785E0,7.624235506E0
2.079964718E1,2.311234236E0,-6.696703911E0,1.178068876E0,7.181607984E0
2.081902585E1,2.338432550E0,-7.191674232E0,-4.119951725E-1,7.573518672E0
2.083837399E1,2.407238245E0,-8.461677551E0,-1.161075592E0,8.873718470E0
2.085775265E1,2.116228104E0,-8.164741516E0,-8.386467695E-1,8.476128469E0
2.087713132E1,7.328240871E-1,-5.352473259E0,-2.067124844E0,5.784376047E0
2.089647946E1,5.802087784E-1,-1.553940773E0,-7.189360857E-1,1.807828324E0
2.091585812E1,3.690106869E-1,3.234261513E0,-2.792907953E-1,3.267203662E0
2.093520627E1,3.979246616E-1,1.418103695E1,6.823841333E-1,1.420302084E1
2.095458493E1,2.599092484E0,2.251765442E1,1.215133667E1,2.571876796E1
2.097399411E1,9.310245514E-1,1.612637711E1,1.149251461E1,1.982434708E1
2.099334225E1,7.018350601E0,2.385379791E1,4.967521191E0,2.535620608E1
2.101272092E1,7.606723785E0,2.745419502E1,6.322339773E-1,2.849552230E1
2.103206906E1,4.326773643E0,2.369558716E1,1.252067447E0,2.411989830E1
2.105144772E1,8.576493263E-1,1.633048630E1,8.589792252E-2,1.635321753E1
2.107082638E1,-7.625617981E-1,5.356288910E0,-1.668927193E0,5.661859178E0
2.109017453E1,-1.423265457E0,-1.700123787E0,-1.796418428E0,2.853633582E0
2.110955319E1,7.281994820E-2,-8.146797180E0,-8.602373600E-1,8.192412060E0
2.112890134E1,1.080544233E0,-1.172622490E1,9.283715487E-2,1.177627042E1
2.114828000E1,2.080468893E0,-1.178685665E1,-1.123637915E0,1.202168469E1
2.116765866E1,3.464123249E0,-1.206677055E1,-2.941970587E0,1.289427363E1
2.118700681E1,3.189481735E0,-1.221687412E1,-5.169630051E0,1.364367553E1
2.120638547E1,2.661442518E0,-1.011202431E1,-3.352505207E0,1.098069228E1
2.122573361E1,2.731950045E0,-8.871372223E0,9.924679995E-1,9.335405127E0
2.124511227E1,2.958492994E0,-8.625466347E0,1.925474524E0,9.319807007E0
2.126452145E1,3.315120459E0,-8.425842285E0,-1.679973602E-1,9.056106502E0
2.128386960E1,3.612599134E0,-8.110295296E0,-1.754210472E0,9.050139041E0
2.130324826E1,3.971337318E0,-8.387351036E0,-1.044450164E0,9.338632322E0
2.132262692E1,3.318456650E0,-9.304246902E0,8.243771791E-1,9.912656692E0
2.134197507E1,2.211317301E0,-9.933188438E0,5.890537500E-1,1.019338712E1
2.136135373E1,1.932629347E0,-9.829933167E0,-9.636182785E-1,1.006435306E1
2.138070187E1,2.444684505E0,-9.719394684E0,-1.612694621E0,1.015105410E1
2.140008054E1,2.097945213E0,-9.475163460E0,-1.831945777E0,9.876037770E0
2.141945920E1,1.702918053E0,-8.833422661E0,-1.928103328E0,9.200373266E0
2.143880734E1,7.720618248E-1,-6.226704597E0,-2.344770908E0,6.698199774E0
2.145818600E1,-3.435571194E-1,-3.042160034E0,-4.243106842E0,5.232277214E0
2.147753415E1,-5.239725113E-2,8.964128494E0,2.930628061E-1,8.969070796E0
2.149691281E1,5.478816986E0,3.820461273E1,1.419580650E1,4.112336066E1
2.151629147E1,5.492626190E0,5.292612457E1,4.235571861E0,5.337868183E1
2.153567014E1,4.061515331E0,1.635425949E1,3.046473503E0,1.712421417E1
2.155504880E1,3.875252008E0,1.183534145E1,1.716158390E-1,1.245481182E1
2.157439694E1,6.063190937E0,8.531121254E0,3.795872211E0,1.113332655E1
2.159377560E1,3.173802376E0,1.008999825E0,-2.723427057E0,4.302110773E0
2.161315427E1,-1.955418587E-1,-2.781784058E0,-3.359318256E0,4.365956746E0
2.163250241E1,-7.697343826E-3,-1.745552063E0,-2.562887192E0,3.100871170E0
2.165188107E1,6.343054771E-1,-2.561291695E0,-3.567024469E-1,2.662666937E0
2.167122922E1,7.405316830E-1,-6.623663902E0,-1.755609751E0,6.892276566E0
2.169060788E1,3.851697445E-1,-9.340004921E0,-3.098592281E0,9.848112600E0
2.170998654E1,7.222599983E-1,-1.027518082E1,-2.915335178E0,1.070514734E1
2.172933468E1,2.153566599E0,-1.055484772E1,-2.085976124E0,1.097241796E1
2.174871335E1,2.994581938E0,-1.159053612E1,-1.432865500E0,1.205658127E1
2.176809201E1,3.317927361E0,-1.220545101E1,-1.476906776E0,1.273432095E1
2.178744015E1,1.570731163E0,-1.011276722E1,-2.293441296E0,1.048785632E1
2.180681882E1,2.118504047E-1,-7.641070366E0,-2.524574280E0,8.050112560E0
2.182619748E1,8.276114464E-1,-5.987560272E0,-1.746555924E0,6.291762576E0
2.184557614E1,2.738986015E0,-4.061223030E0,3.129571915E0,5.812899213E0
2.186495480E1,2.341203928E0,1.101579666E-1,7.163116455E0,7.536816832E0
2.188430295E1,4.549243450E-1,3.037680626E0,-3.595085859E0,4.728541221E0
2.190368161E1,6.861306190E0,2.678134155E1,7.272659779E0,2.858687388E1
2.192302975E1,1.117161560E1,2.640502167E1,8.782628775E-1,2.868451690E1
2.194240842E1,5.046604156E0,2.312288284E1,5.892709732E0,2.438975097E1
2.196178708E1,1.535908699E0,2.362299538E1,5.352451801E0,2.427042782E1
2.198113522E1,-2.445852757E-1,1.965328407E1,3.227154732E0,1.991797993E1
2.200051388E1,2.140879631E-1,1.270100403E1,4.120720625E-1,1.270949017E1
2.201986203E1,7.977263927E-1,3.367957115E0,-1.720436335E0,3.865152482E0
2.203924069E1,5.777225494E-1,-4.374347687E0,-2.554321766E0,5.098356668E0
2.205861935E1,2.373251915E-1,-9.738408089E0,-2.940316677E0,1.017538095E1
2.207796750E1,5.364673138E-1,-1.046312618E1,-2.101405382E0,1.068553748E1
2.209734616E1,3.781220913E-1,-1.017912292E1,-1.050736904E0,1.024019374E1
2.211672482E1,8.319842815E-1,-7.494094849E0,-1.660300016E0,7.720767552E0
2.213610348E1,3.357119083E0,-7.014739037E0,6.824687123E-1,7.806572605E0
2.215548215E1,5.493505478E0,-9.181779861E0,3.230617523E0,1.117678726E1
2.217483029E1,6.432136536E0,-1.124299622E1,1.731674552E0,1.306813074E1
2.219420895E1,5.383729935E0,-1.111864567E1,-2.794365883E0,1.266559553E1
2.221358762E1,3.783232212E0,-9.406949043E0,-2.622869730E0,1.047296433E1
2.223293576E1,2.980593681E0,-8.415167809E0,4.249534011E-2,8.927530106E0
2.225231442E1,2.196231842E0,-8.375600815E0,2.838144064E0,9.112035176E0
2.227166257E1,1.505817890E0,-9.009189606E0,1.906916142E0,9.331093936E0
2.229104123E1,2.135672331E0,-9.803711891E0,-1.350878239E0,1.012416590E1
2.231041989E1,3.001153946E0,-9.983326912E0,-2.474826336E0,1.071440650E1
2.232976804E1,3.004472971E0,-9.852155685E0,-2.066226244E0,1.050529011E1
2.234914670E1,2.243276358E0,-9.232389450E0,-2.033464909E0,9.716186665E0
2.236849484E1,9.899449348E-2,-5.885357857E0,-3.174711704E0,6.687752344E0
2.238787350E1,-2.965342283E0,-1.047554016E-1,-5.178818703E0,5.968617236E0
2.240728268E1,-4.003519058E0,1.080099773E1,4.508621216E0,1.237001949E1
2.242663083E1,2.094704390E0,3.626134872E1,1.427647209E1,3.902679660E1
2.244600949E1,9.593923569E0,3.617897415E1,1.607438564E0,3.746392130E1
2.246535764E1,8.016529083E0,1.323363018E1,6.562507629E0,1.680655267E1
2.248473630E1,2.468603849E0,1.597641945E1,8.102982044E-1,1.618630800E1
2.250411496E1,3.296414852E0,1.054830837E1,4.138864994E0,1.180098995E1
2.252346310E1,1.832087517E0,2.241696358E0,-6.222692728E-1,2.961244042E0
2.254284177E1,1.296279430E0,-1.443478584E0,-1.454852819E0,2.424988147E0
2.256218991E1,2.376214743E0,-2.211821556E0,-3.020534992E0,4.434205987E0
2.258156857E1,2.063139439E0,-4.038661957E0,-2.293740511E0,5.082182629E0
2.260094723E1,1.190311670E0,-5.808979988E0,-1.922066092E0,6.233412263E0
2.262029538E1,1.191196203E0,-7.520871162E0,-1.667035460E0,7.794963673E0
2.263967404E1,8.544619083E-1,-9.259889603E0,-1.765823007E0,9.465399701E0
2.265905270E1,1.330537081E0,-1.067831898E1,-1.688920736E0,1.089262495E1
2.267843136E1,2.466047287E0,-1.148992348E1,4.619230032E-1,1.176065915E1
2.269781003E1,3.607809782E0,-1.107825089E1,6.864099503E-1,1.167112217E1
2.271715817E1,3.519228458E0,-8.836861610E0,-1.455479264E0,9.622552258E0
2.273653683E1,1.938277006E0,-6.686934471E0,-1.786786914E0,7.187810365E0
2.275594601E1,6.943249702E-1,-5.043533325E0,-7.452645898E-1,5.145360519E0
2.277526364E1,-1.039328575E-1,-2.450504303E0,-1.187269449E0,2.724955435E0
2.279464230E1,-9.394249916E-1,3.812484741E0,2.377108335E0,4.590011248E0
2.281399045E1,1.489502072E0,1.016271400E1,8.022860527E0,1.303325222E1
2.283336911E1,9.336994171E0,1.920074463E1,7.866600037E0,2.275371290E1
2.285274777E1,8.614294052E0,2.233778763E1,6.811543465E0,2.489136281E1
2.287209592E1,4.118268013E0,2.520520782E1,2.206148148E0,2.563454159E1
2.289147458E1,2.664165497E0,2.210831070E1,2.272243023E0,2.238388412E1
2.291082272E1,1.070251584E0,1.435419750E1,5.333026648E-1,1.440391739E1
2.293020138E1,-1.237792969E0,5.114837646E0,1.341810077E-1,5.264190358E0
2.294958005E1,-1.857565880E0,-1.307668686E0,-6.447540522E-1,2.361409786E0
2.296895871E1,-9.751324654E-1,-6.395847321E0,-1.261930466E0,6.591677690E0
2.298836789E1,5.765006542E-1,-9.504687309E0,-4.226953983E-1,9.531532157E0
2.300768552E1,1.880937576E0,-8.853061676E0,1.942611337E-1,9.052754531E0
2.302706418E1,2.960906267E0,-8.793386459E0,4.666615725E-1,9.290230588E0
2.304644284E1,4.754241467E0,-7.820868492E0,6.509072185E-1,9.175645814E0
2.306579098E1,5.450481415E0,-7.133181572E0,1.450446367E0,9.093614334E0
2.308516965E1,5.184132099E0,-8.929691315E0,2.482547998E0,1.061968254E1
2.310454831E1,3.946208000E0,-1.083220577E1,2.310373306E0,1.175785118E1
2.312389645E1,2.826398849E0,-1.060165787E1,2.572515607E-2,1.097197985E1
2.314327512E1,2.495871067E0,-9.528517723E0,-7.445622683E-1,9.878076501E0
2.316262326E1,2.558482409E0,-8.990961075E0,-3.434630930E-1,9.354206550E0
2.318200192E1,3.060086250E0,-8.439120293E0,4.032608569E-1,8.985849904E0
2.320138058E1,3.156987906E0,-8.398321152E0,6.203356981E-1,8.993508058E0
2.322072873E1,2.332191229E0,-8.900002480E0,-6.174232960E-1,9.221191441E0
2.324010739E1,1.602797985E0,-9.353552818E0,-1.895213246E0,9.677279832E0
2.325948605E1,1.426869154E0,-9.245884895E0,-2.091998100E0,9.586386135E0
2.327886472E1,4.171843529E-1,-7.300790787E0,-2.524430513E0,7.736170778E0
2.329824338E1,-1.663395166E0,-3.698157310E0,-3.235777378E0,5.187822878E0
2.331759152E1,-3.094685793E0,9.612205505E0,7.875607491E0,1.280612229E1
2.333697018E1,3.894976139E0,4.548357773E1,1.458576107E1,4.792359657E1
2.335631833E1,9.604677200E0,3.699466705E1,5.019411087E0,3.854931520E1
2.337569699E1,8.121230125E0,1.655575562E1,5.199382782E0,1.915935813E1
2.339507565E1,2.288573742E0,1.568105984E1,6.098575592E0,1.698015994E1
2.341442380E1,4.750463009E0,7.728419304E0,8.329401016E-1,9.109838250E0
2.343380246E1,1.438379288E-3,2.778301239E0,-1.306557417E0,3.070187637E0
2.345315060E1,-9.604268074E-1,2.569826126E0,-2.526951790E0,3.729867467E0
2.347252927E1,4.964711666E-1,-7.861614227E-2,2.138661444E-1,5.462626153E-1
2.349190793E1,8.120415211E-1,-4.289424896E0,3.454738855E-2,4.365749752E0
2.351125607E1,3.798851967E-1,-7.591039658E0,-7.732669711E-1,7.639773403E0
2.353063473E1,3.006327152E-1,-9.326758385E0,-7.237580419E-1,9.359627541E0
2.355004391E1,1.860802174E-1,-1.023292923E1,-1.000154734E0,1.028337376E1
2.356939206E1,1.307507277E0,-1.127240944E1,-1.176925182E0,1.140885370E1
2.358877072E1,2.190656424E0,-1.208765221E1,-2.766014338E-1,1.228766942E1
2.360811886E1,3.168138504E0,-1.289619637E1,3.864078522E-1,1.328526602E1
2.362749753E1,3.675196171E0,-1.309394264E1,2.824558020E-1,1.360287404E1
2.364687619E1,2.277317762E0,-8.825688362E0,-7.817566395E-2,9.115100805E0
2.366622433E1,1.887634516E0,-6.286808014E0,7.377946377E-1,6.605411418E0
2.368563351E1,2.041390181E0,-5.615384102E0,1.927973151E0,6.278287422E0
2.370495114E1,2.589285612E0,-5.527387619E0,2.157132387E0,6.473765057E0
2.372432980E1,8.224693537E-1,4.969120026E-2,5.669797421E0,5.729356669E0
2.374370846E1,-3.369438648E0,4.452100754E0,6.683706284E0,8.708975118E0
2.376305661E1,3.810476303E0,2.443251419E1,3.386164188E0,2.495863753E1
2.378243527E1,9.752336502E0,3.950499725E1,8.819755554E0,4.163581347E1
2.380178342E1,8.194739342E0,2.739320183E1,5.385299206E0,2.909540697E1
2.382116208E1,4.706637859E0,2.186705017E1,3.693410635E0,2.267072132E1
2.384057126E1,1.553873777E0,1.522245598E1,2.569446325E0,1.551579016E1
2.385991940E1,-1.634644985E0,5.991337776E0,8.103415370E-1,6.262974212E0
2.387929806E1,-2.266130209E0,-1.789313316E0,7.926008105E-2,2.888471989E0
2.389864621E1,-6.497046947E-1,-6.888732910E0,9.440823793E-1,6.983412406E0
2.391805539E1,1.191768408E0,-1.048131847E1,4.065078497E-1,1.055668497E1
2.393740353E1,2.178519487E0,-1.035986423E1,-1.012648821E0,1.063476336E1
2.395675168E1,2.343350649E0,-8.893760681E0,-2.449651718E0,9.517933854E0
2.397613034E1,2.787974596E0,-7.979902267E0,-3.075643539E0,8.995066744E0
2.399550900E1,3.242647886E0,-7.841732025E0,-5.199919939E-1,8.501642085E0
2.401485715E1,3.163002014E0,-9.769633293E0,4.841361046E0,1.135293324E1
2.403423581E1,3.264718056E0,-1.158308220E1,5.225648880E0,1.311996888E1
2.405358395E1,2.313304901E0,-1.162737942E1,1.467913747E0,1.194579853E1
2.407296262E1,2.294102907E0,-1.051610851E1,-6.320584416E-1,1.078197312E1
2.409234128E1,2.655737162E0,-9.045768738E0,1.501659751E-1,9.428755048E0
2.411171994E1,2.697994232E0,-7.931483269E0,2.360102892E0,8.703889095E0
2.413109860E1,2.128384113E0,-8.261851311E0,1.989258051E0,8.760442546E0
2.415047726E1,1.944861412E0,-9.176022530E0,-1.250419617E-1,9.380698848E0
2.416982541E1,2.072532177E0,-9.844454765E0,-9.685665965E-1,1.010677003E1
2.418920407E1,1.656357527E0,-1.023198318E1,-4.464166760E-1,1.037479099E1
2.420855222E1,9.186034203E-1,-9.721526146E0,2.019652128E-1,9.766918286E0
2.422793088E1,-4.420028925E-1,-6.910866737E0,-6.257403493E-1,6.953200458E0
2.424727902E1,-3.222503185E0,-6.485271454E-1,-1.556398988E0,3.636961925E0
2.426665768E1,-3.267486572E0,1.829264259E1,7.823321819E0,2.016188498E1
2.428603635E1,9.266400337E0,6.243372345E1,1.551478195E1,6.499649574E1
2.430538449E1,9.728164673E0,2.254799652E1,6.676361084E0,2.544844067E1
2.432476315E1,1.136660814E0,1.049608231E1,3.624156952E0,1.116217968E1
2.434411130E1,3.671621323E0,1.811123276E1,7.350550652E0,1.988788953E1
2.436348996E1,2.258555889E0,9.048107147E0,-3.668742776E-1,9.332947787E0
2.438289914E1,-5.796746016E-1,2.229048729E0,-5.101407766E-1,2.359009218E0
2.440224728E1,-7.806801796E-2,-1.612028122E0,5.826485753E-1,1.715869646E0
2.442162595E1,4.384586811E-1,-4.079948425E0,7.439793348E-1,4.170339365E0
2.444100461E1,4.753308296E-1,-6.576003075E0,-8.902287483E-2,6.593760756E0
2.446035275E1,4.028017521E-1,-8.289950371E0,-9.906969070E-1,8.358648621E0
2.447973141E1,-1.149663925E-1,-9.211698532E0,-1.726534247E0,9.372807884E0
2.449907956E1,3.145041466E-1,-1.036145878E1,-1.663486838E0,1.049885372E1
2.451845822E1,1.984761477E0,-1.144167614E1,5.813756585E-1,1.162709029E1
2.453783688E1,3.494674921E0,-1.230449009E1,2.095822811E0,1.296170137E1
2.455718503E1,3.089408398E0,-1.230017376E1,1.045098543E0,1.272520922E1
2.457656369E1,1.465482950E0,-8.165580750E0,-4.637438059E-1,8.308995581E0
2.459591183E1,7.483510971E-1,-6.018531799E0,3.273129463E-3,6.064879644E0
2.461532101E1,1.732644320E0,-6.228915215E0,1.762965798E0,6.701454282E0
2.463466916E1,2.623559713E0,-6.620254517E0,2.238806009E0,7.464789869E0
2.465401730E1,1.183709025E0,-4.659111023E0,1.734769583E0,5.110568274E0
2.467339596E1,2.387577295E-1,5.706482887E0,1.052851772E1,1.197792293E1
2.469277463E1,3.911471128E0,1.992862892E1,-2.125150561E-1,2.030997341E1
2.471215329E1,6.987346649E0,4.675670242E1,1.271563721E1,4.895609936E1
2.473153195E1,2.118683338E0,2.893905640E1,2.794018507E0,2.915071772E1
2.475088010E1,2.016268730E0,2.236020660E1,1.803154111E0,2.252322232E1
2.477025876E1,1.353543639E0,1.327162075E1,-9.169037938E-1,1.337193742E1
2.478963742E1,1.598656178E-1,4.018985748E0,5.252181292E-1,4.056310829E0
2.480898556E1,-3.234720230E-1,-3.310453415E0,2.118281126E0,3.943456719E0
2.482836423E1,6.988892555E-1,-8.702687263E0,1.865551710E0,8.927793399E0
2.484774289E1,1.663608313E0,-1.100947285E1,-4.192233086E-3,1.113445565E1
2.486709103E1,2.071237564E0,-1.038024712E1,-3.956294060E-1,1.059226500E1
2.488646970E1,2.752188683E0,-9.886632919E0,-1.352530122E0,1.035129899E1
2.490581784E1,3.402442932E0,-8.556379318E0,-5.611714125E-1,9.225137305E0
2.492519650E1,3.834721088E0,-9.032912254E0,5.071716785E0,1.104630711E1
2.494454465E1,3.504165888E0,-1.037204838E1,6.631315708E0,1.279972321E1
2.496392331E1,2.802215576E0,-1.130825615E1,3.139431238E0,1.206586498E1
2.498333249E1,2.180376530E0,-1.077528286E1,-2.867050767E-1,1.099740707E1
2.500268063E1,2.039633751E0,-9.506011009E0,-1.157272816E0,9.790997473E0
2.502205930E1,2.106081009E0,-9.037975311E0,5.910575390E-2,9.280305406E0
2.504140744E1,2.307786942E0,-9.170834541E0,1.859868050E0,9.637904125E0
2.506078610E1,1.855260849E0,-9.498317719E0,2.285969973E0,9.944128469E0
2.508016476E1,1.432409525E0,-9.553017616E0,4.507916570E-1,9.670323456E0
2.509951291E1,1.864070654E0,-9.193433762E0,-1.378581047E0,9.481269400E0
2.511889157E1,2.048647165E0,-8.867083549E0,-1.694159150E0,9.257013617E0
2.513823972E1,1.352959633E0,-8.245018959E0,-1.470142961E0,8.483640594E0
2.515761838E1,-3.531734943E-1,-5.269565582E0,-3.224504948E0,6.187930599E0
2.517699704E1,-5.843160629E0,7.680335999E0,-3.336679459E0,1.021095084E1
2.519634518E1,-3.004984856E-1,4.682933807E1,2.446312523E1,5.283485308E1
2.521572385E1,7.103452206E0,5.303861237E1,1.052461147E1,5.453733475E1
2.523510251E1,3.513076544E0,9.560396194E0,5.824388027E0,1.173313164E1
2.525448117E1,6.551452160E0,9.128400803E0,3.207767487E0,1.168499032E1
2.527385983E1,5.757364750E0,1.239176464E1,4.643984318E0,1.443155120E1
2.529320798E1,2.234436989E0,5.481006622E0,-1.315014511E-1,5.920425228E0
2.531258664E1,-9.061045647E-1,8.242712021E-1,-4.225103557E-1,1.295748238E0
2.533196530E1,-1.440916777E0,-2.355973244E0,-7.433459759E-1,2.859967539E0
2.535131345E1,-6.113815308E-1,-5.611129761E0,-1.215559602E0,5.773746592E0
2.537069211E1,6.550874710E-1,-8.124132156E0,-1.769568682E0,8.340385855E0
2.539004025E1,1.783707857E0,-9.725715637E0,-1.478537202E0,9.997861303E0
2.540941891E1,1.975124359E0,-9.932972908E0,-1.777944446E0,1.028232238E1
2.542879758E1,1.575546503E0,-9.747974396E0,-6.596468091E-1,9.896488545E0
2.544814572E1,1.231366873E0,-1.040025330E1,1.115164280E0,1.053209971E1
2.546752438E1,1.716007710E0,-1.099641991E1,3.076766968E0,1.154696619E1
2.548687253E1,2.604674339E0,-1.021456337E1,3.254777193E0,1.103246155E1
2.550625119E1,2.082755327E0,-8.618158340E0,7.684649229E-1,8.899497810E0
2.552559933E1,1.432964563E0,-7.588129997E0,-7.061508894E-1,7.754466672E0
2.554500851E1,1.304441929E0,-5.811356544E0,-3.678188622E-1,5.967304613E0
2.556438718E1,1.422104120E0,-3.571085930E0,1.198018670E0,4.026199645E0
2.558373532E1,1.775221825E0,-6.987457275E-1,2.315359592E0,3.000091359E0
2.560311398E1,3.762743473E0,1.178367615E1,1.058706665E1,1.628186851E1
2.562249264E1,2.530290604E0,2.898793030E1,5.603244305E0,2.963273224E1
2.564184079E1,2.595717669E0,3.038757896E1,7.113144398E0,3.131676115E1
2.566121945E1,4.539190292E0,2.411149979E1,7.643917561E0,2.569821290E1
2.568056760E1,9.084738493E-1,1.963700676E1,3.523926020E0,1.997136485E1
2.569994626E1,1.456862807E0,1.184941483E1,2.930611372E0,1.229306975E1
2.571932492E1,1.075808048E0,5.216012001E0,1.840663314E0,5.634907771E0
2.573867306E1,-4.519498348E-1,-1.794065475E0,2.076296806E-1,1.861730289E0
2.575805173E1,-9.267055988E-1,-6.482450485E0,-7.831760645E-1,6.595021782E0
2.577743039E1,-1.900172234E-2,-9.918455124E0,-9.155445099E-1,9.960639280E0
2.579677853E1,1.274893522E0,-1.078011608E1,-6.627543569E-1,1.087545399E1
2.581615720E1,2.634744406E0,-9.493062019E0,-1.321926236E0,9.940200881E0
2.583553586E1,3.408327579E0,-9.360724449E0,-2.384363174E0,1.024329277E1
2.585491452E1,3.495376110E0,-1.037251568E1,1.178655028E-1,1.094626091E1
2.587429318E1,4.277358055E0,-1.037322903E1,6.709736824E0,1.307364680E1
2.589364133E1,4.710453033E0,-9.395037651E0,6.976273060E0,1.261441580E1
2.591301999E1,3.958406925E0,-9.535911560E0,4.388337731E-1,1.033417485E1
2.593236813E1,4.338205338E0,-8.570624352E0,-1.258320212E0,9.688085316E0
2.595174680E1,3.680185556E0,-8.132813454E0,-1.365417480E0,9.030547342E0
2.597112546E1,2.779542208E0,-7.917089462E0,-4.562489986E-1,8.403232925E0
2.599047360E1,2.311908007E0,-8.517442703E0,7.184818387E-1,8.854827214E0
2.600985226E1,2.160924435E0,-9.215520859E0,8.786353469E-1,9.506177948E0
2.602920041E1,2.011397839E0,-9.503395081E0,2.490021884E-1,9.717110754E0
2.604857907E1,1.488459826E0,-8.818799973E0,-3.708469272E-1,8.951216289E0
2.606795773E1,6.593790054E-1,-6.355478287E0,1.502798311E-2,6.389609594E0
2.608730588E1,-1.444202185E0,-6.683406830E-1,-1.732207179E0,2.352220425E0
2.610668454E1,7.889356613E-1,1.607618332E1,2.168024540E0,1.624088729E1
2.612606320E1,4.241302967E0,5.476525116E1,1.685533524E1,5.745714674E1
2.614544186E1,3.785181046E-1,2.841926956E1,5.876397133E0,2.902292545E1
2.616482053E1,3.865465641E0,1.083022308E1,3.912952542E-1,1.150602749E1
2.618416867E1,5.543192387E0,9.283939362E0,7.159029961E0,1.296804619E1
2.620354733E1,3.554822206E0,6.597570419E0,1.157556295E0,7.583180925E0
2.622292599E1,2.687368155E0,2.860234261E0,1.059191346E0,4.065067519E0
2.624227414E1,5.920255184E-1,-1.407501221E0,-1.430270076E-1,1.533626625E0
2.626165280E1,-3.312830925E-1,-5.526860237E0,-1.223690033E0,5.670392391E0
2.628100095E1,9.029700756E-1,-8.001249313E0,-8.119807839E-1,8.092877012E0
2.630037961E1,2.104396343E0,-9.331080437E0,-4.579734802E-1,9.576392107E0
2.631975827E1,2.178170443E0,-9.557875633E0,-7.457525134E-1,9.831254239E0
2.633910641E1,2.266593933E0,-9.129487038E0,-8.156549335E-1,9.441942311E0
2.635848508E1,1.905438900E0,-7.959356308E0,-5.789628029E-1,8.204708902E0
2.637783322E1,1.113474846E0,-7.220755577E0,-5.617855787E-1,7.327669505E0
2.639721188E1,1.614451408E-1,-7.140211105E0,2.452106774E-2,7.142078160E0
2.641662106E1,-7.284164429E-2,-7.764873505E0,7.297861576E-1,7.799432946E0
2.643596921E1,3.739476204E-1,-8.500493050E0,-7.121496797E-1,8.538464503E0
2.645534787E1,8.866527081E-1,-7.733030319E0,-2.037039995E0,8.045833884E0
2.647469601E1,1.573800325E0,-3.860639572E0,-5.292248726E-2,4.169434753E0
2.649407468E1,5.055636406E0,7.930567741E0,7.149847984E0,1.181413096E1
2.651345334E1,5.427912712E0,1.321355247E1,-7.070675850E0,1.593909227E1
2.653280148E1,8.499543190E0,1.613423538E1,1.738060951E1,2.519208949E1
2.655218014E1,5.761442184E0,1.001755047E1,1.054291058E1,1.564284171E1
2.657155881E1,8.746031761E0,2.542723465E1,5.061911583E0,2.736165716E1
2.659090695E1,7.370997429E0,2.541557312E1,6.453534603E0,2.723841165E1
2.661028561E1,4.634288311E0,1.806423187E1,4.697607517E0,1.923176065E1
2.662963376E1,4.216221809E0,1.119637203E1,3.419775009E0,1.244307575E1
2.664901242E1,1.610168695E0,2.985836029E0,-2.755788565E-1,3.403498748E0
2.666839108E1,2.862477303E-1,-4.368437767E0,-2.342588425E0,4.965169364E0
2.668776974E1,4.180579185E-1,-7.853389740E0,-1.868369937E0,8.083397123E0
2.670714841E1,4.189975262E-1,-9.571931839E0,-5.985238552E-1,9.599774417E0
2.672649655E1,5.993535519E-1,-6.465037346E0,1.583607912E0,6.683094088E0
2.674587521E1,1.416529417E0,-5.067365646E0,-1.003100634E0,5.356394409E0
2.676525388E1,1.263103008E0,-5.532413483E0,-8.170497894E0,9.947867309E0
2.678460202E1,2.101259470E0,-9.820186615E0,-8.422345161E0,1.310676369E1
2.680398068E1,2.198186874E0,-1.196541405E1,-3.835439205E0,1.275593010E1
2.682332883E1,2.911853075E0,-1.300963116E1,1.232992768E0,1.338841523E1
2.684270749E1,3.724784613E0,-1.378446198E1,8.267887115E0,1.649979908E1
2.686208615E1,5.169781685E0,-1.016601753E1,6.024580479E0,1.289845437E1
2.688143430E1,5.910764694E0,-7.142726898E0,7.640287876E-1,9.302656975E0
2.690081296E1,5.034040928E0,-6.196236610E0,-1.508588791E0,8.124700384E0
2.692016110E1,3.960153341E0,-7.367132187E0,-1.424641967E0,8.484518600E0
2.693953976E1,3.912910938E0,-9.640390396E0,-9.359951615E-1,1.044624746E1
2.695891843E1,3.403777838E0,-9.632449150E0,-2.508578300E-1,1.021923235E1
2.697829709E1,2.143390656E0,-8.182254791E0,-3.682671189E-1,8.466347361E0
2.699767575E1,-9.860563278E-2,-5.415345192E0,-1.567858219E0,5.638604971E0
2.701705441E1,-1.346621513E0,-3.341517448E0,4.871899784E-1,3.635448038E0
2.703640256E1,3.788778782E-1,3.991908073E0,5.835124969E0,7.080082056E0
2.705578122E1,-6.234159470E-1,1.779096222E1,7.010345459E0,1.913248357E1
2.707512936E1,-1.083456993E1,6.569727325E1,1.747745723E-1,6.658490944E1
2.709450803E1,3.205369711E0,1.925715256E1,1.538395643E0,1.958261935E1
2.711388669E1,7.838198662E0,1.277066612E1,1.803367972E0,1.509236256E1
2.713323483E1,4.560074806E0,4.905385017E0,6.675809622E-1,6.730731665E0
2.715261349E1,4.158568859E0,2.245197296E0,2.126212120E0,5.182218042E0
2.717196164E1,1.694952250E0,-7.366583824E0,-4.294023037E0,8.693563953E0
2.719134030E1,1.388042688E0,-9.319911957E0,-1.158802271E0,9.493694965E0
2.721071896E1,1.066625118E0,-8.862744331E0,3.572888374E-1,8.933844723E0
2.723006711E1,2.567076683E-1,-1.233574772E1,-2.314209938E-2,1.233844018E1
2.724944577E1,1.036820650E0,-1.252405930E1,-4.931757927E0,1.349997387E1
2.726882443E1,2.379822254E0,-8.847593307E0,-3.053129673E0,9.657383812E0
2.728820309E1,3.444767237E0,-3.152733803E0,1.200748801E0,4.821612742E0
2.730758176E1,3.341512918E0,4.032811165E0,3.679857969E0,6.400830348E0
2.732692990E1,1.806862116E0,5.268589020E0,-1.765733147E1,1.851497058E1
2.734630856E1,-3.905129194E0,5.942255974E0,2.693372726E1,2.785652714E1
2.736565671E1,-2.317996025E-1,5.723220825E0,1.242108154E1,1.367816707E1
2.738503537E1,9.016844749E0,6.054797173E0,-1.051610756E1,1.511795543E1
2.740441403E1,9.019987106E0,5.183552742E0,5.251879692E0,1.165382455E1
2.742376218E1,2.790416956E0,3.434317589E0,1.692875862E0,4.737804636E0
2.744314084E1,1.459393740E0,-2.033748627E-1,-1.445986629E0,2.064477840E0
2.746251950E1,1.558881998E0,-1.119209290E0,2.279869556E0,2.980024784E0
2.748186764E1,3.538849115E0,-1.540085793E0,2.624092102E0,4.667030819E0
2.750124631E1,3.202036858E0,-2.717591286E0,1.302708149E0,4.397202628E0
2.752059445E1,1.479301691E0,-1.476593018E0,5.624535084E-1,2.164489404E0
2.753997311E1,1.979084730E0,-3.047418594E0,6.470627785E-1,3.690830082E0
2.755938229E1,2.421950579E0,-2.084450722E0,2.740876675E-1,3.207164397E0
2.757873044E1,3.072759867E0,-1.400762558E0,-1.316494465E0,3.624520191E0
2.759810910E1,8.082396984E-1,-1.491250992E0,3.067426682E-1,1.723708791E0
2.761745724E1,1.771728516E0,-1.054656982E0,-1.239804387E0,2.405917331E0
2.763683591E1,3.437588692E0,-1.391901970E0,-1.351489067E0,3.947268651E0
2.765621457E1,2.770040274E0,-7.425699234E-1,1.910474539E0,3.445931829E0
2.767556271E1,1.735018969E0,1.071485519E0,6.015426636E0,6.351671406E0
2.769494138E1,2.123899698E0,2.532800674E0,4.488860130E0,5.574575720E0
2.771428952E1,1.458920956E0,4.121107101E0,4.100827217E0,5.994060223E0
2.773366818E1,-7.846527100E-1,5.348447800E0,3.553307056E0,6.468969375E0
2.775304684E1,6.140892506E-1,4.494172096E0,3.645458221E0,5.819282953E0
2.777239499E1,-4.125699997E-1,5.335163116E0,4.674849510E0,7.105518801E0
2.779177365E1,-1.286820173E0,5.726339340E0,2.757604122E0,6.484693431E0
2.781112180E1,-2.663209438E-1,2.968792915E0,1.702634692E0,3.432728232E0
2.783053097E1,6.870644569E0,-4.958015442E0,7.457511425E-1,8.505516956E0
2.784990964E1,3.294015408E0,-2.751296043E0,-1.228216529E0,4.464155381E0
2.786925778E1,3.632827282E0,-2.368340492E0,-1.619871020E0,4.629303713E0
2.788863644E1,3.515507221E0,-1.602804184E0,1.612320185E0,4.186567646E0
2.790801510E1,3.235267639E0,-3.245694160E0,-1.128195047E0,4.719566860E0
2.792736325E1,3.536745906E-1,-4.500675201E-1,-1.808018684E0,1.896464619E0
2.794674191E1,-9.453387856E-1,1.061500549E0,-3.615478516E0,3.884859551E0
2.796609006E1,1.077475071E0,2.189769745E-1,1.044677854E0,1.516659244E0
2.798546872E1,2.833503246E0,-4.199848175E-1,5.075758934E0,5.828246447E0
2.800484738E1,2.959489822E0,7.089805603E-2,5.852035999E0,6.558195779E0
2.802419553E1,1.098876238E0,3.677634239E0,-6.123580933E-1,3.886837406E0
2.804357419E1,5.397808075E0,2.125076294E0,-1.148594737E0,5.913674927E0
2.806292233E1,6.022254944E0,3.763451576E0,-2.401267052E0,7.496479562E0
2.808230099E1,5.064042568E0,-1.252356529E0,1.493786454E0,5.426262248E0
2.810167966E1,4.379263878E0,-2.928758621E0,2.268114328E0,5.735845341E0
2.812105832E1,1.907762289E-1,5.562417984E0,-3.651409864E0,6.656551915E0
2.814043698E1,-2.605668545E0,2.828622818E0,-1.988636971E0,4.329583422E0
2.815978513E1,3.563154459E0,-3.262274742E0,7.788781166E0,9.165348779E0
2.817916379E1,3.455602169E0,-7.634494781E0,3.689779758E0,9.156482490E0
2.819854245E1,3.258497715E-1,6.131433487E0,-4.529787064E0,7.630178603E0
2.821789059E1,-3.491353035E0,-1.041373253E0,5.001046658E0,6.187444702E0
2.823726926E1,-8.642816544E-1,-1.462818146E1,5.659443855E0,1.570859575E1
2.825664792E1,2.259310246E0,-1.163903522E1,1.644536972E0,1.196980057E1
2.827599606E1,1.388834476E0,7.744659901E0,4.828064442E0,9.231404250E0
2.829537472E1,2.073570728E0,1.772168875E0,-4.088172913E0,4.914614517E0
2.831472287E1,-2.032364845E0,-6.493191719E0,-1.211794090E1,1.389735721E1
2.833410153E1,-3.605124474E0,-1.201335621E1,-7.124852657E0,1.442501907E1
2.835348019E1,4.909764290E0,-1.447374535E1,-5.178374767E0,1.613724434E1
2.837282834E1,8.006555557E0,-6.235578537E0,2.345199585E-1,1.015097883E1
2.839220700E1,2.757368088E0,4.750246048E0,8.546179533E-1,5.558622863E0
2.841158566E1,-1.171900749E0,1.251043320E1,-3.354625225E0,1.300529894E1
2.843096432E1,-1.379663467E0,1.545586586E1,-5.197441101E0,1.636461594E1
2.845034299E1,-2.120619774E0,1.349075699E1,-5.381087303E0,1.467833958E1
2.846969113E1,-4.282127380E0,7.309501648E0,-4.711168766E0,9.693324527E0
2.848906979E1,-3.317627907E0,2.536951065E0,-1.240645885E0,4.356831170E0
2.850841794E1,-2.786050797E0,1.094702125E0,-1.553503990E0,3.372510405E0
2.852779660E1,-2.048264503E0,2.167694807E0,-3.083014488E-1,2.998222479E0
2.854717526E1,-1.845198631E0,3.374447346E0,8.096518517E-1,3.930291210E0
2.856652341E1,-2.701016426E0,1.557537436E0,2.059341431E0,3.736616080E0
2.858590207E1,-2.348244667E0,-1.156995296E0,3.775051117E0,4.593898352E0
2.860525021E1,-1.864701033E0,-1.536088943E0,5.646026611E0,6.141196600E0
2.862462888E1,-2.713842869E0,2.625250816E0,3.205128670E0,4.952750221E0
2.864400754E1,1.173493147E0,8.049356461E0,-2.635711670E0,8.550801226E0
2.866335568E1,3.674094200E0,-1.078148365E0,1.545705795E0,4.129234614E0
2.868273434E1,2.673262596E0,3.050433397E-1,-1.327504158E0,3.000275260E0
2.870214352E1,3.774545431E0,-6.530396938E-1,-7.988824844E-1,3.913038113E0
2.872149167E1,8.440136909E0,1.393023729E-1,-1.518021584E0,8.576695502E0
2.874087033E1,6.947082520E0,-1.350273013E0,-1.440590858E0,7.222222287E0
2.876021847E1,3.556967974E0,-3.148119450E0,-2.558441162E-1,4.756903767E0
2.877959714E1,2.313318253E-1,-2.873825073E0,-7.672605515E-1,2.983466728E0
2.879897580E1,-1.080624342E0,-3.130331516E0,3.680067062E-1,3.331989392E0
2.881832394E1,-7.104086876E-2,-3.122043133E0,1.666647911E0,3.539762052E0
2.883770260E1,5.909950733E-1,-2.802018642E0,1.064693451E0,3.055185067E0
2.885705075E1,2.027699947E-1,-2.881159782E0,1.088062286E0,3.086434335E0
2.887642941E1,-6.407608986E-1,-2.514512539E0,2.267370224E-1,2.604756709E0
2.889580807E1,-6.981382370E-1,-2.161881685E0,1.472225189E-1,2.276577231E0
2.891515622E1,7.043838501E-3,-2.094590902E0,1.056388855E0,2.345915190E0
2.893453488E1,2.608015537E-1,-1.422782421E0,1.250206947E0,1.911895572E0
2.895388303E1,3.002498150E-1,-1.134837151E0,1.173125267E0,1.659586756E0
2.897329221E1,-1.457459927E-1,-1.468749285E0,1.264941216E0,1.943847379E0
2.899267087E1,-8.260822296E-2,-7.684898376E-1,4.188413620E-1,8.791068397E-1
2.901201901E1,1.513152122E-1,-8.738839626E-1,6.936054230E-1,1.125903174E0
2.903139767E1,2.085595131E-1,-1.086094141E0,1.021953583E0,1.505817611E0
2.905074582E1,-8.479762077E-2,-1.384361267E0,9.175815582E-1,1.663010123E0
2.907012448E1,-3.589420319E-1,-1.773393154E0,6.769170761E-1,1.931833168E0
2.908950314E1,-4.507555962E-1,-1.462132692E0,4.179372787E-1,1.586090851E0
2.910885129E1,-4.633221626E-1,-1.786539793E0,9.960594177E-1,2.097266369E0
2.912822995E1,-6.876482964E-1,-1.878978968E0,8.928089142E-1,2.191011159E0
2.914757809E1,-9.083201885E-1,-1.922413349E0,4.176778793E-1,2.166834895E0
2.916695676E1,-7.042663097E-1,-1.818236828E0,-1.218223572E-2,1.949903742E0
2.918633542E1,-4.759948254E-1,-1.614944458E0,-1.390495300E-1,1.689364214E0
2.920568356E1,-2.202444077E-1,-1.775131702E0,5.853710175E-1,1.882089102E0
2.922506222E1,7.877016068E-2,-1.707348347E0,5.356645584E-1,1.791139200E0
2.924444089E1,1.021838188E-2,-1.564448357E0,1.486253738E-1,1.571525557E0
2.926381955E1,7.124996185E-2,-1.427453756E0,2.302865982E-1,1.447664568E0
2.928319821E1,1.417868137E-1,-1.519527674E0,4.324502945E-1,1.586215972E0
2.930254636E1,2.367877960E-2,-1.597367525E0,4.402685165E-1,1.657099895E0
2.932192502E1,-1.248097420E-2,-1.601330996E0,1.604452133E-1,1.609397216E0
2.934130368E1,-2.165229321E-1,-1.162315845E0,4.903335571E-1,1.279955977E0
2.936065182E1,-2.097601891E-1,-2.076502085E0,-2.646598816E-1,2.103783520E0
2.938003049E1,-3.417568207E-1,-1.703163147E0,2.385778427E-1,1.753420034E0
2.939937863E1,-2.836582661E-1,-1.725637436E0,3.567934036E-1,1.784821589E0
2.941875729E1,-4.742450714E-1,-1.713114023E0,3.517131805E-1,1.812007231E0
2.943813596E1,-9.077384472E-1,-1.537259817E0,1.038837433E-1,1.788280925E0
2.945748410E1,-9.389820099E-1,-1.586833715E0,2.827396393E-1,1.865387402E0
2.947686276E1,-8.044030666E-1,-1.696362495E0,6.054401398E-1,1.972629659E0
2.949621091E1,-6.501200199E-1,-1.787324429E0,9.452896118E-1,2.123854304E0
2.951558957E1,-7.936544418E-1,-1.629733324E0,7.566490173E-1,1.964290156E0
2.953496823E1,-8.084924221E-1,-1.400491714E0,3.722438812E-1,1.659398248E0
2.955434689E1,-7.553205490E-1,-1.440842152E0,4.468460083E-1,1.687070417E0
2.957372556E1,-7.185554504E-1,-1.416521072E0,2.797517776E-1,1.612797241E0
2.959310422E1,-6.674113274E-1,-1.509144783E0,3.633852005E-1,1.689675904E0
2.961245236E1,-5.975563526E-1,-1.598860979E0,3.470020294E-1,1.741792305E0
2.963183102E1,-5.959608555E-1,-1.545871735E0,2.019195557E-1,1.669029739E0
2.965117917E1,-5.598027706E-1,-1.436457872E0,6.847858429E-2,1.543204354E0
2.967055783E1,-5.787370205E-1,-1.364018679E0,3.778553009E-1,1.529136398E0
2.968993649E1,-5.412702560E-1,-1.406064987E0,6.154661179E-1,1.627510608E0
2.970928464E1,-4.663450718E-1,-1.503806591E0,6.203441620E-1,1.692258511E0
2.972866330E1,-2.519497871E-1,-1.564023018E0,3.572969437E-1,1.623979003E0
2.974801144E1,-2.950465679E-1,-1.039435148E0,8.408203125E-1,1.369107995E0
2.976739010E1,-1.182832718E-1,-2.135710716E0,-2.107114792E-1,2.149337229E0
2.978676877E1,-3.102047443E-1,-1.484399796E0,5.041227341E-1,1.598064288E0
2.980611691E1,-3.347520828E-1,-1.708564281E0,5.359125137E-1,1.821662176E0
2.982549557E1,-2.959871292E-1,-1.880095720E0,2.507028580E-1,1.919692741E0
2.984487424E1,-2.722201347E-1,-1.868942261E0,-3.161373138E-1,1.914939105E0
2.986425290E1,-1.382966042E-1,-1.839462519E0,-4.935922623E-1,1.909550112E0
2.988363156E1,-1.309471130E-1,-1.783910990E0,-2.645683289E-1,1.808170890E0
2.990297971E1,-3.766813278E-1,-1.704712629E0,5.343723297E-2,1.746650941E0
2.992235837E1,-7.164418697E-1,-1.628316164E0,2.227897644E-1,1.792857429E0
2.994170651E1,-9.011209011E-1,-1.789155006E0,4.541702271E-1,2.054109323E0
2.996108517E1,-1.070745230E0,-1.401263952E0,1.288409233E0,2.184040834E0
2.998046384E1,-1.048746109E0,2.608680725E-1,2.140943527E0,2.398240968E0
2.999981198E1,-1.210667133E0,-7.470538616E-1,1.505884171E0,2.071591542E0
