"Time (s)","Linear Acceleration x (m/s^2)","Linear Acceleration y (m/s^2)","Linear Acceleration z (m/s^2)","Absolute acceleration (m/s^2)"
1.601947980E-1,-5.276083946E-2,-4.938175678E-1,-2.317905426E0,2.370511561E0
1.795734600E-1,-8.502484560E-1,-1.485939026E-1,-3.266201019E0,3.378323798E0
1.989521220E-1,-7.112442255E-1,-6.999871731E-1,-3.952729225E0,4.076753453E0
2.183002660E-1,6.634318829E-2,-1.579631090E0,-4.032109261E0,4.330997678E0
2.376789290E-1,1.056794643E0,-7.828943729E-1,-4.144104958E0,4.347797651E0
2.570575910E-1,1.309866905E0,1.785593748E0,-3.452582359E0,4.101758317E0
2.764362530E-1,7.304828167E-1,2.931447029E0,-2.729506493E0,4.071509858E0
2.957843970E-1,4.694880247E-1,2.220535755E0,-2.310345650E0,3.238656367E0
3.151630590E-1,6.394298077E-1,1.318156958E0,-1.768139839E0,2.296241872E0
3.345417220E-1,8.946145773E-1,1.202990294E0,-1.035673141E0,1.822125063E0
3.538898660E-1,7.662173510E-1,1.240886450E0,-3.063430786E-1,1.490212834E0
3.732685280E-1,-7.821679115E-3,1.319774389E0,4.296894073E-1,1.387983647E0
3.926471900E-1,-7.840834856E-1,1.308597088E0,1.104898453E0,1.883617223E0
4.119953350E-1,-1.261104822E0,1.189936876E0,1.660431862E0,2.400701795E0
4.313739970E-1,-1.378809929E0,8.770434856E-1,2.106853485E0,2.666299627E0
4.507831770E-1,-1.077634215E0,5.297865868E-1,2.786703110E0,3.034416509E0
4.701313210E-1,-9.045482874E-1,4.898579121E-1,2.954936981E0,3.128868956E0
4.895099830E-1,-9.191347361E-1,6.007103920E-1,2.845541000E0,3.050043479E0
5.088886450E-1,-8.701139092E-1,6.915004253E-1,2.565653801E0,2.796041931E0
5.282673080E-1,-8.166316152E-1,6.344425678E-1,2.377960205E0,2.593086829E0
5.476154520E-1,-5.378437638E-1,3.061969280E-1,2.135780334E0,2.223643431E0
5.669941140E-1,-3.782195449E-1,-7.613658905E-3,1.649909973E0,1.692722928E0
5.863727760E-1,-3.136255145E-1,-2.825994492E-1,1.097580910E0,1.175970776E0
6.057209210E-1,-1.967549324E-1,-5.357823372E-1,3.792171478E-1,6.852597037E-1
6.250995830E-1,-1.366654634E-1,-3.482971191E-1,-9.946985245E-1,1.062738673E0
6.444782450E-1,-1.803303361E-1,-2.451446056E-1,-2.410421371E0,2.429556769E0
6.638263900E-1,2.174372077E-1,-3.319427967E-1,-3.319632530E0,3.343265633E0
6.832050520E-1,3.404683471E-1,-7.587287426E-1,-3.391492844E0,3.491963876E0
7.025837140E-1,1.989567280E-2,-1.674443483E0,-2.979571342E0,3.417894411E0
7.219623760E-1,-2.907135487E-1,-2.350593090E0,-2.652762413E0,3.556255146E0
7.413410380E-1,-1.207509041E0,-9.939401150E-1,-2.817675591E0,3.222621723E0
7.607197000E-1,-2.406787634E0,1.805060625E0,-3.189038277E0,4.384157354E0
7.800678450E-1,-2.139651299E0,2.739641190E0,-3.135787010E0,4.681549071E0
7.994465070E-1,-5.422291756E-1,1.997315884E0,-2.732186317E0,3.427553835E0
8.188251690E-1,1.952086687E-1,1.376411438E0,-2.146602631E0,2.557443592E0
8.382038310E-1,-2.088888288E-1,1.944394350E0,-1.226001740E0,2.308112691E0
8.575519750E-1,-6.022772789E-1,1.994039297E0,-1.578683853E-1,2.088983740E0
8.769306380E-1,-2.861588001E-1,1.528048754E0,5.477218628E-1,1.648277614E0
8.963093000E-1,9.913241863E-2,1.178229570E0,1.158063889E0,1.655042032E0
9.156574440E-1,3.918921351E-1,9.353201389E-1,2.059691429E0,2.295807481E0
9.350361060E-1,1.038234830E-1,6.264686584E-1,3.163722992E0,3.226822813E0
9.544147680E-1,-6.211307645E-1,4.825437069E-1,3.796629906E0,3.877247799E0
9.737629130E-1,-1.080896616E0,4.380588531E-1,3.595739365E0,3.780155371E0
9.931415750E-1,-9.972231984E-1,3.793482780E-1,2.995456696E0,3.179798742E0
1.012550755E0,-7.419103980E-1,3.726584911E-1,2.242163658E0,2.390941919E0
1.031898899E0,-6.370006204E-1,4.768183231E-1,1.509727478E0,1.706576269E0
1.051277561E0,-5.677264929E-1,4.794547558E-1,1.066712379E0,1.300025205E0
1.070656224E0,-2.897583246E-1,3.272843361E-1,9.377689362E-1,1.034642692E0
1.090034886E0,1.907807589E-2,5.355644226E-2,4.803085327E-1,4.836616091E-1
1.109383030E0,2.772769332E-1,8.538842201E-2,-3.649768829E-1,4.662422175E-1
1.128761692E0,5.010766387E-1,1.366925240E-1,-1.168354988E0,1.278599242E0
1.148140354E0,4.272098541E-1,8.144688606E-2,-1.650101662E0,1.706451684E0
1.167488499E0,3.651541471E-2,-3.339624405E-2,-1.874919891E0,1.875572788E0
1.186867161E0,-2.289476991E-1,2.793455124E-2,-2.354474068E0,2.365744180E0
1.206245823E0,-9.062707424E-3,-6.657819748E-1,-3.115230560E0,3.185594013E0
1.225593968E0,5.370885134E-1,-1.119846344E0,-3.787076950E0,3.985532804E0
1.244972630E0,9.695104361E-1,2.875211239E-1,-4.442455292E0,4.556097881E0
1.264351292E0,1.083782196E0,2.123298883E0,-4.038237572E0,4.689386387E0
1.283699436E0,7.474452257E-1,2.486899853E0,-2.872506142E0,3.872290895E0
1.303108616E0,1.030362844E-1,1.675255775E0,-2.254241943E0,2.810463508E0
1.322487278E0,-2.857911587E-2,1.003950596E0,-1.533355713E0,1.833006630E0
1.341865940E0,2.794456482E-2,8.944351673E-1,-1.013729095E0,1.352198893E0
1.361214085E0,-7.175886631E-2,1.138533115E0,-4.574146271E-1,1.229078977E0
1.380592747E0,-2.141059637E-1,1.146553040E0,5.846891403E-1,1.304717068E0
1.399971409E0,-3.898651600E-1,1.047134399E0,1.723572731E0,2.054066273E0
1.419319554E0,-6.342985630E-1,8.448538780E-1,2.350019455E0,2.576568295E0
1.438698216E0,-8.125321865E-1,8.158574104E-1,2.539492607E0,2.788342621E0
1.458076878E0,-9.424567223E-1,7.611486912E-1,2.767348289E0,3.020892014E0
1.477425022E0,-7.099357843E-1,6.313180923E-1,2.842037201E0,2.996622566E0
1.496803684E0,-3.270313740E-1,4.888930321E-1,2.698929787E0,2.762279477E0
1.516182347E0,-1.863235831E-1,4.046638012E-1,2.425695419E0,2.466265910E0
1.535530491E0,-3.586881757E-1,1.939840317E-1,2.240963936E0,2.277763459E0
1.554909153E0,-5.224882960E-1,-7.851624489E-2,1.956379890E0,2.026470107E0
1.574287815E0,-3.775643706E-1,-5.338480473E-1,1.515120506E0,1.650193546E0
1.593666477E0,-1.769573092E-1,-7.270617485E-1,1.079598427E0,1.313569731E0
1.613045140E0,-5.736076832E-2,-6.509215832E-1,2.300539017E-1,6.927582283E-1
1.632423802E0,-3.196443319E-1,1.538062096E-2,-1.068027496E0,1.114940265E0
1.651802464E0,-5.207297802E-1,3.558514118E-1,-2.260641098E0,2.346974202E0
1.671150608E0,6.438720226E-2,-1.438455582E-1,-2.982172966E0,2.986334351E0
1.690529270E0,3.827467561E-1,-1.050175667E0,-3.689634323E0,3.855225733E0
1.709907933E0,-1.012451649E-1,-1.211242676E0,-4.590636253E0,4.748820971E0
1.729256077E0,-1.147759676E0,4.137871265E-1,-5.320107460E0,5.458215409E0
1.748634739E0,-1.922673464E0,1.846996069E0,-5.154922485E0,5.803558698E0
1.768013401E0,-1.576183319E0,1.428932905E0,-4.490284920E0,4.968788762E0
1.787361546E0,-1.039893866E0,8.779149055E-1,-3.319845200E0,3.587964044E0
1.806740208E0,-1.436357856E0,1.069268942E0,-2.166030884E0,2.810364700E0
1.826118870E0,-2.185832500E0,1.503317118E0,-1.242601395E0,2.929485331E0
1.845467015E0,-2.052885532E0,1.903824091E0,-6.905746460E-1,2.883709160E0
1.864876194E0,-1.069282055E0,1.891841412E0,-7.731056213E-2,2.174489587E0
1.884254856E0,-1.157628298E-1,1.757235050E0,9.360370636E-1,1.994352386E0
1.903633518E0,3.098356724E-2,1.373764277E0,2.076158524E0,2.489703292E0
1.922981663E0,-3.181694746E-1,1.024901628E0,3.055032730E0,3.238036464E0
1.942360325E0,-9.368004203E-1,7.291693687E-1,3.645568848E0,3.833986857E0
1.961738987E0,-1.355614662E0,5.233464241E-1,3.765734673E0,4.036377115E0
1.981087132E0,-1.147820592E0,3.852498531E-1,3.564386368E0,3.764406957E0
2.000465794E0,-6.672925949E-1,3.613367081E-1,2.928874016E0,3.025582031E0
2.019844456E0,-5.159757733E-1,5.153043270E-1,2.103025436E0,2.225867367E0
2.039192600E0,-6.058933139E-1,6.123178005E-1,1.631257057E0,1.844732876E0
2.058571263E0,-5.508254766E-1,4.120962620E-1,1.591127396E0,1.733470053E0
2.077949925E0,-3.061398268E-1,4.291772842E-3,1.347014427E0,1.381371738E0
2.097298069E0,2.801948786E-2,-3.196370602E-1,7.840976715E-1,8.472084162E-1
2.116676731E0,3.503053188E-1,-3.897521496E-1,7.527351379E-3,5.240965708E-1
2.136055393E0,4.039936066E-1,-2.832672596E-1,-9.458627701E-1,1.066821238E0
2.155464573E0,-4.489511251E-2,-2.603292465E-1,-1.730110168E0,1.750162302E0
2.174812718E0,-7.111389637E-1,-4.162716866E-1,-2.450613976E0,2.585441858E0
2.194191380E0,-7.643107772E-1,-1.325169802E0,-3.377652168E0,3.707934754E0
2.213570042E0,3.488746285E-1,-8.597216606E-1,-4.602650642E0,4.695234582E0
2.232918186E0,1.140871525E0,1.012285233E0,-5.312968254E0,5.527561931E0
2.252296849E0,1.128429651E0,2.457670689E0,-4.777001381E0,5.489375273E0
2.271675511E0,8.243086934E-1,2.509062767E0,-4.150978088E0,4.919908524E0
2.291023655E0,3.848831058E-1,2.113668919E0,-3.230213165E0,3.879434030E0
2.310402317E0,2.618952990E-1,2.113164186E0,-2.046899796E0,2.953616563E0
2.329780979E0,3.912797570E-1,1.859110832E0,-8.658046722E-1,2.087824386E0
2.349129124E0,2.871103883E-1,1.683868647E0,1.578893661E-1,1.715451849E0
2.368507786E0,-1.027312279E-1,1.411839843E0,1.022679329E0,1.746344312E0
2.387886448E0,-5.217574239E-1,1.232764363E0,1.578558922E0,2.069731155E0
2.407265110E0,-9.588893056E-1,1.073432326E0,1.847197533E0,2.341765228E0
2.426613255E0,-1.178754210E0,8.812196255E-1,2.266186714E0,2.702149467E0
2.446022434E0,-1.096850872E0,6.940692663E-1,2.479564667E0,2.798759532E0
2.465401097E0,-7.518478036E-1,6.292926073E-1,2.371593475E0,2.566269650E0
2.484749241E0,-4.687877297E-1,6.770325899E-1,2.342448235E0,2.482981835E0
2.504127903E0,-2.486587763E-1,4.529176950E-1,2.476576805E0,2.529900847E0
2.523506565E0,-2.638471127E-2,5.702948570E-2,2.520648003E0,2.521431115E0
2.542854710E0,5.214971304E-2,-1.879098415E-1,2.196805954E0,2.205444649E0
2.562233372E0,1.686233282E-2,-1.556633711E-1,1.670713425E0,1.678034198E0
2.581612034E0,-7.030892372E-2,-5.054728985E-1,1.243953705E0,1.344569454E0
2.600960179E0,3.535228968E-2,-1.067769766E0,9.113826752E-1,1.404279330E0
2.620338841E0,-1.900934577E-1,-9.793238640E-1,5.688381195E-2,9.992229587E-1
2.639717503E0,-3.701428175E-1,-4.403712749E-1,-1.564785004E0,1.667178657E0
2.659065647E0,7.090020180E-2,-7.952404022E-2,-3.304959297E0,3.306676106E0
2.678444309E0,5.771408081E-1,-3.338799477E-1,-4.315470695E0,4.366675469E0
2.697822972E0,3.946195543E-1,-1.158223152E0,-4.269860268E0,4.441724009E0
2.717201634E0,-1.471482813E-1,-8.044822216E-1,-3.957931519E0,4.041542548E0
2.736580296E0,-1.249525905E0,9.021599293E-1,-3.992015839E0,4.279181929E0
2.755958958E0,-1.817314744E0,2.109597921E0,-3.888471603E0,4.782598423E0
2.775337620E0,-1.147495270E0,2.046167374E0,-3.250410080E0,4.008579799E0
2.794685765E0,-4.988965392E-1,1.919408560E0,-2.124121666E0,2.906014423E0
2.814064427E0,-6.164596081E-1,2.160338640E0,-1.068539619E0,2.487742432E0
2.833443089E0,-9.525427818E-1,1.973148108E0,-5.940790176E-1,2.270150014E0
2.852791233E0,-9.087774754E-1,1.745386600E0,-3.313894272E-1,1.995512425E0
2.872169895E0,-7.015979290E-1,1.630052328E0,2.089853287E-1,1.786892586E0
2.891548558E0,-5.184894800E-1,1.359003067E0,1.165798187E0,1.864083177E0
2.910896702E0,-7.226195335E-1,1.050853372E0,1.980440140E0,2.355549818E0
2.930275364E0,-8.954570889E-1,6.579284668E-1,2.662154198E0,2.884749250E0
2.949654026E0,-1.043473959E0,1.814223528E-1,2.958005905E0,3.141902435E0
2.969032688E0,-1.203457594E0,-3.324735165E-2,2.970768929E0,3.205445927E0
2.988380833E0,-1.170394659E0,6.151509285E-2,2.731789589E0,2.972588455E0
3.007790013E0,-1.080152273E0,2.755930424E-1,2.340360641E0,2.592290183E0
3.027168675E0,-8.181220293E-1,4.074357748E-1,2.079620361E0,2.271596006E0
3.046516819E0,-5.873967409E-1,3.964581490E-1,1.901424408E0,2.029194119E0
3.065895481E0,-5.199189186E-1,2.769526243E-1,1.449731827E0,1.564845298E0
3.085274143E0,-5.063978434E-1,1.567072868E-1,8.937759399E-1,1.039149354E0
3.104622288E0,-3.988176584E-1,-4.535555840E-2,4.269313812E-1,5.859889552E-1
3.124000950E0,-1.870269775E-1,-2.024717331E-1,-4.823207855E-2,2.798217762E-1
3.143379612E0,-9.418570995E-2,-3.200552464E-1,-6.575126648E-1,7.373121544E-1
3.162727757E0,-4.098036885E-1,-1.531112194E-1,-1.523642540E0,1.585203046E0
3.182106419E0,-8.886176348E-1,-1.173849106E-1,-2.382729530E0,2.545745575E0
3.201485081E0,-6.658724546E-1,-5.515215397E-1,-3.147032738E0,3.263644770E0
3.220863743E0,2.990896702E-1,-5.497989655E-1,-3.935912132E0,3.985365460E0
3.240211888E0,9.418603182E-1,7.669130564E-1,-5.041327477E0,5.185579931E0
3.259590550E0,9.388114214E-1,1.949220657E0,-5.116970062E0,5.555556738E0
3.278969212E0,8.191001415E-1,2.052833557E0,-4.253729820E0,4.793669580E0
3.298347874E0,7.690119743E-1,1.364764094E0,-3.031615257E0,3.412426046E0
3.317726536E0,7.425320148E-1,1.258959055E0,-1.657625198E0,2.209989365E0
3.337105198E0,4.245901108E-1,1.285451174E0,-5.682249069E-1,1.468176089E0
3.356453343E0,8.005774021E-2,1.265281916E0,2.435426712E-1,1.290992099E0
3.375832005E0,-2.492398024E-1,1.270782948E0,1.011281013E0,1.643076099E0
3.395210667E0,-3.951439857E-1,1.365576267E0,1.399060249E0,1.994569350E0
3.414558811E0,-6.687630415E-1,1.282054901E0,1.367732048E0,1.990376781E0
3.433937474E0,-7.302817106E-1,1.002627134E0,1.654393196E0,2.067749839E0
3.453316136E0,-6.139365435E-1,7.051662207E-1,2.293108940E0,2.476393767E0
3.472664280E0,-2.542601824E-1,4.650865793E-1,2.757233620E0,2.807719893E0
3.492042942E0,1.115425825E-1,1.777241230E-1,2.878969193E0,2.886605484E0
3.511421604E0,1.171288490E-1,9.555041790E-2,2.604021072E0,2.608404646E0
3.530800266E0,-1.563819647E-1,1.384547949E-1,2.234818459E0,2.244557549E0
3.550148411E0,-2.779527307E-1,1.387233734E-1,2.025821686E0,2.049501256E0
3.569527073E0,-2.584147453E-1,-6.619882584E-2,1.882802963E0,1.901606548E0
3.588936253E0,-1.863764524E-1,-3.633726835E-1,1.574318886E0,1.626424251E0
3.608284397E0,-2.662218809E-1,-6.466487646E-1,1.118111610E0,1.318788189E0
3.627663059E0,-2.237424850E-1,-7.013167143E-1,3.138628006E-1,8.002597647E-1
3.647041722E0,-9.734213352E-3,-4.361623526E-1,-1.067152977E0,1.152886737E0
3.666389866E0,1.477575302E-1,-3.387955427E-1,-2.526825905E0,2.553715697E0
3.685768528E0,4.381137490E-1,-4.083993435E-1,-3.444162369E0,3.495852987E0
3.705147190E0,3.777081370E-1,-9.165017605E-1,-3.870504379E0,3.995427770E0
3.724495335E0,-5.499064922E-3,-1.535758138E0,-4.040547371E0,4.322569416E0
3.743873997E0,-3.887713552E-1,-1.067019701E0,-4.014598846E0,4.172131123E0
3.763252659E0,-1.182469368E0,7.856487036E-1,-4.068861961E0,4.309421696E0
3.782631321E0,-1.588270068E0,2.002943516E0,-3.895466805E0,4.659296745E0
3.801979466E0,-9.870535135E-1,1.837472677E0,-3.198358536E0,3.818386806E0
3.821358128E0,-4.264078736E-1,1.539154530E0,-1.732993126E0,2.356710741E0
3.840767308E0,-5.993303061E-1,1.670105457E0,-7.061319351E-1,1.909730705E0
3.860084934E0,-9.241520762E-1,1.752949476E0,-3.886146545E-1,2.019383638E0
3.879494114E0,-7.554103136E-1,1.746536970E0,-2.525720596E-1,1.919590783E0
3.898872776E0,-3.067318201E-1,1.652395248E0,9.003829956E-2,1.683033381E0
3.918220921E0,5.958938599E-2,1.365232468E0,1.039632797E0,1.717045992E0
3.937599583E0,1.174923182E-1,1.053387403E0,2.186436653E0,2.429801371E0
3.956978245E0,-2.251925468E-1,7.814781666E-1,2.832885742E0,2.947314275E0
3.976326390E0,-5.983144641E-1,4.885790348E-1,3.215398788E0,3.306883584E0
3.995705052E0,-9.356676936E-1,3.936393261E-1,3.421471596E0,3.568878512E0
4.015083714E0,-9.776048660E-1,3.752481937E-1,3.258978844E0,3.423078378E0
4.034462376E0,-7.832611203E-1,4.715652466E-1,2.856425285E0,2.999172748E0
4.053810520E0,-5.898060203E-1,6.383624077E-1,2.376499176E0,2.530439890E0
4.073189183E0,-3.763357997E-1,6.310353279E-1,1.891016006E0,2.028737478E0
4.092567845E0,-1.520214081E-1,5.454995632E-1,1.407436371E0,1.517088468E0
4.111915989E0,-2.292389274E-1,3.336453438E-1,1.046010971E0,1.121609849E0
4.131294651E0,-2.517140508E-1,-1.408956051E-1,8.455953598E-1,8.934444848E-1
4.150673313E0,-1.273249984E-1,-5.219616890E-1,1.288547516E-1,5.525026760E-1
4.170051975E0,-5.094528198E-3,-5.976350307E-1,-8.633174896E-1,1.050005082E0
4.189430638E0,1.034046412E-1,-4.555399418E-1,-1.712774277E0,1.775332330E0
4.208809300E0,-1.092271209E-1,-5.612237453E-1,-2.518156052E0,2.582249515E0
4.228157444E0,8.630275726E-2,-5.192260742E-1,-3.683357239E0,3.720774708E0
4.247536106E0,2.917701006E-1,5.936093330E-1,-5.530641556E0,5.570053667E0
4.266914768E0,4.833263755E-1,1.753905177E0,-6.525670052E0,6.774522668E0
4.286293431E0,9.473994970E-1,2.203365803E0,-5.899020195E0,6.367953041E0
4.305641575E0,1.362992048E0,1.498836994E0,-4.001889229E0,4.485462859E0
4.325020237E0,1.444881201E0,1.063757181E0,-2.083687782E0,2.749730132E0
4.344398899E0,1.441410065E0,9.306488037E-1,-7.894821167E-1,1.888664127E0
4.363747044E0,1.320140839E0,1.017616987E0,-3.563690186E-2,1.667209092E0
4.383125706E0,1.005500436E0,1.331509829E0,4.137163162E-1,1.719043554E0
4.402504368E0,6.074377298E-1,1.558513761E0,8.977804184E-1,1.898408654E0
4.421852513E0,1.034196615E-1,1.507085681E0,1.360877991E0,2.033222020E0
4.441261692E0,-3.811531067E-1,1.152721047E0,1.879793167E0,2.237781458E0
4.460640354E0,-6.610627770E-1,7.930686474E-1,2.288064003E0,2.510218866E0
4.479988499E0,-5.385691524E-1,6.849188805E-1,2.512026787E0,2.658843580E0
4.499367161E0,-3.528155088E-1,7.173434496E-1,2.334998131E0,2.468051190E0
4.518745823E0,-3.800400496E-1,6.489831209E-1,2.320863724E0,2.439675789E0
4.538124485E0,-4.615875483E-1,3.750694990E-1,2.383492470E0,2.456578219E0
4.557472630E0,-5.659363270E-1,-3.930163383E-2,2.336109161E0,2.404003860E0
4.576851292E0,-5.376284719E-1,-3.482030630E-1,2.181973457E0,2.274048794E0
4.596229954E0,-4.685721993E-1,-6.002582312E-1,1.931825638E0,2.076492269E0
4.615578099E0,-4.339195490E-1,-8.603383303E-1,1.445073128E0,1.736866305E0
4.634956761E0,-2.881187201E-1,-9.627360106E-1,7.196817398E-1,1.236048069E0
4.654335423E0,-2.317591310E-1,-6.893185377E-1,-4.397726059E-1,8.498660401E-1
4.673683567E0,-2.762047648E-1,-2.806000710E-1,-1.560613632E0,1.609515573E0
4.693062229E0,1.077058315E-1,-1.551383734E-1,-2.114388466E0,2.122806408E0
4.712440891E0,7.882549763E-1,-6.446515322E-1,-2.100736618E0,2.334526899E0
4.731819554E0,1.013796329E0,-1.308906317E0,-2.433639526E0,2.943402808E0
4.751198216E0,4.951411486E-2,-1.118780732E0,-3.557914734E0,3.729997216E0
4.770576878E0,-1.495900393E0,7.374871969E-1,-4.962390900E0,5.235162728E0
4.789925022E0,-2.498382807E0,2.518679619E0,-5.610074997E0,6.637665640E0
4.809303684E0,-1.890092850E0,2.580844402E0,-5.314303398E0,6.202824310E0
4.828682347E0,-6.317734122E-1,1.754948020E0,-3.938467026E0,4.357809394E0
4.848061009E0,-5.157294869E-2,1.644052505E0,-2.145370483E0,2.703365111E0
4.867409153E0,-1.073765159E-1,1.847352982E0,-9.304475784E-1,2.071225591E0
4.886787815E0,1.316987872E-1,1.527861118E0,5.936050415E-2,1.534675157E0
4.906166477E0,5.098368526E-1,1.119535208E0,1.134237289E0,1.673256384E0
4.925514622E0,5.631372333E-1,8.814737797E-1,2.399144173E0,2.617252821E0
4.944893284E0,3.689944148E-1,5.552015305E-1,3.499110222E0,3.562046878E0
4.964271946E0,-6.268918514E-3,1.698098183E-1,4.202834129E0,4.206267870E0
4.983620091E0,-6.595174670E-1,1.123220921E-1,4.160046577E0,4.213498198E0
5.002998753E0,-1.247293472E0,1.306902170E-1,3.764032364E0,3.967462738E0
5.022407933E0,-1.646440744E0,1.290161610E-1,3.323200226E0,3.710939508E0
5.041756077E0,-1.505485654E0,-2.122652531E-2,2.672403336E0,3.067356713E0
5.061134739E0,-1.093599796E0,-7.958459854E-2,1.769794464E0,2.081938200E0
5.080513401E0,-7.552999258E-1,2.319728136E-1,5.585947037E-1,9.676349555E-1
5.099892063E0,-6.202654243E-1,4.595081806E-1,-2.866411209E-1,8.234319017E-1
5.119240208E0,-3.870166540E-1,1.945967674E-1,-3.016281128E-1,5.278534937E-1
5.138618870E0,1.104080081E-1,-1.019461155E-1,1.371459961E-1,2.034501486E-1
5.157997532E0,6.205104589E-1,-2.196630239E-1,-2.156543732E-1,6.926701108E-1
5.177345677E0,9.719029069E-1,-1.422958374E-1,-9.266786575E-1,1.350398719E0
5.196724339E0,8.103599548E-1,-3.439919949E-1,-1.569415092E0,1.799465888E0
5.216103001E0,8.099079132E-3,-4.758892059E-1,-2.146826744E0,2.198954570E0
5.235451145E0,-4.957499504E-1,-3.128914833E-1,-2.931828499E0,2.989864117E0
5.254829808E0,1.516869664E-1,6.141155958E-1,-4.015974998E0,4.065489157E0
5.274208470E0,9.214116931E-1,1.673181891E0,-4.731108665E0,5.102149190E0
5.293587132E0,1.237312078E0,2.127272606E0,-4.647713661E0,5.259037193E0
5.312965794E0,9.430056214E-1,1.773128271E0,-3.746554375E0,4.250872046E0
5.332344456E0,6.389458776E-1,8.940975666E-1,-2.176587105E0,2.438276793E0
5.351723118E0,6.875525117E-1,5.459009409E-1,-1.202016830E0,1.488482702E0
5.371071263E0,1.005894542E0,6.725146770E-1,-7.211875916E-1,1.408620375E0
5.390449925E0,1.206839800E0,8.652975559E-1,-4.623794556E-1,1.555312484E0
5.409828587E0,6.682421565E-1,1.162824273E0,1.119232178E-1,1.345821190E0
5.429176731E0,-3.345619440E-1,1.185569763E0,8.333520889E-1,1.487273701E0
5.448555393E0,-1.130224586E0,7.578850985E-1,1.641912460E0,2.132527600E0
5.467934056E0,-1.432237387E0,3.981838226E-1,2.500751495E0,2.909228821E0
5.487282200E0,-1.173166513E0,2.510378361E-1,3.027968407E0,3.256982090E0
5.506660862E0,-3.785784841E-1,2.444716692E-1,3.028882027E0,3.062223767E0
5.526039524E0,1.619195342E-1,3.919869661E-1,2.689395905E0,2.722631457E0
5.545387669E0,3.854865432E-1,4.855165482E-1,2.220281601E0,2.305206407E0
5.564766331E0,2.231143713E-1,3.352954388E-1,1.749696732E0,1.795450280E0
5.584144993E0,1.146249175E-1,-1.425189972E-1,1.368587494E0,1.380754238E0
5.603523655E0,2.448736429E-1,-5.796191692E-1,9.820566177E-1,1.166343295E0
5.622902317E0,3.861497045E-1,-9.069616795E-1,5.603628159E-1,1.133886047E0
5.642280979E0,5.089893341E-1,-9.329969883E-1,-5.291080475E-2,1.064120799E0
5.661659641E0,5.021402836E-1,-6.819317341E-1,-9.234828949E-1,1.252994977E0
5.681007786E0,3.129555583E-1,-2.332663536E-1,-1.944444656E0,1.983234579E0
5.700386448E0,1.343196630E-1,-2.629070282E-1,-2.537606239E0,2.554722549E0
5.719765110E0,3.256400824E-1,-4.953573942E-1,-2.737400055E0,2.800853347E0
5.739113255E0,3.430262804E-1,-8.165386915E-1,-2.943137169E0,3.073509209E0
5.758491917E0,-2.326084375E-1,-6.813168526E-2,-3.104888916E0,3.114335209E0
5.777870579E0,-1.021795988E0,1.390633106E0,-3.447113037E0,3.854933951E0
5.797218724E0,-1.453617573E0,2.379263401E0,-3.572594643E0,4.531813198E0
5.816597386E0,-1.195034623E0,2.195710421E0,-2.942008018E0,3.860655797E0
5.835976048E0,-6.019244194E-1,1.318688154E0,-1.733690262E0,2.259852513E0
5.855324192E0,-5.210909843E-1,7.706899643E-1,-8.112478256E-1,1.234350789E0
5.874733372E0,-9.724478722E-1,1.008929253E0,-2.887182236E-1,1.430717063E0
5.894112034E0,-1.430277228E0,1.748940468E0,-7.158946991E-2,2.260444815E0
5.913490696E0,-1.400981188E0,2.328569412E0,1.570425034E-1,2.722066521E0
5.932838841E0,-7.429411411E-1,2.204204321E0,9.736871719E-1,2.521615541E0
5.952217503E0,-7.281023264E-2,1.664157987E0,2.016194344E0,2.615294011E0
5.971626683E0,-8.039361238E-2,1.218956232E0,2.876405716E0,3.125064363E0
5.990944309E0,-3.892005682E-1,9.739646912E-1,3.326781273E0,3.488202680E0
6.010322972E0,-5.930232406E-1,7.508423328E-1,3.276766777E0,3.413596532E0
6.029701634E0,-6.505423188E-1,4.570003748E-1,3.312538147E0,3.406605881E0
6.049049778E0,-5.909603238E-1,1.387574673E-1,3.424633980E0,3.478017486E0
6.068428440E0,-4.672260284E-1,-1.281096935E-1,3.372665405E0,3.407283990E0
6.087807102E0,-4.309718609E-1,-2.850705385E-1,2.871523857E0,2.917644807E0
6.107155247E0,-4.092472792E-1,-2.856160402E-1,1.941111565E0,2.004238999E0
6.126533909E0,-4.846878648E-1,-2.332293987E-1,8.277244568E-1,9.871403421E-1
6.145912571E0,-4.933971167E-1,-3.356404305E-1,-1.616954803E-2,5.969561689E-1
6.165321751E0,-4.101611972E-1,-5.644778013E-1,-8.794984818E-1,1.122668685E0
6.184669895E0,-2.375853658E-1,-7.731763124E-1,-1.954435349E0,2.115198796E0
6.204048558E0,-4.977497458E-1,-8.978821039E-1,-2.587779045E0,2.783980508E0
6.223427220E0,-2.803554535E-1,-1.292343020E0,-2.896988869E0,3.184539868E0
6.242775364E0,-5.590240359E-1,-1.112289429E0,-3.239438057E0,3.470396890E0
6.262154026E0,-3.378092051E-1,-7.406728268E-1,-4.112013817E0,4.191821671E0
6.281532688E0,-1.575937271E-1,3.694063425E-1,-5.218314171E0,5.233746231E0
6.300880833E0,-2.457559109E-2,1.562098145E0,-5.514438629E0,5.731473455E0
6.320259495E0,4.376640916E-1,1.864335895E0,-4.380266190E0,4.780588884E0
6.339638157E0,7.467308044E-1,1.465342045E0,-2.472117424E0,2.969208440E0
6.358978535E0,9.544848204E-1,8.197174072E-1,-7.609825134E-1,1.470398683E0
6.378357197E0,1.087475300E0,7.604972124E-1,5.219364166E-2,1.328037166E0
6.397735859E0,8.896183968E-1,9.754726887E-1,2.305469513E-1,1.340193924E0
6.417084003E0,5.804851055E-1,1.329998136E0,-1.046667099E-1,1.454927187E0
6.436462666E0,2.129521370E-1,1.700032949E0,1.838102341E-1,1.723150267E0
6.455871845E0,-3.863450289E-1,1.650536895E0,1.037878990E0,1.987643660E0
6.475250507E0,-9.605762959E-1,1.188336372E0,1.783667564E0,2.348684767E0
6.494598652E0,-1.181256056E0,7.690638304E-1,2.308382034E0,2.704709349E0
6.513977314E0,-1.116910934E0,5.786699057E-1,2.750247955E0,3.024270608E0
6.533355976E0,-6.151939631E-1,3.795307875E-1,3.074569702E0,3.158399291E0
6.552704121E0,-1.663525105E-1,1.249101162E-1,2.918159485E0,2.925564984E0
6.572082783E0,-6.530070305E-2,-1.926338673E-2,2.484116554E0,2.485049359E0
6.591461445E0,-1.704002619E-1,-2.288794518E-2,2.028229713E0,2.035503839E0
6.610809589E0,-8.367776871E-2,4.017353058E-2,1.743745804E0,1.746214566E0
6.630188251E0,1.144278049E-2,-6.650233269E-2,1.566665649E0,1.568118221E0
6.649566914E0,5.392491817E-3,-1.850358248E-1,1.112396240E0,1.127693545E0
6.668915058E0,-1.113814712E-1,-4.216097593E-1,4.023294449E-1,5.933208268E-1
6.688293720E0,-1.928697824E-1,-4.292278290E-1,-6.783084869E-1,8.255529575E-1
6.707672382E0,-4.458890557E-1,-4.402333498E-1,-2.031818390E0,2.126242795E0
6.727051044E0,-5.482347608E-1,-4.690989256E-1,-3.271272659E0,3.349901486E0
6.746429707E0,-6.905320287E-2,-8.724018335E-1,-4.057949066E0,4.151241251E0
6.765808369E0,5.533643961E-1,-1.335581541E0,-4.707605362E0,4.924585104E0
6.785187031E0,4.573627412E-1,-4.068753719E-1,-5.210017204E0,5.245856223E0
6.804535175E0,-2.682869732E-1,1.469831824E0,-5.333071709E0,5.538414696E0
6.823913837E0,-7.118558884E-1,2.391141415E0,-4.840544701E0,5.445655982E0
6.843292499E0,-8.906516433E-1,2.252340794E0,-3.505129814E0,4.260543911E0
6.862640644E0,-1.079679966E0,1.592480779E0,-1.266441345E0,2.303383932E0
6.882019306E0,-1.440638781E0,1.289762974E0,3.465251923E-1,1.964435882E0
6.901397968E0,-1.484296203E0,1.251348734E0,1.352421761E0,2.366020602E0
6.920746113E0,-1.355685949E0,1.371301770E0,1.438296318E0,2.405628657E0
6.940124775E0,-1.068456769E0,1.527632236E0,1.248575211E0,2.243702336E0
6.959503437E0,-6.816794276E-1,1.725474000E0,1.254659653E0,2.239669219E0
6.978882099E0,-2.157420516E-1,1.587077260E0,1.776788712E0,2.392140671E0
6.998230244E0,-6.815332174E-2,9.392445087E-1,2.779668808E0,2.934856692E0
7.017639423E0,-3.238931894E-1,5.304809809E-1,3.579084396E0,3.632652197E0
7.037018085E0,-7.269393802E-1,3.923883438E-1,3.877573967E0,3.964591952E0
7.056366230E0,-9.221430421E-1,3.312790394E-1,3.846011162E0,3.968865764E0
7.075744892E0,-8.407899141E-1,3.492288589E-1,3.408792496E0,3.528279291E0
7.095123554E0,-6.403799653E-1,3.841924667E-1,3.001957893E0,3.093451397E0
7.114471699E0,-2.870042920E-1,2.863988876E-1,2.478612900E0,2.511556827E0
7.133850361E0,-9.472769499E-2,6.527948380E-2,1.616648674E0,1.620736771E0
7.153259541E0,-3.708094358E-2,8.815205097E-2,7.262268066E-1,7.324965223E-1
7.172577167E0,-1.295029521E-1,-2.276244164E-1,-1.285867691E-1,2.917506585E-1
7.191955830E0,-1.535975933E-1,-6.980925798E-1,-7.234439850E-1,1.017003771E0
7.211334492E0,-1.889435053E-1,-9.788119793E-1,-1.322539330E0,1.656165094E0
7.230682636E0,-8.861488104E-2,-1.276220083E0,-1.795407295E0,2.204558381E0
7.250061298E0,2.937974334E-1,-9.870854616E-1,-3.031750679E0,3.201900501E0
7.269439960E0,2.242763638E-1,-9.408313036E-1,-4.519267082E0,4.621605607E0
7.288818623E0,4.922920465E-2,-1.133095384E0,-5.317446709E0,5.437055100E0
7.308197285E0,1.702657938E-1,-1.228464961E0,-5.152318954E0,5.299481787E0
7.327575947E0,3.513804078E-1,-4.398949146E-1,-4.658243179E0,4.692142927E0
7.346954609E0,8.385635614E-1,1.006034136E0,-3.602185249E0,3.832888219E0
7.366302753E0,9.663563967E-1,1.507925153E0,-1.975637436E0,2.666613251E0
7.385681416E0,8.034893274E-1,1.273034334E0,-9.019842148E-1,1.754932204E0
7.405060078E0,1.050505161E0,1.208282471E0,-4.300565720E-1,1.657846880E0
7.424408222E0,1.030898929E0,1.414016962E0,-2.215557098E-1,1.763883075E0
7.443786884E0,5.333666801E-1,1.694947958E0,-9.492588043E-2,1.779421119E0
7.463165546E0,3.598669767E-1,1.751406193E0,4.609470367E-1,1.846456082E0
7.482513691E0,-5.984258652E-2,1.470851421E0,1.455769539E0,2.070326059E0
7.501892353E0,-5.093135834E-1,1.168324471E0,2.525888443E0,2.829221593E0
7.521271015E0,-7.371569872E-1,1.020229340E0,3.234803200E0,3.471054605E0
7.540649677E0,-7.102696896E-1,9.327628613E-1,3.643309593E0,3.827301187E0
7.559997822E0,-7.129911184E-1,6.135582924E-1,3.741184235E0,3.857624864E0
7.579376484E0,-3.794003129E-1,2.193000317E-1,3.737931252E0,3.763531207E0
7.598785664E0,9.512138367E-2,1.255905628E-1,3.141728401E0,3.145676146E0
7.618133808E0,5.361753702E-1,2.351899147E-1,1.879780769E0,1.968850950E0
7.637512470E0,7.423853874E-1,5.676929951E-1,6.307325363E-1,1.127490547E0
7.656891132E0,5.812201500E-1,3.438011408E-1,-1.125144958E-2,6.753833595E-1
7.676239277E0,1.209129691E-1,-3.466563225E-1,-2.216510773E-1,4.288586621E-1
7.695617939E0,-2.049124837E-1,-9.792586565E-1,-3.024005890E-1,1.045171162E0
7.714996601E0,-4.165322781E-1,-1.206835747E0,-7.317800522E-1,1.471548063E0
7.734344746E0,-5.393357277E-1,-1.066060543E0,-1.480655670E0,1.902553369E0
7.753723408E0,-6.906723976E-1,-7.944228649E-1,-2.681580544E0,2.880800281E0
7.773102070E0,-3.603309393E-2,-8.004417419E-1,-3.934711456E0,4.015465055E0
7.792450214E0,5.366704464E-1,-9.819223881E-1,-4.813320160E0,4.941683691E0
7.811828876E0,4.422545433E-1,2.195405960E-1,-5.170435905E0,5.193957509E0
7.831207539E0,-3.454465568E-1,1.630201578E0,-5.269591331E0,5.526796840E0
7.850586201E0,-9.144073725E-1,1.893690586E0,-4.677617073E0,5.128577421E0
7.869964863E0,-8.980385661E-1,1.442640662E0,-3.431394577E0,3.829119232E0
7.889343525E0,-5.907889605E-1,8.826558590E-1,-1.517945290E0,1.852638892E0
7.908722187E0,-5.585991144E-1,1.086044788E0,8.871555328E-2,1.224498551E0
7.928070332E0,-9.277185202E-1,1.361073017E0,7.132158279E-1,1.794953545E0
7.947448994E0,-1.139878631E0,1.503378868E0,3.995800018E-1,1.928506026E0
7.966827656E0,-1.013165712E0,1.722404480E0,6.068592072E-1,2.088410891E0
7.986175800E0,-4.648718834E-1,1.769304276E0,1.451336861E0,2.335149282E0
8.005554462E0,6.458187103E-2,1.429740906E0,2.781312943E0,3.127943663E0
8.024933124E0,2.762857080E-1,1.022704601E0,3.986759186E0,4.125106944E0
8.044281269E0,2.578510642E-1,5.977838039E-1,4.539945602E0,4.586386238E0
8.063659931E0,-2.017104626E-2,3.888597488E-1,4.709197998E0,4.725268729E0
8.083038593E0,-3.242682815E-1,3.654408455E-1,4.521707535E0,4.548025501E0
8.102417255E0,-4.194366932E-1,2.169511318E-1,3.927588463E0,3.955874880E0
8.121765400E0,-3.078160286E-1,4.705238342E-2,2.721515656E0,2.739272184E0
8.141144062E0,-1.786401272E-1,1.474933624E-1,1.345668793E0,1.365463689E0
8.160522724E0,-1.782749891E-1,1.935930252E-1,-7.439899445E-2,2.734875528E-1
8.179901386E0,-5.217301846E-2,-1.411451101E-1,-8.909635544E-1,9.035817734E-1
8.199280048E0,3.280154467E-1,-6.032844782E-1,-1.320189476E0,1.488101659E0
8.218658710E0,6.021965742E-1,-9.984452724E-1,-1.718473434E0,2.076700417E0
8.238006855E0,4.575264454E-1,-1.285148144E0,-1.836140633E0,2.287432758E0
8.257385517E0,2.140748501E-2,-1.086141586E0,-2.525241852E0,2.749001316E0
8.276764179E0,-4.450062513E-1,-9.164420366E-1,-3.636676788E0,3.776680372E0
8.296112324E0,-2.390385270E-1,-9.418127537E-1,-4.793660164E0,4.891147968E0
8.315490986E0,3.520814776E-1,-1.940579414E-1,-6.096863747E0,6.110103714E0
8.334900166E0,8.376150131E-1,9.700497389E-1,-5.684833527E0,5.827514705E0
8.354248310E0,1.044250250E0,1.906371713E0,-3.853430748E0,4.424210689E0
8.373596455E0,8.721258640E-1,1.708471656E0,-2.051397324E0,2.808506703E0
8.392975117E0,4.333597422E-1,1.332715750E0,-9.424829483E-1,1.688847549E0
8.412353779E0,6.340205669E-2,1.387694359E0,-1.969594955E-1,1.403035458E0
8.431701923E0,9.232199192E-2,1.206330299E0,5.571069717E-1,1.331962582E0
8.451111103E0,3.135815859E-1,1.136341572E0,9.076833725E-1,1.487781800E0
8.470489765E0,9.143340588E-2,1.206573009E0,9.734220505E-1,1.552974238E0
8.489837910E0,-5.123705864E-1,1.410606384E0,1.316155434E0,1.996146065E0
8.509216572E0,-8.181965351E-1,9.795541763E-1,1.919836044E0,2.305372506E0
8.528595234E0,-8.171747327E-1,3.282041550E-1,2.733570099E0,2.871915388E0
8.547943378E0,-8.470075130E-1,6.438946724E-2,3.190811157E0,3.301945422E0
8.567322041E0,-6.034052968E-1,1.771285534E-1,3.073505402E0,3.137181527E0
8.586700703E0,-3.566848636E-1,3.570251465E-1,2.648056984E0,2.695718241E0
8.606079365E0,-8.671993017E-2,3.787257671E-1,2.218820572E0,2.252580361E0
8.625427509E0,8.740764856E-2,2.435860634E-1,1.797244072E0,1.815780967E0
8.644806171E0,1.742371321E-1,-2.537457943E-1,1.702727318E0,1.730325352E0
8.664184833E0,1.334453821E-1,-5.956897736E-1,1.621712685E0,1.732802934E0
8.683532978E0,5.030643940E-2,-8.344333172E-1,1.321413994E0,1.563631875E0
8.702911640E0,2.079778910E-2,-9.464790821E-1,7.481412888E-1,1.206636063E0
8.722290302E0,1.689044833E-1,-7.680301666E-1,-3.400554657E-1,8.567594651E-1
8.741668964E0,1.026726365E-1,-2.970449924E-1,-1.913364410E0,1.939005097E0
8.761047626E0,2.873941958E-1,-7.160997391E-2,-3.498904228E0,3.511417692E0
8.780426289E0,5.763970017E-1,-5.918047428E-1,-3.914568901E0,4.000789427E0
8.799774433E0,4.192299843E-1,-1.545041800E0,-3.650204659E0,3.985837677E0
8.819153095E0,-1.247983575E-1,-1.535748720E0,-3.305253029E0,3.646751479E0
8.838531757E0,-1.302974939E0,6.835460663E-2,-3.614722252E0,3.842997919E0
8.857879902E0,-1.823274612E0,1.570065975E0,-4.112419128E0,4.764601617E0
8.877258564E0,-1.526305199E0,2.161194801E0,-3.899523735E0,4.712393860E0
8.896637226E0,-4.455699623E-1,1.669841766E0,-2.487592697E0,3.029029802E0
8.916015888E0,6.974667311E-2,1.593085527E0,-1.198053360E0,1.994521985E0
8.935364033E0,-3.482815623E-1,1.930826187E0,-9.135923386E-1,2.164264488E0
8.954742695E0,-5.965072513E-1,1.977292061E0,-5.472764969E-1,2.136589890E0
8.974121357E0,-4.044208825E-1,1.958834171E0,1.804227829E-1,2.008267896E0
8.993469501E0,6.226402521E-2,1.501471519E0,1.567148209E0,2.171231687E0
9.012848164E0,3.969812393E-1,1.042895555E0,2.889930725E0,3.097890385E0
9.032257343E0,3.869298697E-1,5.841214657E-1,3.821766853E0,3.885461941E0
9.051605488E0,1.894040108E-1,8.896088600E-2,4.125832558E0,4.131135705E0
9.070984150E0,-1.782202125E-1,-3.653788567E-2,3.799551010E0,3.803903960E0
9.090362812E0,-3.367727995E-1,2.051475048E-1,3.126565933E0,3.151335582E0
9.109710957E0,-2.407229543E-1,1.810302734E-1,2.673573494E0,2.690485965E0
9.129089619E0,-2.378334403E-1,2.169227600E-1,2.222297668E0,2.245490404E0
9.148468281E0,-2.377142906E-1,4.966616631E-2,1.827279091E0,1.843345786E0
9.167846943E0,-3.233944178E-1,1.155517101E-1,1.374305725E0,1.416563579E0
9.187195087E0,-4.134171605E-1,1.157736778E-2,1.171850204E0,1.242690905E0
9.206573749E0,-6.460928917E-2,-3.669273853E-1,8.047761917E-1,8.868341362E-1
9.225952412E0,2.580426335E-1,-7.124483585E-1,1.022195816E-1,7.646028428E-1
9.245300556E0,6.800032854E-1,-6.634674072E-1,-9.747180939E-1,1.361127779E0
9.264679218E0,8.569694757E-1,-1.004445791E0,-1.820739746E0,2.249088983E0
9.284057880E0,3.850468397E-1,-1.013111115E0,-2.561145782E0,2.781029111E0
9.303436542E0,-3.395639658E-1,-1.155689001E0,-3.330723763E0,3.541841546E0
9.322815205E0,-2.987453341E-1,-1.477853537E0,-4.054196358E0,4.325483552E0
9.342193867E0,5.061444640E-1,-1.122668505E0,-5.095506668E0,5.242208980E0
9.361542011E0,1.124023914E0,5.143413544E-1,-5.210577965E0,5.355193695E0
9.380920673E0,1.075034142E0,1.894560218E0,-4.104883194E0,4.647055289E0
9.400299335E0,6.823846102E-1,2.020646095E0,-2.919297218E0,3.615377663E0
9.419647480E0,3.269196153E-1,1.284199476E0,-1.985008240E0,2.386692783E0
9.439026142E0,3.783223033E-1,1.093475938E0,-7.968349457E-1,1.404906873E0
9.458404804E0,2.150635123E-1,1.154724002E0,4.526138306E-3,1.174589426E0
9.477783466E0,-2.694755793E-2,1.141606212E0,5.751543045E-1,1.278590391E0
9.497131611E0,-4.586763382E-1,1.143196225E0,1.232384682E0,1.742427501E0
9.516540791E0,-8.490145802E-1,1.250249624E0,1.936657906E0,2.456541008E0
9.535888935E0,-9.908638000E-1,1.054435134E0,2.663671494E0,3.031301758E0
9.555237080E0,-9.428629875E-1,7.004798651E-1,3.189245224E0,3.398668527E0
9.574615742E0,-6.893376708E-1,3.391317129E-1,3.515810013E0,3.598766009E0
9.594024921E0,-4.044273496E-1,-3.843295574E-2,3.487700462E0,3.511280833E0
9.613373066E0,-2.851002216E-1,-1.656886339E-1,2.802276611E0,2.821611076E0
9.632751728E0,-3.196395040E-1,1.350796223E-2,1.827337265E0,1.855131628E0
9.652130390E0,-8.969986439E-2,1.508271694E-2,1.135465622E0,1.139103039E0
9.671478535E0,3.105448484E-1,-1.167637110E-1,6.212921143E-1,7.043264572E-1
9.690857197E0,4.588139653E-1,-3.415073156E-1,5.020198822E-1,7.610265853E-1
9.710235859E0,3.310105205E-1,-8.312625885E-1,5.210523605E-1,1.035403795E0
9.729614521E0,1.473128796E-3,-1.317580104E0,2.821273804E-1,1.347447720E0
9.748962666E0,-2.522568703E-1,-1.346177697E0,-9.233789444E-1,1.651804043E0
9.768341328E0,-3.216657639E-1,-6.793904305E-1,-2.219034195E0,2.342894146E0
9.787719990E0,-3.524163365E-1,-3.605189323E-1,-2.782938004E0,2.828235334E0
9.807068134E0,-8.395373821E-2,-8.911601305E-1,-2.524143219E0,2.678154887E0
9.826446796E0,2.309508920E-1,-1.808156967E0,-2.473649979E0,3.072737241E0
9.845825458E0,4.412174225E-2,-1.368464231E0,-2.605570793E0,2.943406231E0
9.865173603E0,-9.219305515E-1,6.358709335E-1,-3.490980148E0,3.666228332E0
9.884582783E0,-1.661612988E0,2.255274773E0,-4.076574326E0,4.946279435E0
9.903961445E0,-1.471710205E0,2.481528759E0,-4.024035454E0,4.951441936E0
9.923309589E0,-7.502901554E-1,1.788922071E0,-2.640429497E0,3.276437917E0
9.942688251E0,-4.975461066E-1,1.679748297E0,-1.279805183E0,2.169563960E0
9.962066914E0,-7.174824476E-1,1.701594114E0,-4.027061462E-1,1.890072970E0
9.981415058E0,-9.260152578E-1,1.581519127E0,-7.798194885E-2,1.834335899E0
1.000079372E1,-7.069819570E-1,1.411146402E0,3.691577911E-1,1.620936498E0
1.002017238E1,-3.395035267E-1,1.272502184E0,1.190474510E0,1.775318003E0
1.003955104E1,-8.999878168E-2,1.206268191E0,2.134263992E0,2.453215343E0
1.005889919E1,-3.943037987E-2,7.533538342E-1,3.030570984E0,3.123052552E0
1.007827785E1,-3.767943382E-2,2.478662729E-1,3.660756111E0,3.669331374E0
1.009765651E1,-9.761345387E-2,-1.754474640E-2,3.776075363E0,3.777377576E0
1.011700466E1,-2.402507663E-1,-2.981984615E-2,3.031284332E0,3.040936428E0
1.013638332E1,-2.275605798E-1,1.820895672E-1,2.027726173E0,2.048563854E0
1.015576198E1,-4.612350464E-2,2.283729315E-1,1.435100555E0,1.453889672E0
1.017514064E1,-1.958233118E-2,9.500980377E-2,1.186692238E0,1.190650578E0
1.019451931E1,-1.079845428E-1,-8.798670769E-2,1.110523224E0,1.119224800E0
1.021389797E1,-3.428629041E-1,-3.854782581E-1,9.330587387E-1,1.066183412E0
1.023324611E1,-4.219143987E-1,-7.271009684E-1,3.765735626E-1,9.211380060E-1
1.025262478E1,-1.363911033E-1,-8.553900719E-1,-2.958288193E-1,9.153192877E-1
1.027200344E1,2.646263838E-1,-6.723101139E-1,-8.561897278E-1,1.120307486E0
1.029138210E1,2.891044617E-1,-6.851301193E-1,-1.391518593E0,1.577754311E0
1.031073024E1,-2.623721361E-1,-4.787905216E-1,-2.456105232E0,2.516054930E0
1.033010891E1,-5.449911952E-1,-8.382389545E-1,-3.428406715E0,3.571222837E0
1.034948757E1,-2.352988720E-2,-1.330604315E0,-4.343741417E0,4.543033237E0
1.036883571E1,7.648304105E-1,-4.740718603E-1,-4.986127853E0,5.066673530E0
1.038821437E1,1.196207047E0,1.299739480E0,-4.482638359E0,4.818120035E0
1.040759304E1,9.895762205E-1,2.134776115E0,-3.061974525E0,3.861634130E0
1.042694118E1,4.709996581E-1,1.584797025E0,-1.835927963E0,2.470638333E0
1.044631984E1,2.309548855E-1,1.166714787E0,-8.380613327E-1,1.454960601E0
1.046575954E1,2.147345543E-1,1.238641739E0,-1.688671112E-1,1.268408604E0
1.048507717E1,4.431178570E-1,1.348388910E0,1.186151505E-1,1.424280746E0
1.050445583E1,4.618983269E-1,1.334372520E0,4.926691055E-1,1.495534331E0
1.052383449E1,6.974750757E-2,1.280188084E0,8.538885117E-1,1.540412878E0
1.054321315E1,-3.881742954E-1,1.061627626E0,1.393133163E0,1.794032472E0
1.056256130E1,-5.460040569E-1,7.424221039E-1,1.978219032E0,2.182352297E0
1.058193996E1,-4.763683081E-1,2.761012316E-1,2.490446091E0,2.550584322E0
1.060131862E1,-2.652339935E-1,-1.374009848E-1,3.043059349E0,3.057685122E0
1.062066677E1,-3.932005167E-2,-2.509893179E-1,3.377998352E0,3.387538128E0
1.064004543E1,3.904032707E-2,-1.323946714E-1,3.051134109E0,3.054254713E0
1.065942409E1,-3.228247166E-2,9.514522552E-2,2.397724152E0,2.399828302E0
1.067877224E1,-1.365014315E-1,2.036617994E-1,1.782649994E0,1.799430957E0
1.069818142E1,-9.685158730E-4,-1.287716627E-1,1.305885315E0,1.312219317E0
1.071752956E1,5.409240723E-2,-4.804934263E-1,1.014702797E0,1.124020323E0
1.073690822E1,1.313750744E-1,-7.952764034E-1,6.999797821E-1,1.067565297E0
1.075628688E1,7.577335835E-2,-1.104704976E0,-5.798435211E-2,1.108817781E0
1.077566555E1,-1.512619257E-1,-1.001127362E0,-1.258457184E0,1.615193688E0
1.079501369E1,-5.388911963E-1,-5.677260160E-1,-2.604062080E0,2.719164554E0
1.081439235E1,-4.336011112E-1,-5.510566235E-1,-3.494406700E0,3.564063904E0
1.083377102E1,-1.088169813E-1,-1.343017459E0,-3.729923248E0,3.965837171E0
1.085314968E1,1.133296192E-1,-2.160305500E0,-3.807190895E0,4.378865831E0
1.087249782E1,7.373273373E-3,-1.255068898E0,-4.258608818E0,4.439707352E0
1.089187648E1,-9.188318253E-1,1.158225417E0,-4.474609375E0,4.712522371E0
1.091125515E1,-1.435190439E0,2.486784935E0,-3.805840492E0,4.767419927E0
1.093060329E1,-1.063852191E0,1.875702977E0,-2.549616814E0,3.339249772E0
1.094998195E1,-7.815085649E-1,1.262450457E0,-9.427242279E-1,1.758768251E0
1.096936062E1,-1.037990451E0,1.259541988E0,1.018915176E-1,1.635314061E0
1.098870876E1,-1.329775095E0,1.298924208E0,1.017379761E-1,1.861681100E0
1.100808742E1,-1.192404032E0,1.526044846E0,-1.422538757E-1,1.941874458E0
1.102749660E1,-7.667217851E-1,1.664864540E0,-1.640653610E-1,1.840259133E0
1.104684475E1,-2.612029612E-1,1.532313585E0,3.662624359E-1,1.596984685E0
1.106622341E1,3.321656585E-2,1.057238817E0,1.661732674E0,1.969825560E0
1.108560207E1,-1.483976841E-3,6.378135681E-1,2.913431168E0,2.982430136E0
1.110495021E1,-4.867869616E-2,2.614182234E-1,3.830066681E0,3.839286377E0
1.112432888E1,-7.033991814E-2,-5.814552307E-3,4.204076767E0,4.204669187E0
1.114370754E1,-3.848797083E-2,-7.170200348E-3,3.834884644E0,3.835084480E0
1.116308620E1,-3.740584850E-2,1.921429634E-1,2.952660561E0,2.959142190E0
1.118243434E1,-1.005955935E-1,4.491715431E-1,2.125551224E0,2.174820120E0
1.120181301E1,-4.137831926E-2,4.235260487E-1,1.706480980E0,1.758739268E0
1.122119167E1,2.762269974E-2,1.511813402E-1,1.694478035E0,1.701433108E0
1.124053981E1,-6.927216053E-2,-2.447646856E-1,1.577663422E0,1.598039504E0
1.125991848E1,-1.463363171E-1,-6.891959906E-1,1.100587845E0,1.306789591E0
1.127929714E1,-4.714775085E-2,-8.319650888E-1,1.177539825E-1,8.415787663E-1
1.129864528E1,2.722217441E-1,-8.011642694E-1,-1.088076591E0,1.378361177E0
1.131805446E1,2.119727135E-1,-8.681192398E-1,-2.294483185E0,2.462359952E0
1.133743312E1,-3.109483123E-1,-6.396397352E-1,-3.182395935E0,3.260900448E0
1.135678127E1,-1.008283854E0,-1.151015043E0,-3.736796379E0,4.037959774E0
1.137615993E1,-9.210348129E-1,-1.367417574E0,-4.621238708E0,4.906524549E0
1.139553859E1,-1.707079411E-1,-1.649951935E-1,-5.833423615E0,5.838252794E0
1.141491726E1,1.113249540E0,1.468671918E0,-5.352154732E0,5.660554921E0
1.143426540E1,1.662117362E0,2.067507744E0,-3.360782623E0,4.281598094E0
1.145364406E1,1.341103792E0,1.476336479E0,-1.743583679E0,2.649190976E0
1.147302272E1,8.713770509E-1,1.003141403E0,-5.247306824E-1,1.428612239E0
1.149237087E1,6.292616129E-1,9.855420589E-1,1.285600662E-1,1.176346470E0
1.151174953E1,4.581436515E-1,9.938161373E-1,2.689580917E-1,1.126900428E0
1.153112819E1,2.808659673E-1,1.136706948E0,4.705533981E-1,1.261906842E0
1.155047634E1,-1.142173409E-1,1.204150438E0,8.381509781E-1,1.471570909E0
1.156985500E1,-5.058993101E-1,8.974590302E-1,1.484365463E0,1.806850202E0
1.158923366E1,-7.640751004E-1,4.002739191E-1,2.337732315E0,2.491790992E0
1.160861232E1,-9.679706097E-1,3.001821041E-2,3.077284813E0,3.226073467E0
1.162799099E1,-8.470619321E-1,-1.795136929E-2,3.318544388E0,3.424992412E0
1.164740017E1,-3.672478199E-1,1.018956900E-1,3.251052856E0,3.273316112E0
1.166674831E1,1.269894242E-1,8.018362522E-2,2.882262230E0,2.886172429E0
1.168609646E1,2.857573032E-1,-1.247661114E-1,2.450183868E0,2.469944292E0
1.170547512E1,2.466771007E-1,-3.806866407E-1,2.000168800E0,2.050962491E0
1.172485378E1,2.703157067E-1,-5.958172083E-1,1.341904640E0,1.492908835E0
1.174420192E1,1.784332395E-1,-7.757947445E-1,8.502902985E-1,1.164770148E0
1.176358059E1,-2.548873425E-3,-9.498462677E-1,4.406051636E-1,1.047066062E0
1.178295925E1,-1.147537827E-1,-1.056431532E0,-3.214092255E-1,1.110189129E0
1.180230739E1,-2.335608006E-4,-7.732709646E-1,-1.665629387E0,1.836373953E0
1.182168605E1,2.688121796E-2,-3.704478741E-1,-2.860244751E0,2.884259743E0
1.184106472E1,4.787896574E-1,-7.464952469E-1,-3.613362312E0,3.720602356E0
1.186041286E1,7.429206371E-1,-1.515824318E0,-3.853996277E0,4.207486392E0
1.187982204E1,3.601800501E-1,-1.402191758E0,-3.952472687E0,4.209264987E0
1.189920070E1,-6.343017817E-1,2.458630800E-1,-4.740347862E0,4.788912743E0
1.191854885E1,-1.356287718E0,1.691713452E0,-4.894045830E0,5.352858616E0
1.193792751E1,-1.366775632E0,2.041003466E0,-3.895189285E0,4.605026639E0
1.195730617E1,-6.176573038E-1,1.375490546E0,-1.638894081E0,2.226981948E0
1.197668483E1,-4.983472228E-1,1.029165387E0,1.608400345E-1,1.154729780E0
1.199603298E1,-9.383689761E-1,1.096654654E0,8.947181702E-1,1.698148512E0
1.201541164E1,-1.415244341E0,1.236657023E0,1.872491837E-1,1.888729572E0
1.203479030E1,-1.324707747E0,1.487990737E0,-3.036956787E-1,2.015241453E0
1.205413845E1,-7.527601719E-1,1.656492233E0,-3.171739578E-1,1.846947134E0
1.207351711E1,2.758970857E-2,1.192940593E0,6.340808868E-1,1.351268671E0
1.209289577E1,4.500861168E-1,5.532000065E-1,1.979035378E0,2.103613269E0
1.211224392E1,3.522084951E-1,6.865060329E-2,3.004730225E0,3.026081204E0
1.213162258E1,1.806974411E-3,-1.431719065E-1,3.483529091E0,3.486470477E0
1.215100124E1,-3.921416402E-1,-1.947987080E-1,3.536439896E0,3.563443382E0
1.217037990E1,-4.890018106E-1,-1.045428514E-1,3.495538712E0,3.531124872E0
1.218975856E1,-3.126100302E-1,-1.952087879E-2,3.306627274E0,3.321428913E0
1.220913723E1,3.483593464E-3,-3.098118305E-2,2.861617088E0,2.861786912E0
1.222851589E1,8.317190409E-2,1.182733774E-1,2.194833755E0,2.199591183E0
1.224786403E1,-1.446604729E-4,1.735894680E-1,1.506848335E0,1.516814171E0
1.226724270E1,-5.111056566E-2,1.974344254E-2,8.742151260E-1,8.759304653E-1
1.228662136E1,1.560212970E-1,-3.080303669E-1,3.559532166E-1,4.959113272E-1
1.230596950E1,5.051510334E-1,-4.549521208E-1,-2.969169617E-1,7.418346722E-1
1.232534816E1,7.827684283E-1,-8.508254290E-1,-1.439202309E0,1.846058940E0
1.234472683E1,5.367498398E-1,-9.195553064E-1,-2.715974808E0,2.917224967E0
1.236407497E1,9.932494164E-2,-1.038110375E0,-3.439971924E0,3.594571662E0
1.238345363E1,-1.135415435E-1,-1.380175829E0,-4.245112419E0,4.465283468E0
1.240283229E1,4.361921549E-2,-6.964389086E-1,-5.681398392E0,5.724090974E0
1.242218044E1,6.367810369E-1,1.196417451E0,-6.616473198E0,6.753859814E0
1.244155910E1,1.171492338E0,2.219606161E0,-5.494706154E0,6.040764979E0
1.246096828E1,1.493058443E0,1.815124154E0,-3.800148010E0,4.468223820E0
1.248031643E1,1.539178371E0,1.014268637E0,-1.814367294E0,2.586453094E0
1.249969509E1,1.108654499E0,8.998632431E-1,-2.743835449E-1,1.454013406E0
1.251907375E1,6.034536958E-1,1.078319669E0,5.316238403E-1,1.345196483E0
1.253845241E1,3.068870306E-1,1.236550212E0,1.029099464E0,1.637767317E0
1.255780056E1,-7.366394997E-2,1.327949524E0,1.582825661E0,2.067417081E0
1.257717922E1,-4.590201378E-1,1.076038122E0,2.306788445E0,2.586470656E0
1.259655788E1,-6.347177625E-1,6.897752285E-1,3.042181015E0,3.183319310E0
1.261590603E1,-8.269066215E-1,3.631395102E-1,3.519527435E0,3.633554490E0
1.263528469E1,-8.620604277E-1,1.809539795E-1,3.823112488E0,3.923274349E0
1.265466335E1,-5.681887865E-1,7.756698132E-2,3.880057335E0,3.922206019E0
1.267401149E1,-1.087803543E-1,1.330252886E-1,3.498086929E0,3.502305106E0
1.269339016E1,1.467076838E-1,2.285737991E-1,2.773571014E0,2.786837867E0
1.271276882E1,1.543878615E-1,2.483671904E-1,1.949332237E0,1.971146378E0
1.273214748E1,2.010425925E-1,-8.826041222E-2,1.210420609E0,1.230173189E0
1.275152614E1,4.428868294E-1,-6.955100298E-1,7.286396027E-1,1.100362947E0
1.277090480E1,6.799745560E-1,-1.167745709E0,4.677839279E-1,1.429971063E0
1.279028347E1,4.972435832E-1,-1.454059005E0,-8.119487762E-2,1.538873412E0
1.280963161E1,1.679761112E-1,-1.383792043E0,-1.300353050E0,1.906309116E0
1.282904079E1,-2.614525557E-1,-1.043177247E0,-2.776963234E0,2.977935696E0
1.284835842E1,-1.735506952E-1,-1.054516912E0,-3.975717545E0,4.116850223E0
1.286773708E1,5.343089104E-1,-1.669984579E0,-4.766494751E0,5.078760352E0
1.288711574E1,1.003051281E0,-1.850218892E0,-5.042677879E0,5.464249447E0
1.290649440E1,4.375557601E-1,-4.270292521E-1,-4.934564590E0,4.972296926E0
1.292584255E1,-8.266438246E-1,1.355565906E0,-4.163472176E0,4.455939799E0
1.294522121E1,-1.514183521E0,1.819024682E0,-3.166289330E0,3.953098866E0
1.296459987E1,-1.193122029E0,1.243076086E0,-1.655542374E0,2.389476697E0
1.298394802E1,-7.954390049E-1,9.472497702E-1,-4.002971649E-1,1.300093519E0
1.300332668E1,-6.230459809E-1,1.272057652E0,1.163825989E-1,1.421218447E0
1.302270534E1,-5.597921014E-1,1.658371568E0,-2.077236176E-1,1.762586893E0
1.304208400E1,-6.479572058E-1,2.039529324E0,-4.552974701E-1,2.187881210E0
1.306146267E1,-6.633472443E-1,2.096421719E0,-8.335399628E-2,2.200445745E0
1.308084133E1,-3.780139685E-1,1.449867606E0,1.018869400E0,1.811934185E0
1.310021999E1,-4.408478737E-2,7.138394117E-1,2.319647789E0,2.427401087E0
1.311956813E1,1.280350983E-1,1.992210150E-1,3.245039940E0,3.253669653E0
1.313894680E1,1.870639920E-1,-1.863837242E-2,3.642025948E0,3.646874460E0
1.315832546E1,1.979392767E-2,-1.468499899E-1,3.750993729E0,3.753919375E0
1.317767360E1,-4.348844290E-2,-3.559550047E-1,3.787422180E0,3.804360916E0
1.319705226E1,5.328714848E-2,-5.139436722E-1,3.672141075E0,3.708314670E0
1.321643093E1,-9.739750624E-2,-4.801715612E-1,3.032163620E0,3.071492670E0
1.323577907E1,-3.255072236E-1,-2.516906261E-1,2.042719841E0,2.083748419E0
1.325515773E1,-6.159852147E-1,-4.531848431E-2,1.181232452E0,1.332967238E0
1.327453640E1,-7.438747287E-1,-5.989217758E-2,4.426946640E-1,8.677068920E-1
1.329388454E1,-5.130283237E-1,-4.488584995E-1,-1.839189529E-1,7.060440459E-1
1.331329372E1,5.734831095E-2,-7.673009634E-1,-7.893085480E-1,1.102291967E0
1.333267238E1,2.353740931E-1,-7.513005733E-1,-1.552113533E0,1.740376377E0
1.335202053E1,9.284114838E-2,-8.898690939E-1,-2.546670914E0,2.699262719E0
1.337139919E1,-7.990860939E-2,-1.110277891E0,-3.443216324E0,3.618679460E0
1.339077785E1,-4.158085585E-2,-1.299329996E0,-4.481083870E0,4.665843981E0
1.341015651E1,3.627941608E-1,-3.722580671E-1,-5.628432274E0,5.652384057E0
1.342950466E1,8.684416413E-1,1.397609353E0,-5.978055954E0,6.200375455E0
1.344888332E1,9.665402770E-1,2.524968624E0,-4.886683464E0,5.584741886E0
1.346826198E1,1.022275209E0,2.347322941E0,-2.849440575E0,3.830702701E0
1.348761013E1,1.083441019E0,1.239128947E0,-7.401742935E-1,1.804755655E0
1.350698879E1,1.055250168E0,6.254515648E-1,4.178485870E-1,1.295893521E0
1.352636745E1,1.056537747E0,8.458606005E-1,5.188503265E-1,1.449468119E0
1.354571560E1,8.576926589E-1,1.339173317E0,1.749019623E-1,1.599878922E0
1.356509426E1,3.794798851E-1,1.433422565E0,4.436407089E-1,1.547747497E0
1.358447292E1,-2.656612396E-1,9.188966751E-1,1.351804733E0,1.655996084E0
1.360385158E1,-8.111689687E-1,1.304792166E-1,2.361103058E0,2.499965514E0
1.362323024E1,-9.622436166E-1,-3.042023182E-1,3.046466827E0,3.209269692E0
1.364260891E1,-7.757671475E-1,-1.877200603E-1,3.284376144E0,3.379967477E0
1.366198757E1,-3.522696495E-1,3.189480305E-2,3.268176079E0,3.287261180E0
1.368133571E1,1.100198030E-1,1.703013182E-1,3.130427361E0,3.136986190E0
1.370071437E1,3.084875941E-1,1.370126009E-1,2.855574608E0,2.875455336E0
1.372009304E1,5.148186684E-1,-1.491444111E-1,2.455045700E0,2.512873197E0
1.373944118E1,5.798125267E-1,-4.139374495E-1,1.883437157E0,2.013668866E0
1.375881984E1,3.799820542E-1,-5.944602489E-1,1.264107704E0,1.447666273E0
1.377819850E1,1.556511223E-1,-9.732298851E-1,6.410465240E-1,1.175731401E0
1.379754665E1,1.092663109E-1,-1.223979592E0,-1.163101196E-2,1.228902132E0
1.381692531E1,1.973753572E-1,-1.218650579E0,-1.070223808E0,1.633843709E0
1.383630397E1,1.014882326E-2,-6.364108324E-1,-2.236475945E0,2.325284154E0
1.385565212E1,1.565117836E-1,-4.562220573E-1,-3.023916245E0,3.062140421E0
1.387503078E1,6.982321739E-1,-1.082661271E0,-3.766808510E0,3.981021219E0
1.389443996E1,5.685615540E-1,-1.732208848E0,-4.113518715E0,4.499427292E0
1.391378810E1,-3.800484240E-1,-8.723944426E-1,-4.217790604E0,4.323802313E0
1.393316677E1,-1.316863298E0,8.534774780E-1,-3.837243080E0,4.145719142E0
1.395254543E1,-1.886745334E0,2.038313389E0,-2.958687782E0,4.058123066E0
1.397192409E1,-1.328845263E0,1.649345756E0,-2.035213470E0,2.937390853E0
1.399127224E1,-3.291789293E-1,7.529990673E-1,-1.271800041E0,1.514213231E0
1.401068142E1,-3.334720135E-1,1.073572397E0,-9.292402267E-1,1.458509059E0
1.403002956E1,-9.966325760E-1,1.885772347E0,-1.300516129E0,2.498150524E0
1.404937771E1,-1.322282910E0,2.204857826E0,-1.691870689E0,3.077703130E0
1.406875637E1,-9.724518657E-1,1.936562061E0,-1.148224831E0,2.452418298E0
1.408813503E1,-3.663591444E-1,1.383049488E0,6.077756882E-1,1.554489047E0
1.410748317E1,-4.489630461E-3,9.780894518E-1,2.508493423E0,2.692437258E0
1.412686184E1,2.964070737E-1,5.824580193E-1,3.548975945E0,3.608648605E0
1.414624050E1,1.617660522E-1,3.005406857E-1,3.882061005E0,3.897036131E0
1.416561916E1,-1.019058228E-1,1.372188330E-1,4.089378357E0,4.092948711E0
1.418499782E1,-7.926553488E-2,-9.245216846E-2,4.174292564E0,4.176068587E0
1.420437648E1,-1.001194715E-1,-1.339656115E-1,3.748164177E0,3.751893574E0
1.422375515E1,-1.464578509E-1,-5.785536766E-2,2.911384583E0,2.915640124E0
1.424310329E1,-1.717146635E-1,3.097045422E-2,1.941779137E0,1.949602860E0
1.426248195E1,-2.051159739E-1,-1.827073097E-2,1.362866402E0,1.378336393E0
1.428186062E1,-2.499568462E-1,-3.242578506E-1,1.254008293E0,1.319150627E0
1.430120876E1,-2.458737493E-1,-7.884011269E-1,1.146369934E0,1.412867391E0
1.432058742E1,-3.606677055E-2,-1.022549629E0,6.241846085E-1,1.198547029E0
1.433996608E1,2.910853028E-1,-9.965747595E-1,-2.357187271E-1,1.064638541E0
1.435931423E1,3.069326282E-1,-1.062819600E0,-1.372605324E0,1.762906270E0
1.437869289E1,-7.703107595E-2,-7.962220907E-1,-2.654086113E0,2.772016685E0
1.439807155E1,-4.041919112E-1,-8.991229534E-1,-3.802954674E0,3.928645751E0
1.441741970E1,-1.856431365E-1,-1.256093979E0,-4.828341484E0,4.992506079E0
1.443679836E1,3.998038769E-1,-6.495295763E-1,-5.664197922E0,5.715318881E0
1.445617702E1,9.591158032E-1,8.682247400E-1,-5.543241501E0,5.692209032E0
1.447555568E1,1.147735238E0,1.957936049E0,-4.297126770E0,4.859640751E0
1.449493434E1,1.212013245E0,1.887520790E0,-3.033693314E0,3.772930686E0
1.451431301E1,9.412691593E-1,1.413660645E0,-1.864413261E0,2.521995412E0
1.453369167E1,7.379686236E-1,1.449075103E0,-6.231765747E-1,1.741483674E0
1.455303981E1,7.923020124E-1,1.207564235E0,2.759838104E-1,1.470415221E0
1.457241848E1,6.895571351E-1,1.041456461E0,7.697944641E-1,1.467209637E0
1.459179714E1,2.312808037E-1,1.055933952E0,1.117881775E0,1.555039223E0
1.461114528E1,-4.431098104E-1,1.134055734E0,1.216884613E0,1.721405493E0
1.463052394E1,-8.719930649E-1,8.414105177E-1,1.546815872E0,1.964938398E0
1.464990261E1,-7.989819646E-1,2.180527449E-1,2.451774597E0,2.587879026E0
1.466925075E1,-5.323063731E-1,-3.690555096E-1,3.486173630E0,3.545836801E0
1.468862941E1,-2.901433706E-1,-6.105457544E-1,3.839797020E0,3.898844758E0
1.470800808E1,-2.136756778E-1,-4.550497532E-1,3.287105560E0,3.325325629E0
1.472735622E1,-2.457507253E-1,-2.212724686E-1,2.417949677E0,2.440458064E0
1.474676540E1,-2.812321186E-1,-1.441098452E-1,1.887450218E0,1.913720846E0
1.476614406E1,-6.690323353E-2,-3.154336214E-1,1.472496033E0,1.507388131E0
1.478552272E1,2.386379242E-1,-6.589093208E-1,8.296947479E-1,1.086049228E0
1.480487087E1,4.623181820E-1,-8.833105564E-1,1.047620773E-1,1.002472310E0
1.482424953E1,5.949622989E-1,-1.025413990E0,-6.880731583E-1,1.370729244E0
1.484362819E1,2.671257257E-1,-1.193811297E0,-1.218667984E0,1.726758009E0
1.486297634E1,-3.042718768E-1,-9.588072300E-1,-1.638730049E0,1.922843949E0
1.488235500E1,-5.825247169E-1,-6.588710546E-1,-1.972253799E0,2.159451588E0
1.490173366E1,1.491785645E-1,-8.041615486E-1,-2.579541206E0,2.706097351E0
1.492108181E1,6.464705467E-1,-1.415829778E0,-2.954161644E0,3.339097055E0
1.494046047E1,4.436369538E-1,-1.911679029E0,-2.855187416E0,3.464596028E0
1.495983913E1,-7.119632959E-1,-1.060651422E0,-2.838310242E0,3.112535655E0
1.497918728E1,-1.968505025E0,1.305283904E0,-2.950747490E0,3.779641366E0
1.499856594E1,-2.026849985E0,2.591537476E0,-2.595371246E0,4.190481984E0
1.501794460E1,-8.459557891E-1,2.168945312E0,-1.483272552E0,2.760446056E0
1.503732326E1,4.595153034E-1,1.488135457E0,-5.723752975E-1,1.659311584E0
1.505670192E1,4.345821142E-1,1.476217151E0,-2.450780869E-1,1.558249646E0
1.507608059E1,-4.471664429E-1,1.886067867E0,-5.300016403E-1,2.009505304E0
1.509545925E1,-7.754220963E-1,2.024456263E0,-8.835525513E-1,2.341018517E0
1.511480739E1,-4.027824700E-1,1.774236679E0,-7.608041763E-1,1.972047795E0
1.513418605E1,2.888479233E-1,1.059645176E0,2.341279984E-1,1.122985726E0
1.515356472E1,4.775055647E-1,3.500798941E-1,1.404299736E0,1.524016156E0
1.517291286E1,2.817168832E-1,3.825938702E-2,2.306490898E0,2.323946739E0
1.519232204E1,8.802676201E-2,-4.470264912E-2,2.889338493E0,2.891024726E0
1.521167019E1,-1.512885094E-2,-3.258051872E-1,3.083271027E0,3.100473855E0
1.523101833E1,-2.192175388E-2,-6.001883745E-1,3.156690598E0,3.213316383E0
1.525039699E1,-1.693029404E-1,-6.034747362E-1,2.783973694E0,2.853656386E0
1.526977565E1,-1.982377768E-1,-4.748393297E-1,2.195504189E0,2.254996507E0
1.528912380E1,2.638101578E-2,-4.442600012E-1,1.781986237E0,1.836719318E0
1.530850246E1,1.333045363E-1,-5.250437260E-1,1.500369072E0,1.595164056E0
1.532791164E1,-6.149071455E-2,-6.992005110E-1,1.146137238E0,1.343984014E0
1.534725978E1,-1.470152736E-1,-7.190303802E-1,5.339813232E-1,9.076090744E-1
1.536663845E1,5.816400051E-2,-5.247507095E-1,-3.062267303E-1,6.103451224E-1
1.538601711E1,1.523539424E-1,-4.240425825E-1,-7.961559296E-1,9.148158830E-1
1.540539577E1,1.628166437E-2,-6.700553894E-1,-1.486488342E0,1.630609367E0
1.542474392E1,-2.034509182E-1,-7.260997295E-1,-2.403370857E0,2.518889551E0
1.544412258E1,-3.809762001E-2,-1.420191884E0,-3.632457733E0,3.900403261E0
1.546350124E1,5.607384443E-1,-1.181272745E0,-4.816493034E0,4.990835406E0
1.548284938E1,8.559980989E-1,3.624066114E-1,-5.543334007E0,5.620731555E0
1.550222805E1,9.357645512E-1,1.687608004E0,-4.418682098E0,4.821662323E0
1.552160671E1,8.852699995E-1,1.805838466E0,-2.715791702E0,3.379390493E0
1.554095485E1,7.394225001E-1,1.275355697E0,-1.606075287E0,2.180081561E0
1.556033352E1,4.067817330E-1,1.376263261E0,-9.541730881E-1,1.723374081E0
1.557971218E1,2.553778291E-1,1.550863266E0,-6.862792969E-1,1.715043433E0
1.559909084E1,2.086232305E-1,1.549693227E0,-2.615623474E-1,1.585398250E0
1.561846950E1,9.187853336E-2,1.331397414E0,5.448646545E-1,1.441505543E0
1.563784816E1,-1.299902797E-1,9.126670361E-1,1.501182556E0,1.761649130E0
1.565722683E1,-5.115548372E-1,4.421504736E-1,2.201397896E0,2.302897759E0
1.567657497E1,-8.281339407E-1,6.797349453E-2,2.705015182E0,2.829758533E0
1.569595363E1,-9.877799749E-1,-3.262296915E-1,3.072320938E0,3.243653964E0
1.571533229E1,-8.656304479E-1,-4.752449989E-1,3.220523834E0,3.368523066E0
1.573468044E1,-4.144502878E-1,-4.390012026E-1,3.067085266E0,3.125940359E0
1.575405910E1,4.835736752E-2,-4.014170170E-1,2.706201553E0,2.736238459E0
1.577343776E1,5.070405006E-1,-4.414418936E-1,2.227487564E0,2.326727716E0
1.579278591E1,6.708790064E-1,-4.377514124E-1,1.489134789E0,1.690925001E0
1.581216457E1,4.237040281E-1,-5.300987959E-1,9.074935913E-1,1.133170091E0
1.583154323E1,-4.621708393E-2,-7.967602015E-1,6.263370514E-1,1.014524982E0
1.585089138E1,-5.013415813E-1,-1.058819056E0,1.111078262E-1,1.176769358E0
1.587027004E1,-8.582499027E-1,-1.036800027E0,-7.768878937E-1,1.554059841E0
1.588967922E1,-9.597235918E-1,-5.490968227E-1,-1.795969963E0,2.109048317E0
1.590902736E1,-6.921388507E-1,-1.702674627E-1,-2.919895172E0,3.005633879E0
1.592840603E1,1.499963105E-1,-6.623952389E-1,-3.395639420E0,3.462893792E0
1.594778469E1,5.289757252E-1,-1.911900282E0,-3.220529556E0,3.782458014E0
1.596716335E1,4.414905012E-1,-2.878024101E0,-3.034505844E0,4.205491922E0
1.598651149E1,-2.515717149E-1,-1.612488627E0,-2.910801888E0,3.337090878E0
1.600589016E1,-1.374282360E0,1.066479445E0,-2.530750275E0,3.070948935E0
1.602526882E1,-1.702820301E0,2.177868843E0,-2.431145668E0,3.681464238E0
1.604461696E1,-1.103919625E0,1.808591843E0,-1.902089119E0,2.847382308E0
1.606399562E1,-4.703921974E-1,1.389711618E0,-1.388092995E0,2.019744876E0
1.608337429E1,-7.826756239E-1,2.134010315E0,-1.305290222E0,2.621137868E0
1.610272243E1,-1.178735733E0,2.620195150E0,-1.263055801E0,3.138494944E0
1.612210109E1,-1.017831326E0,2.310888052E0,-7.019147873E-1,2.620852641E0
1.614147976E1,-2.664032876E-1,1.469676852E0,3.543586731E-1,1.535086587E0
1.616082790E1,3.340964317E-1,6.882563829E-1,1.621801376E0,1.793197418E0
1.618023708E1,6.948399544E-1,1.346532106E-1,2.447330475E0,2.547618594E0
1.619961574E1,6.231134534E-1,3.603327274E-2,2.750822067E0,2.820742955E0
1.621896389E1,2.620077431E-1,2.342847586E-1,2.707002640E0,2.729725389E0
1.623834255E1,1.426652074E-2,2.725944519E-1,2.984292984E0,2.996750888E0
1.625772121E1,3.751528263E-2,1.620144844E-1,3.242821693E0,3.247083095E0
1.627709987E1,1.959139109E-1,1.461052895E-1,3.092257500E0,3.101900298E0
1.629644802E1,2.253029346E-1,1.248637438E-1,3.101349831E0,3.112028782E0
1.631582668E1,1.718288064E-1,1.739549637E-2,2.794922829E0,2.800253803E0
1.633520534E1,7.419764996E-2,-1.925989389E-1,2.618671417E0,2.626792652E0
1.635456479E1,3.661936522E-2,-4.816104174E-1,2.332394600E0,2.381880379E0
1.637397397E1,2.641848326E-1,-7.616755962E-1,1.514149666E0,1.715398656E0
1.639332212E1,6.967620850E-1,-9.666987658E-1,-1.731929779E-1,1.204151035E0
1.641267026E1,9.502882957E-1,-8.365001678E-1,-1.855374336E0,2.246150997E0
1.643204892E1,7.344911098E-1,-7.173178196E-1,-3.334869385E0,3.489323123E0
1.645142758E1,1.269870996E-1,-7.109564543E-1,-3.922951698E0,3.988876387E0
1.647080625E1,-3.881188631E-1,-1.403687716E0,-4.079747200E0,4.331894813E0
1.649018491E1,-3.417828083E-1,-1.912873507E0,-4.433941841E0,4.841047489E0
1.650956357E1,-1.733708382E-1,-6.847107410E-1,-4.976175308E0,5.026052820E0
1.652891172E1,2.315988541E-1,1.411626577E0,-4.546472549E0,4.766208164E0
1.654829038E1,4.100080729E-1,2.471024275E0,-3.176788330E0,4.045497705E0
1.656766904E1,5.560719967E-1,1.825563669E0,-1.874525070E0,2.675022059E0
1.658704770E1,8.232164383E-1,1.196549296E0,-1.028618813E0,1.779739359E0
1.660639585E1,9.935572147E-1,1.283442140E0,-7.765264511E-1,1.799270128E0
1.662577451E1,1.015460253E0,1.291602015E0,-5.843868256E-1,1.743818584E0
1.664515317E1,6.441599131E-1,1.069349408E0,6.711006165E-2,1.250181551E0
1.666450132E1,-6.086683273E-2,7.173017263E-1,1.077779770E0,1.296084785E0
1.668387998E1,-7.536618710E-1,4.265673161E-1,2.145129204E0,2.313340699E0
1.670325864E1,-1.119892597E0,3.331204653E-1,2.935846329E0,3.159797832E0
1.672260678E1,-1.256859183E0,2.040065527E-1,3.221055031E0,3.463597724E0
1.674201596E1,-1.067345858E0,1.665065289E-1,2.847940445E0,3.045934402E0
1.676139463E1,-8.423433304E-1,1.890974045E-1,2.564766884E0,2.706165051E0
1.678074277E1,-6.340561509E-1,1.816422939E-1,2.580179214E0,2.663145866E0
1.680012143E1,-4.164264798E-1,8.337724209E-2,2.599936485E0,2.634394144E0
1.681950010E1,-1.637864113E-1,-1.715362072E-1,2.368556023E0,2.380400868E0
1.683887876E1,1.036465764E-1,-4.554473162E-1,2.101297379E0,2.152585781E0
1.685822690E1,2.553300858E-1,-6.344412565E-1,1.880727768E0,2.001211158E0
1.687760556E1,2.780942917E-1,-7.598358393E-1,1.260455132E0,1.497809760E0
1.689698422E1,1.543148160E-1,-6.746355295E-1,9.606170654E-2,6.986945052E-1
1.691633237E1,4.039049149E-2,-3.486021757E-1,-9.815683365E-1,1.042416072E0
1.693571103E1,-1.900446415E-2,-1.980077028E-1,-1.828713417E0,1.839500199E0
1.695508969E1,3.688174486E-1,-6.871782541E-1,-2.918720245E0,3.021120344E0
1.697443784E1,7.196684480E-1,-1.773814797E0,-3.735114098E0,4.197072662E0
1.699381650E1,6.237810850E-1,-2.436960220E0,-3.967989922E0,4.698172195E0
1.701319516E1,4.109246135E-1,-1.244168997E0,-4.012930870E0,4.221425079E0
1.703257382E1,-3.037579060E-1,1.118724346E0,-3.921305656E0,4.089064817E0
1.705195249E1,-8.282794356E-1,1.885033369E0,-4.251037598E0,4.723422306E0
1.707133115E1,-5.860069394E-1,1.609767199E0,-3.751317024E0,4.123970657E0
1.709067929E1,-3.784210682E-1,1.537059307E0,-2.711183548E0,3.139469708E0
1.711005796E1,-7.419958115E-1,1.746256590E0,-1.580544472E0,2.469431248E0
1.712943662E1,-1.046313643E0,1.674018145E0,-7.714776993E-1,2.119501552E0
1.714881528E1,-1.043162107E0,1.480463028E0,-8.903694153E-2,1.813252750E0
1.716816342E1,-8.292824030E-1,1.158335447E0,8.624134064E-1,1.665294928E0
1.718754209E1,-5.291934013E-1,7.741730213E-1,1.917474747E0,2.134502033E0
1.720692075E1,-4.177157283E-1,4.161229134E-1,2.793606758E0,2.855150334E0
1.722626889E1,-5.430849791E-1,2.192667723E-1,3.075100899E0,3.130377733E0
1.724564756E1,-6.253489852E-1,5.868816376E-2,3.169466019E0,3.231102056E0
1.726502622E1,-6.257498860E-1,-1.769462824E-1,3.307014465E0,3.370343837E0
1.728437436E1,-6.140928864E-1,-1.726185083E-1,3.197448730E0,3.260457883E0
1.730375302E1,-5.459087491E-1,-1.641608477E-1,2.834906578E0,2.891653584E0
1.732319272E1,-4.634283185E-1,-3.398777246E-1,2.572458267E0,2.635872571E0
1.734251035E1,-4.375211596E-1,-5.381554365E-1,2.185792923E0,2.293191388E0
1.736188901E1,-5.769405961E-1,-6.610212326E-1,1.423415184E0,1.672100567E0
1.738126767E1,-5.929859281E-1,-5.495911837E-1,4.560480118E-1,9.282578139E-1
1.740061582E1,-3.522108197E-1,-4.489250183E-1,-3.852901459E-1,6.885017285E-1
1.741999448E1,9.389227629E-2,-4.801248312E-1,-9.009456635E-1,1.025201786E0
1.743937314E1,3.186562061E-1,-9.586384296E-1,-1.186553955E0,1.558345182E0
1.745875180E1,1.070801020E-1,-1.183836579E0,-2.212823868E0,2.511876722E0
1.747809995E1,-3.112428188E-1,-1.239467502E0,-3.121078491E0,3.372578054E0
1.749747861E1,-2.772101164E-1,-1.989835978E0,-3.474434853E0,4.013476076E0
1.751685727E1,2.457314134E-1,-1.878931999E0,-3.710081100E0,4.165989817E0
1.753620542E1,7.864323258E-1,-1.121712923E-1,-4.070406914E0,4.147200338E0
1.755561460E1,9.723488688E-1,1.590481281E0,-3.597110748E0,4.051456376E0
1.757496274E1,7.421894073E-1,1.764425159E0,-2.609095573E0,3.235957504E0
1.759431089E1,7.249167562E-1,7.651081085E-1,-1.280246735E0,1.658290211E0
1.761372007E1,9.863876700E-1,5.314202309E-1,-6.451377869E-1,1.292892440E0
1.763309873E1,9.513077140E-1,8.272669315E-1,-2.935333252E-1,1.294418308E0
1.765244687E1,7.177917361E-1,1.138009906E0,-1.829252243E-1,1.357848725E0
1.767182553E1,4.474219680E-1,1.214614511E0,1.619520187E-1,1.304493497E0
1.769120420E1,2.139698863E-1,1.098948717E0,9.384374619E-1,1.460868326E0
1.771055234E1,1.931826472E-1,7.438895702E-1,1.954108238E0,2.099816715E0
1.772993100E1,3.495407701E-1,2.541172504E-1,2.891487122E0,2.923602589E0
1.774930967E1,3.700789809E-1,-1.564978361E-1,3.606879234E0,3.629191072E0
1.776868833E1,2.292860150E-1,-2.141768932E-1,3.666496277E0,3.679896570E0
1.778803647E1,-1.432943940E-1,-9.590697289E-2,3.011567116E0,3.016499283E0
1.780741513E1,-2.750810385E-1,-5.597710609E-3,2.545799255E0,2.560623901E0
1.782679380E1,-1.969248056E-2,-2.282241583E-1,2.266469002E0,2.278015759E0
1.784614194E1,2.496787310E-1,-5.969942808E-1,1.774868965E0,1.889153642E0
1.786552060E1,4.839978814E-1,-9.886996746E-1,1.209300041E0,1.635294342E0
1.788489926E1,5.076622367E-1,-1.272380233E0,5.084800720E-1,1.461240701E0
1.790427793E1,3.379565179E-1,-1.349260092E0,-3.564338684E-1,1.435883876E0
1.792365659E1,2.112739384E-1,-1.030956268E0,-1.408214569E0,1.758003349E0
1.794303525E1,7.404664159E-2,-4.986561537E-1,-2.304962158E0,2.359447269E0
1.796238340E1,3.731837869E-1,-5.258306265E-1,-2.979468346E0,3.048441505E0
1.798176206E1,5.650351048E-1,-1.025929451E0,-3.372242928E0,3.569848494E0
1.800114072E1,4.080009162E-1,-1.640658736E0,-3.732795715E0,4.097803032E0
1.802051938E1,7.321859896E-2,-1.064878821E0,-3.791863441E0,3.939232949E0
1.803986753E1,-5.895674825E-1,9.155161381E-1,-3.805300713E0,3.958039051E0
1.805924619E1,-7.945663929E-1,2.064216375E0,-3.670258522E0,4.285221420E0
1.807862485E1,-2.850832939E-1,1.844427466E0,-2.872223854E0,3.425325537E0
1.809797300E1,-1.124840677E-1,1.300200939E0,-1.706974983E0,2.148706295E0
1.811735166E1,-4.282158017E-1,8.345692158E-1,-7.152872086E-1,1.179622965E0
1.813673032E1,-7.132478356E-1,6.104936600E-1,-4.357767105E-1,1.035048948E0
1.815607846E1,-6.518168449E-1,9.389505386E-1,-2.256927490E-1,1.165088207E0
1.817548764E1,-1.919686794E-1,1.043854713E0,6.400985718E-1,1.239439719E0
1.819486630E1,3.240865767E-1,6.391656399E-1,1.910208702E0,2.040211291E0
1.821421445E1,3.980024457E-1,5.373954773E-4,3.126106262E0,3.151340445E0
1.823359311E1,-2.619832754E-2,-3.491538763E-1,3.586130142E0,3.603182507E0
1.825297177E1,-6.316158175E-1,-4.424428940E-1,3.377849579E0,3.464760025E0
1.827231992E1,-7.974731922E-1,-3.793436289E-1,3.324084282E0,3.439389683E0
1.829169858E1,-2.781349421E-1,-1.155823469E-1,3.076544762E0,3.091253143E0
1.831107724E1,1.146532893E-1,1.316608191E-1,2.763691902E0,2.769200765E0
1.833045590E1,-9.773886204E-2,2.968639135E-1,2.329470634E0,2.350343487E0
1.834980405E1,-3.357627988E-1,2.595626116E-1,1.573527336E0,1.629753872E0
1.836918271E1,-2.702844739E-1,1.036044359E-1,8.949041367E-1,9.405535550E-1
1.838856137E1,-2.130804062E-1,-1.271100044E-1,3.841314316E-1,4.572933079E-1
1.840790952E1,-2.709132433E-2,-4.497926235E-1,-1.480627060E-1,4.743099292E-1
1.842728818E1,4.205090404E-1,-8.742603064E-1,-1.196759224E0,1.540581571E0
1.844666684E1,5.911289454E-1,-1.141666532E0,-2.092824936E0,2.456166141E0
1.846604550E1,3.646018505E-1,-1.413830280E0,-2.613853455E0,2.994007424E0
1.848542417E1,-2.017747164E-1,-1.533638716E0,-3.127532959E0,3.489157944E0
1.850483335E1,-4.492286444E-1,-1.920797825E0,-3.685606956E0,4.180307321E0
1.852415097E1,1.629845500E-1,-1.274660349E0,-4.601129532E0,4.777207965E0
1.854352964E1,1.249896646E0,4.280589819E-1,-5.542264938E0,5.697558842E0
1.856290830E1,1.695017815E0,1.980264306E0,-4.988391876E0,5.628373266E0
1.858225644E1,1.263504267E0,2.045156479E0,-3.323659897E0,4.101929200E0
1.860163510E1,6.044995785E-1,1.020282507E0,-1.290073395E0,1.752337153E0
1.862101377E1,-1.086484194E-1,8.447124958E-1,-8.269786835E-2,8.556767012E-1
1.864039243E1,-2.198443413E-1,1.090200067E0,7.065458298E-1,1.317601886E0
1.865974057E1,1.156461239E-1,1.564516187E0,9.979763031E-1,1.859312138E0
1.867911924E1,1.562448144E-1,2.051093102E0,9.444990158E-1,2.263509166E0
1.869849790E1,2.371398211E-1,1.655337572E0,1.342258453E0,2.144303040E0
1.871784604E1,-6.731903553E-2,8.326975107E-1,2.116914749E0,2.275795477E0
1.873725522E1,-7.105036974E-1,1.985722780E-1,3.019186974E0,3.108011653E0
1.875663388E1,-1.318140626E0,-2.719428539E-1,3.490643501E0,3.741128129E0
1.877598203E1,-1.584352970E0,-7.497036457E-2,2.917510033E0,3.320792026E0
1.879536069E1,-1.434014082E0,2.235840559E-1,2.181001663E0,2.619762293E0
1.881473935E1,-7.371318936E-1,1.792788506E-2,1.972267151E0,2.105593159E0
1.883408750E1,-1.402876377E-1,-3.242205381E-1,1.947161674E0,1.978948753E0
1.885346616E1,3.138870001E-2,-4.923436642E-1,1.469221115E0,1.549838127E0
1.887284482E1,1.818184257E-1,-8.033075333E-1,9.798040390E-1,1.279990972E0
1.889219297E1,2.107900381E-1,-1.057471514E0,4.918231964E-1,1.185144927E0
1.891157163E1,2.945532203E-1,-9.674489498E-1,7.746219635E-2,1.014258084E0
1.893095029E1,2.080174088E-1,-8.229348660E-1,-5.065469742E-1,9.884750240E-1
1.895032895E1,-1.037522554E-1,-6.086117029E-1,-1.574917793E0,1.691608344E0
1.896967710E1,2.202204466E-1,-9.859541655E-1,-2.712433815E0,2.894460202E0
1.898905576E1,6.335377693E-1,-2.020817518E0,-3.508664131E0,4.098267626E0
1.900843442E1,6.236525774E-1,-2.781229973E0,-3.954042435E0,4.874282950E0
1.902781308E1,1.020416617E-1,-1.702718973E0,-4.301709175E0,4.627565908E0
1.904719175E1,-9.995216727E-1,6.379424334E-1,-4.089239120E0,4.257686074E0
1.906657041E1,-1.657017708E0,1.627176642E0,-3.570099831E0,4.258993345E0
1.908591855E1,-1.468626142E0,1.321535110E0,-2.792323112E0,3.420582722E0
1.910529721E1,-9.838054180E-1,9.878230095E-1,-1.822064400E0,2.294250657E0
1.912467588E1,-5.858398080E-1,1.157617331E0,-9.687376022E-1,1.619178405E0
1.914402402E1,-2.843935490E-1,1.579010487E0,-2.601423264E-1,1.625370062E0
1.916340268E1,-3.112900853E-1,2.041419744E0,4.957771301E-2,2.065612268E0
1.918278135E1,-4.959336519E-1,2.013875008E0,3.067064285E-1,2.096595232E0
1.920212949E1,-6.402691603E-1,1.374179363E0,1.130518913E0,1.891133664E0
1.922150815E1,-6.367403865E-1,8.179566860E-1,2.143873215E0,2.381319764E0
1.924088681E1,-6.762840748E-1,5.145467520E-1,3.378140450E0,3.483382179E0
1.926026548E1,-7.057495713E-1,2.763407230E-1,4.041653633E0,4.112105391E0
1.927961362E1,-5.521569252E-1,5.397474766E-2,3.987734795E0,4.026141991E0
1.929899228E1,-5.646616220E-1,-1.205698252E-1,3.609243393E0,3.655135798E0
1.931837094E1,-5.981597900E-1,-4.841911793E-2,3.300044060E0,3.354166117E0
1.933774961E1,-4.323992729E-1,-1.599545479E-1,2.906972885E0,2.943305275E0
1.935712827E1,-1.336560249E-1,-4.098541737E-1,2.061117172E0,2.105718019E0
1.937650693E1,-1.705995202E-1,-2.441201210E-1,9.625244141E-1,1.007547556E0
1.939585508E1,-4.382782578E-1,-3.950774670E-2,2.014455795E-1,4.839721220E-1
1.941523374E1,-5.781103373E-1,-2.030302286E-1,-4.625587463E-1,7.677196295E-1
1.943461240E1,-4.385631084E-1,-7.412360907E-1,-1.081965446E0,1.382901938E0
1.945396054E1,-3.660244942E-1,-1.540375948E0,-1.553761482E0,2.218311686E0
1.947333921E1,-2.388332486E-1,-1.540175319E0,-2.141318321E0,2.648476069E0
1.949271787E1,-1.292074919E-1,-1.248241663E0,-2.537289619E0,2.830660778E0
1.951209653E1,2.043962479E-2,-1.555303216E0,-2.913871765E0,3.303034141E0
1.953144468E1,7.591688633E-2,-1.152773499E0,-3.829569817E0,4.000031887E0
1.955082334E1,2.248746157E-1,5.458006859E-1,-5.426312447E0,5.458327010E0
1.957020200E1,6.671062112E-1,1.938323736E0,-5.491628647E0,5.861750148E0
1.958955014E1,9.615031481E-1,1.741928816E0,-3.936522484E0,4.410783782E0
1.960895932E1,1.262033701E0,1.126058578E0,-2.195343971E0,2.771330391E0
1.962833798E1,1.251334906E0,1.016260386E0,-9.278812408E-1,1.859996724E0
1.964768613E1,1.219406247E0,9.798843861E-1,6.237125397E-2,1.565571838E0
1.966706479E1,9.091050625E-1,9.058443308E-1,8.446989059E-1,1.536405613E0
1.968647397E1,5.340664983E-1,8.101631403E-1,1.523617744E0,1.806378247E0
1.970579160E1,8.141875267E-2,6.658776999E-1,1.884736061E0,2.000562957E0
1.972517026E1,-2.860208750E-1,6.057089567E-1,2.373532295E0,2.466241439E0
1.974454892E1,-4.647122025E-1,4.954489470E-1,2.682991028E0,2.767646644E0
1.976389707E1,-5.904641747E-1,3.202935457E-1,3.089993477E0,3.162166280E0
1.978327573E1,-4.091467261E-1,9.630608559E-2,3.389100075E0,3.415065918E0
1.980265439E1,-2.116319537E-1,-2.846693993E-2,3.328416824E0,3.335259661E0
1.982203305E1,-1.745666265E-1,-1.702175140E-1,2.934384346E0,2.944496391E0
1.984138120E1,-1.148591638E-1,-1.774866581E-1,2.190757751E0,2.200934726E0
1.986075986E1,2.175807953E-2,-2.977913618E-1,1.390261650E0,1.421963630E0
1.988013852E1,2.892215252E-1,-7.517720461E-1,8.701410294E-1,1.185730033E0
1.989951718E1,3.543965220E-1,-1.325749874E0,1.277542114E-1,1.378234654E0
1.991889585E1,1.312901378E-1,-1.456457019E0,-8.988618851E-1,1.716524639E0
1.993827451E1,-1.877159774E-1,-1.021221280E0,-1.953160286E0,2.212004813E0
1.995762265E1,-3.066330552E-1,-7.400321960E-1,-2.544092178E0,2.667222618E0
1.997700132E1,3.862853348E-1,-1.172433496E0,-2.593085289E0,2.871917126E0
1.999637998E1,8.482918739E-1,-1.559445620E0,-3.040509224E0,3.520818951E0
2.001572812E1,6.193733215E-1,-1.580262065E0,-3.928802490E0,4.279759399E0
2.003510678E1,-6.351582706E-2,-7.651813030E-1,-4.637801170E0,4.700929311E0
2.005448545E1,-1.143154860E0,8.136203289E-1,-4.251760483E0,4.477303684E0
2.007383359E1,-1.536571503E0,1.777631044E0,-3.093912125E0,3.885011756E0
2.009321225E1,-1.076052785E0,1.607367992E0,-1.390149117E0,2.382023515E0
2.011259092E1,-4.215249717E-1,1.281550527E0,7.888126373E-2,1.351398279E0
2.013196958E1,-2.894340158E-1,1.225787401E0,9.007024765E-1,1.548415885E0
2.015131772E1,-7.693095803E-1,1.384930372E0,3.936948776E-1,1.632441430E0
2.017069638E1,-7.702156901E-1,1.625559568E0,-4.434785843E-1,1.852660081E0
2.019010556E1,-9.248003364E-2,1.525346279E0,-4.866914749E-1,1.603777547E0
2.020945371E1,5.032254457E-1,9.560588598E-1,6.010723114E-1,1.236354446E0
2.022883237E1,4.650022089E-1,3.189655542E-1,2.128863335E0,2.202277271E0
2.024821103E1,1.651340723E-1,-1.383291483E-1,3.221645355E0,3.228839267E0
2.026755918E1,1.069161296E-2,-3.940324783E-1,3.760682106E0,3.781283619E0
2.028693784E1,-1.310801506E-2,-3.994638920E-1,3.832272530E0,3.853058001E0
2.030631650E1,-7.774907351E-2,-3.138544559E-1,3.459342003E0,3.474420330E0
2.032566464E1,-1.291103363E-1,-8.667337894E-2,2.929053307E0,2.933178315E0
2.034504331E1,-2.438404560E-1,2.557146549E-2,2.329755783E0,2.342621198E0
2.036442197E1,-3.926265240E-1,-1.391228437E-1,1.728628159E0,1.778107439E0
2.038377011E1,-3.384090662E-1,-4.570361376E-1,1.140592575E0,1.274501530E0
2.040314878E1,-1.755610704E-1,-6.886500120E-1,4.049787521E-1,8.179659640E-1
2.042252744E1,9.382599592E-2,-7.582387924E-1,-4.118518829E-1,8.679581541E-1
2.044190610E1,5.118532777E-1,-8.978267908E-1,-1.025707245E0,1.456077634E0
2.046128476E1,6.981946826E-1,-1.068109989E0,-1.826634407E0,2.228211844E0
2.048066343E1,2.417027354E-1,-9.563893080E-1,-3.161807060E0,3.312117843E0
2.050004209E1,8.508864045E-2,-1.124758244E0,-4.116083145E0,4.267840395E0
2.051939023E1,8.602177501E-1,-8.077254295E-1,-4.906188965E0,5.046096026E0
2.053876889E1,1.328105688E0,8.827915192E-1,-5.860033989E0,6.073152718E0
2.055814756E1,1.417624712E0,2.023078442E0,-5.564517021E0,6.088214507E0
2.057749570E1,1.280609131E0,1.610386372E0,-3.982903481E0,4.482948154E0
2.059687436E1,8.770732880E-1,6.080864668E-1,-1.870903969E0,2.153905375E0
2.061625302E1,7.913520932E-1,3.301100731E-1,-1.170969009E-1,8.654030737E-1
2.063560117E1,7.786870003E-1,5.039409399E-1,6.888723373E-1,1.155359257E0
2.065497983E1,7.729780674E-1,6.740177870E-1,6.722507477E-1,1.226261040E0
2.067435849E1,8.095794320E-1,9.160265923E-1,3.800373077E-1,1.280215579E0
2.069370664E1,2.429735065E-1,9.344077110E-1,4.112710953E-1,1.049427372E0
2.071308530E1,-5.510435104E-1,8.405500650E-1,9.751996994E-1,1.400424156E0
2.073246396E1,-8.593175411E-1,4.525905848E-1,1.950275421E0,2.178724189E0
2.075184262E1,-7.831994295E-1,-7.688760757E-3,2.684897423E0,2.796807937E0
2.077122129E1,-6.633211970E-1,-2.363452911E-1,2.891248703E0,2.975764300E0
2.079059995E1,-6.074115038E-1,-3.157105446E-1,2.954497337E0,3.032767119E0
2.080997861E1,-6.446962357E-1,-2.497261763E-1,2.987677574E0,3.066629043E0
2.082932676E1,-5.235595703E-1,-2.220462561E-1,2.901523590E0,2.956731017E0
2.084870542E1,-1.945698261E-1,-4.098287821E-1,2.658611298E0,2.697041171E0
2.086811460E1,2.345619798E-1,-4.423213005E-1,2.163573265E0,2.220746885E0
2.088743222E1,6.047654152E-1,-6.426209211E-1,1.300509453E0,1.571632175E0
2.090681089E1,7.652974129E-1,-9.847377539E-1,3.146095276E-1,1.286222270E0
2.092618955E1,6.638337970E-1,-1.057408452E0,-1.139844894E0,1.690572189E0
2.094553769E1,3.571522236E-2,-5.746573210E-1,-2.912904739E0,2.969262642E0
2.096491635E1,-3.174902201E-1,-1.844098568E-1,-3.883549690E0,3.900867241E0
2.098429502E1,-3.156995773E-2,-2.905263901E-1,-3.928429604E0,3.939284376E0
2.100364316E1,4.192867875E-1,-1.350209594E0,-3.486954689E0,3.762674629E0
2.102302182E1,6.625518799E-1,-1.542675018E0,-3.064967155E0,3.494688093E0
2.104243100E1,1.563723683E-1,-4.711329937E-2,-3.783993721E0,3.787516397E0
2.106180967E1,-1.728343964E-2,1.720003247E0,-4.980857849E0,5.269502330E0
2.108115781E1,6.668035984E-1,1.902864814E0,-4.341759682E0,4.787107548E0
2.110053647E1,1.118858218E0,1.261391163E0,-2.198458672E0,2.770590534E0
2.111991513E1,7.834650874E-1,1.139106989E0,-1.938533783E-1,1.396052079E0
2.113926328E1,1.231944561E-1,1.202151537E0,6.795701981E-1,1.386420155E0
2.115864194E1,-5.358111858E-1,1.244621396E0,5.509166718E-1,1.462766292E0
2.117802060E1,-8.367741704E-1,1.435659051E0,3.287734985E-1,1.693930322E0
2.119736875E1,-7.505648136E-1,1.329496145E0,8.461961746E-1,1.745553066E0
2.121674741E1,-6.025075316E-1,8.053247929E-1,1.859737396E0,2.114281564E0
2.123612607E1,-5.416426659E-1,2.117102146E-1,2.853618622E0,2.912273550E0
2.125547422E1,-4.576920867E-1,-1.190177202E-1,3.521017075E0,3.552634023E0
2.127485288E1,-4.089393020E-1,-2.143274546E-1,3.477858543E0,3.508371083E0
2.129423154E1,-3.937940598E-1,-8.183431625E-2,3.148009300E0,3.173599403E0
2.131357968E1,-4.015181661E-1,-1.549693346E-1,2.917994499E0,2.949563396E0
2.133298886E1,-4.773043394E-1,-2.548689842E-1,2.608006477E0,2.663545648E0
2.135236753E1,-4.713034630E-1,-3.538956642E-1,2.019312859E0,2.103566856E0
2.137174619E1,-3.433852792E-1,-3.396109343E-1,1.206145287E0,1.299244199E0
2.139109433E1,-3.634523153E-1,-3.737342358E-1,4.835910797E-1,7.110803027E-1
2.141047300E1,-3.946707845E-1,-3.022588491E-1,9.481048584E-2,5.060775318E-1
2.142985166E1,-2.688440681E-1,-4.456170797E-1,-3.415899277E-1,6.225234079E-1
2.144919980E1,5.032622814E-2,-5.749481916E-1,-1.321250916E0,1.441805165E0
2.146857846E1,1.323288679E-1,-6.899963617E-1,-2.714468956E0,2.803916479E0
2.148795713E1,-5.871939659E-2,-7.324579954E-1,-3.737936020E0,3.809476128E0
2.150730527E1,-9.598487616E-2,-7.325842381E-1,-3.978916168E0,4.046932991E0
2.152668393E1,1.558172107E-1,-1.227108240E0,-3.605870247E0,3.812135081E0
2.154606260E1,7.163236141E-1,-1.641699195E0,-3.625979424E0,4.044257972E0
2.156541074E1,8.561288714E-1,-7.997634411E-1,-3.689166069E0,3.870726610E0
2.158478940E1,7.559624910E-1,1.001833320E0,-3.086676598E0,3.332074685E0
2.160416806E1,2.709766030E-1,1.892432809E0,-2.187109947E0,2.904854588E0
2.162354672E1,4.682821035E-2,1.309096336E0,-6.833534241E-1,1.477463367E0
2.164292539E1,8.500254154E-2,7.980290651E-1,5.905628204E-1,9.964137021E-1
2.166230405E1,1.473638415E-1,8.516234159E-1,9.523696899E-1,1.286074092E0
2.168168271E1,6.503875256E-1,1.048133373E0,1.188180923E0,1.712705873E0
2.170103086E1,1.141617060E0,9.736927748E-1,1.144691467E0,1.887242879E0
2.172040952E1,7.643218637E-1,1.137960553E0,5.727157593E-1,1.485646483E0
2.173978818E1,-7.900989056E-2,1.125848055E0,4.757442474E-1,1.224789367E0
2.175913632E1,-6.657325029E-1,5.820970535E-1,1.373902321E0,1.633904628E0
2.177851499E1,-7.289357781E-1,-8.190083504E-2,2.725194931E0,2.822187543E0
2.179789365E1,-4.512054324E-1,-4.899830818E-1,3.728372574E0,3.787404363E0
2.181724179E1,2.124457955E-1,-6.128253937E-1,3.933280945E0,3.986400277E0
2.183662046E1,3.938138485E-1,-4.805753231E-1,3.202694893E0,3.262406560E0
2.185599912E1,-4.695415497E-3,-2.322025299E-1,2.404735565E0,2.415924916E0
2.187534726E1,-4.507196546E-1,-9.007751942E-2,1.889682770E0,1.944778429E0
2.189475644E1,-3.922927976E-1,-1.159789562E-1,1.083362579E0,1.158023849E0
2.191413510E1,2.866894603E-1,-7.005876303E-1,4.657392502E-1,8.887783320E-1
2.193348325E1,5.884844661E-1,-1.150785446E0,-2.290058136E-2,1.292727948E0
2.195286191E1,4.088890553E-1,-1.319862723E0,-4.302568436E-1,1.447186519E0
2.197224057E1,2.770590782E-2,-1.029682159E0,-1.468839645E0,1.794018637E0
2.199161924E1,-2.842326164E-1,-7.456213236E-1,-2.413090706E0,2.541603056E0
2.201096738E1,3.844422102E-2,-8.754101992E-1,-3.014994621E0,3.139747369E0
2.203034604E1,7.740464807E-1,-1.070814490E0,-3.259612083E0,3.517223701E0
2.204975522E1,1.201571703E0,-1.010395169E0,-3.447850227E0,3.788448778E0
2.206907285E1,8.170466423E-1,4.004001617E-3,-4.101392746E0,4.181985617E0
2.208845151E1,-8.820044994E-2,1.536470652E0,-4.891816139E0,5.128195250E0
2.210783017E1,-5.031654239E-1,2.132376432E0,-4.874956131E0,5.344661072E0
2.212717832E1,-4.038429260E-1,1.652779341E0,-3.456385612E0,3.852449891E0
2.214655698E1,-4.270126820E-1,1.011022806E0,-1.192487717E0,1.620658477E0
2.216593564E1,-6.413838267E-1,6.475718021E-1,4.818401337E-1,1.030966715E0
2.218531430E1,-6.430450082E-1,9.579455853E-1,9.325151443E-1,1.483492879E0
2.220469297E1,-6.261826158E-1,1.407171249E0,6.478233337E-1,1.670901154E0
2.222407163E1,-4.930756092E-1,1.439798236E0,8.377285004E-1,1.737219490E0
2.224341977E1,-1.583024859E-1,1.065124750E0,1.910881042E0,2.193403011E0
2.226279843E1,-3.724050522E-2,4.460977316E-1,3.276906013E0,3.307340784E0
2.228217710E1,-4.315969944E-1,-2.153732777E-1,4.130270958E0,4.158340991E0
2.230155576E1,-1.060682535E0,-4.931185246E-1,4.140534401E0,4.302585089E0
2.232090390E1,-1.528292894E0,-3.840525150E-1,3.636817932E0,3.963536322E0
2.234028257E1,-1.570176363E0,-9.726524353E-2,2.752485275E0,3.170345333E0
2.235966123E1,-1.189989805E0,6.053507328E-2,1.782005310E0,2.143661157E0
2.237900937E1,-5.163677335E-1,7.329130173E-2,1.209691048E0,1.317330514E0
2.239838803E1,-1.196711659E-1,4.619061947E-2,1.165161133E0,1.172201018E0
2.241776670E1,1.052184701E-1,-2.266693115E-2,1.265552521E0,1.270121214E0
2.243711484E1,5.874919891E-2,-6.431376934E-2,1.157711029E0,1.160983444E0
2.245649350E1,-9.314483404E-2,-2.921178341E-1,6.824970245E-1,7.482051708E-1
2.247590268E1,-3.156632185E-2,-7.360579967E-1,2.254505157E-1,7.704581379E-1
2.249525083E1,1.700870991E-1,-9.502491951E-1,-2.999057770E-1,1.010864298E0
2.251462949E1,3.010199666E-1,-1.019391537E0,-1.229000092E0,1.624873334E0
2.253400815E1,2.231156826E-1,-1.016418695E0,-2.296528816E0,2.521295734E0
2.255335630E1,-3.901118040E-2,-8.422641754E-1,-3.288568497E0,3.394939406E0
2.257273496E1,-8.312314749E-2,-1.159619689E0,-3.980104446E0,4.146427219E0
2.259211362E1,7.670178413E-1,-1.190401435E0,-4.977498055E0,5.175022592E0
2.261149228E1,1.392913818E0,2.744864225E-1,-5.882953644E0,6.051834042E0
2.263084043E1,1.625656366E0,2.201371670E0,-5.281275749E0,5.948165212E0
2.265021909E1,1.525168896E0,2.239788532E0,-3.537607193E0,4.456170720E0
2.266959775E1,1.193648696E0,9.298259020E-1,-1.184044838E0,1.921284881E0
2.268894590E1,1.137302518E0,1.054435968E-1,7.023315430E-1,1.340837412E0
2.270832456E1,1.126536846E0,4.393053055E-1,1.168370247E0,1.681417096E0
2.272770322E1,1.034120560E0,1.101568818E0,1.027051926E0,1.826935919E0
2.274708188E1,8.770628572E-1,1.564266443E0,8.634500504E-1,1.990405675E0
2.276646054E1,4.559778571E-1,1.303524494E0,8.830261230E-1,1.639154370E0
2.278583921E1,-8.763581514E-2,6.998803616E-1,1.404527664E0,1.571690337E0
2.280518735E1,-1.589886546E-1,1.654580832E-1,2.230909348E0,2.242679265E0
2.282456601E1,-9.465783834E-2,-1.952390671E-1,3.017060280E0,3.024852250E0
2.284394468E1,-2.534705400E-2,-2.349545956E-1,3.607603073E0,3.615334849E0
2.286329282E1,-8.776926994E-2,1.284015179E-2,3.644879341E0,3.645958547E0
2.288267148E1,-1.587565541E-1,-6.055617332E-2,3.249825478E0,3.254264330E0
2.290205014E1,6.388860941E-2,-4.061143398E-1,2.651271820E0,2.682955996E0
2.292142880E1,2.329399586E-1,-6.128623486E-1,2.004334450E0,2.108842780E0
2.294077695E1,1.931933165E-1,-5.440138578E-1,1.255712509E0,1.382059565E0
2.296015561E1,2.302507758E-1,-5.005569458E-1,5.492906570E-1,7.780057208E-1
2.297953427E1,4.161320925E-1,-5.308589935E-1,-2.593507767E-1,7.226617568E-1
2.299888242E1,6.162305474E-1,-5.586737394E-1,-1.299514771E0,1.542917714E0
2.301826108E1,4.387043118E-1,-9.882736206E-2,-2.660717010E0,2.698452025E0
2.303763974E1,3.213740587E-1,2.361582518E-1,-3.347371101E0,3.371045134E0
2.305701840E1,8.286184072E-1,-4.180209637E-1,-3.144742966E0,3.278834901E0
2.307639707E1,1.286740780E0,-1.469592094E0,-2.962173462E0,3.548221298E0
2.309577573E1,1.379410028E0,-1.030656099E0,-3.048885345E0,3.501531932E0
2.311512387E1,6.009424329E-1,9.928629398E-1,-4.030501366E0,4.194263926E0
2.313450254E1,-1.013387442E-1,1.855388403E0,-4.573195457E0,4.936279202E0
2.315388120E1,-2.185218334E-1,1.122731924E0,-3.592074394E0,3.769784771E0
2.317322934E1,-5.305458903E-1,3.645157814E-1,-1.535752296E0,1.665198430E0
2.319260800E1,-9.708674550E-1,5.845069885E-2,-3.856515884E-1,1.046292142E0
2.321198667E1,-9.228046536E-1,4.214758873E-1,-2.389526367E-2,1.014781423E0
2.323133481E1,-6.376472116E-1,1.194540858E0,4.269218445E-2,1.354748852E0
2.325071347E1,-3.934932947E-1,1.716217279E0,1.831426620E-1,1.770248558E0
2.327009214E1,-1.012983322E-1,1.396585584E0,8.989381790E-1,1.663971903E0
2.328947080E1,1.678767204E-1,7.028007507E-1,2.200767517E0,2.316352554E0
2.330881894E1,9.319257736E-2,2.296526432E-1,3.093640327E0,3.103552105E0
2.332822812E1,-1.447917223E-1,-7.503926754E-2,3.527426720E0,3.531194528E0
2.334760678E1,-2.831412554E-1,-2.332999706E-1,3.671334267E0,3.689619648E0
2.336695493E1,-3.469882011E-1,-1.266824007E-1,3.524326324E0,3.543631652E0
2.338633359E1,-3.844240904E-1,-4.042315483E-2,3.179723740E0,3.203132681E0
2.340571225E1,-4.349498749E-1,-1.690906286E-1,2.608979225E0,2.650385940E0
2.342506040E1,-4.479497671E-1,-3.197309971E-1,1.873152733E0,1.952328882E0
2.344443906E1,-4.503422976E-1,-2.641035318E-1,1.385200500E0,1.480317293E0
2.346381772E1,-4.283801317E-1,-2.075886726E-1,7.965526581E-1,9.279540567E-1
2.348316587E1,-3.115296364E-1,-4.585714340E-1,2.643651962E-1,6.141884332E-1
2.350254453E1,-1.176048517E-1,-7.442501783E-1,3.923988342E-2,7.545057969E-1
2.352192319E1,1.147230864E-1,-8.986984491E-1,-4.459695816E-1,1.009806495E0
2.354127134E1,3.005673885E-1,-1.080427289E0,-1.335432053E0,1.743858552E0
2.356065000E1,2.362099886E-1,-1.401297927E0,-2.078224182E0,2.517627214E0
2.358002866E1,-2.940535545E-2,-1.451195598E0,-2.778019905E0,3.134362444E0
2.359940732E1,-4.707194567E-1,-1.925195694E0,-3.295023918E0,3.845144716E0
2.361878598E1,-2.203683853E-1,-2.556495905E0,-3.817008972E0,4.599325063E0
2.363816464E1,5.371241570E-1,-1.250351429E0,-4.462350845E0,4.665239128E0
2.365754331E1,8.756697178E-1,1.202228904E0,-4.508776665E0,4.747759346E0
2.367689145E1,6.099828482E-1,2.530422688E0,-3.657163620E0,4.488871105E0
2.369627011E1,-2.536666393E-2,1.966148257E0,-1.947848320E0,2.767760018E0
2.371564878E1,-5.496101379E-1,1.287925959E0,-3.931875229E-1,1.454448695E0
2.373499692E1,-4.571615458E-1,1.112792373E0,3.159790039E-1,1.243843348E0
2.375437558E1,4.364836216E-2,1.175447345E0,1.421270370E-1,1.184812953E0
2.377375425E1,2.474017143E-1,1.174572825E0,-1.337680817E-1,1.207775985E0
2.379310239E1,5.136561394E-2,9.934576750E-1,2.643013000E-1,1.029296729E0
2.381248105E1,-3.033305407E-1,5.268748999E-1,1.224727631E0,1.367320133E0
2.383185971E1,-4.650366306E-1,-1.240458488E-1,2.308800697E0,2.358433188E0
2.385120786E1,-6.156017780E-1,-6.257513762E-1,3.005267143E0,3.130840292E0
2.387058652E1,-6.718651056E-1,-7.437611818E-1,3.120594978E0,3.277605290E0
2.388996518E1,-6.497178078E-1,-5.267767906E-1,2.949228287E0,3.065546363E0
2.390937436E1,-6.938488483E-1,-2.622188330E-1,2.880110741E0,2.974091932E0
2.392872251E1,-5.361403227E-1,-2.946746349E-1,2.835565567E0,2.900812243E0
2.394810117E1,-2.978993654E-1,-4.409517050E-1,2.479798317E0,2.536253562E0
2.396747983E1,2.786648273E-2,-7.011367083E-1,1.750549316E0,1.885945952E0
2.398682798E1,2.806807756E-1,-8.516670465E-1,8.912153244E-1,1.264271810E0
2.400620664E1,2.236644030E-1,-6.381160021E-1,1.040534973E-1,6.841380910E-1
2.402558530E1,1.176047325E-1,-2.623933554E-1,-3.738536835E-1,4.716436395E-1
2.404493344E1,8.174383640E-2,1.104228497E-1,-9.031877518E-1,9.135772411E-1
2.406431211E1,-9.949022532E-2,4.225181341E-1,-1.788840294E0,1.840752421E0
2.408369077E1,4.237997532E-2,4.905430079E-1,-2.246812820E0,2.300129639E0
2.410303891E1,6.950673461E-1,-2.275216579E-1,-2.051924706E0,2.178366296E0
2.412241758E1,1.122921705E0,-1.415140390E0,-1.736308098E0,2.505661847E0
2.414179624E1,6.233972311E-1,-1.812414289E0,-2.137154579E0,2.870696667E0
2.416114438E1,-6.835592985E-1,-1.504133940E-1,-3.500456810E0,3.569744442E0
2.418052304E1,-1.444062591E0,1.588377833E0,-4.582139969E0,5.060065968E0
2.419993222E1,-7.456344962E-1,1.550873876E0,-4.202111244E0,4.540806040E0
2.421931089E1,7.593570948E-1,7.796831131E-1,-2.364560127E0,2.603012399E0
2.423865903E1,1.141665459E0,4.515885115E-1,-6.932859421E-1,1.409956595E0
2.425803769E1,1.965458393E-1,1.000937343E0,-2.848434448E-2,1.020449503E0
2.427741635E1,-3.685114384E-1,1.307422161E0,-2.326517105E-1,1.378143754E0
2.429676450E1,-3.449910283E-1,1.143995881E0,-8.357524872E-2,1.197802241E0
2.431614316E1,-2.114959359E-1,6.055639982E-1,6.602220535E-1,9.205060819E-1
2.433552182E1,-1.038328409E-1,2.601439953E-1,1.611053467E0,1.635221523E0
2.435486997E1,-2.807266712E-1,8.928346634E-2,2.296846390E0,2.315660238E0
2.437424863E1,-4.492105246E-1,-6.806683540E-2,2.893115044E0,2.928572663E0
2.439362729E1,-4.536403418E-1,-3.429189920E-1,3.443840981E0,3.490476141E0
2.441297544E1,-3.621951342E-1,-3.579301834E-1,3.702899933E0,3.737748954E0
2.443235410E1,-2.342219353E-1,-2.666867971E-1,3.452809334E0,3.471004762E0
2.445173276E1,-1.037818193E-1,-8.359479904E-2,2.840945244E0,2.844069028E0
2.447111142E1,-8.695721626E-2,-9.913194180E-2,2.182737350E0,2.186716955E0
2.449049008E1,-1.910884380E-1,-3.997781277E-1,1.742866516E0,1.798310606E0
2.450986875E1,-3.537241817E-1,-6.428335905E-1,1.188001633E0,1.396317908E0
2.452924741E1,-2.658618093E-1,-8.665095568E-1,3.738946915E-1,9.804685379E-1
2.454859555E1,2.650284767E-2,-1.046197295E0,-3.738241196E-1,1.111294585E0
2.456797422E1,3.220428824E-1,-1.104108930E0,-1.000580788E0,1.524444180E0
2.458735288E1,3.067302108E-1,-1.224750161E0,-1.087171555E0,1.666144762E0
2.460670102E1,-4.933732748E-2,-1.304380417E0,-1.684082031E0,2.130721646E0
2.462607968E1,-3.831371665E-1,-1.334381938E0,-2.562586784E0,2.914484564E0
2.464545835E1,-2.745604515E-2,-1.155894756E0,-3.895174026E0,4.063154836E0
2.466480649E1,6.398482919E-1,1.853265762E-1,-5.073128700E0,5.116677299E0
2.468418515E1,1.290209770E0,1.862432241E0,-4.835215569E0,5.339719534E0
2.470356382E1,1.377529144E0,2.339697838E0,-3.501123428E0,4.430534705E0
2.472291196E1,1.217689037E0,1.704538822E0,-2.372707367E0,3.165116023E0
2.474229062E1,9.020712376E-1,1.336881638E0,-1.694633484E0,2.339394724E0
2.476169980E1,5.812563300E-1,1.337472200E0,-1.245195389E0,1.917603286E0
2.478104795E1,4.910026193E-1,1.105428934E0,-8.709535599E-1,1.490508908E0
2.480042661E1,3.784630299E-1,7.644131184E-1,-1.234722137E-1,8.618625575E-1
2.481980527E1,4.163926840E-2,4.423906803E-1,8.616333008E-1,9.694613389E-1
2.483915342E1,-3.054575324E-1,3.622376919E-2,1.784073830E0,1.810396613E0
2.485853208E1,-5.793173313E-1,-3.089296818E-1,2.550101280E0,2.633260841E0
2.487791074E1,-6.956229806E-1,-3.075839281E-1,3.059247971E0,3.152379633E0
2.489728940E1,-5.983222723E-1,-2.811967134E-1,3.332308769E0,3.397255196E0
2.491663755E1,-7.977402210E-2,-1.716843843E-1,3.168811798E0,3.174461787E0
2.493601621E1,2.513600588E-1,-1.661351919E-1,2.813776970E0,2.829862827E0
2.495539487E1,3.624241948E-1,-1.907905340E-1,2.470108032E0,2.503834263E0
2.497474301E1,3.586043119E-1,-3.453962803E-1,2.170260429E0,2.226640064E0
2.499412168E1,3.182157874E-1,-6.891553402E-1,1.900405884E0,2.046396563E0
2.501350034E1,1.953869462E-1,-1.008830667E0,1.419375420E0,1.752296195E0
2.503284848E1,2.796781063E-2,-1.030145526E0,6.723575592E-1,1.230466046E0
2.505225766E1,-9.097892046E-2,-9.312586784E-1,-2.508535385E-1,9.687349420E-1
2.507163632E1,1.248025298E-1,-6.404385567E-1,-1.707916260E0,1.828309374E0
2.509098447E1,3.271446228E-1,-4.381874800E-1,-3.238552094E0,3.284395155E0
2.511036313E1,3.451588750E-1,-7.053729296E-1,-3.745903015E0,3.827332624E0
2.512974179E1,2.747781277E-1,-1.421894073E0,-3.232725143E0,3.542287062E0
2.514908994E1,3.389667869E-1,-2.115752697E0,-2.855560303E0,3.570088598E0
2.516846860E1,1.260968298E-1,-1.174646139E0,-3.163619995E0,3.377008356E0
2.518784726E1,-9.080886245E-1,8.526676893E-1,-3.417652130E0,3.637583431E0
2.520722593E1,-1.309642792E0,1.655190229E0,-3.452732086E0,4.046749040E0
2.522657407E1,-7.934658527E-1,1.503855705E0,-2.513573647E0,3.034670084E0
2.524595273E1,-4.332624674E-1,1.267465234E0,-1.208687782E0,1.804192517E0
2.526533139E1,-8.578800559E-1,1.001370072E0,-6.168022156E-1,1.455728404E0
2.528467954E1,-1.125305176E0,1.015104890E0,-4.375095367E-1,1.577391604E0
2.530405820E1,-7.525058985E-1,1.205790043E0,-4.733295441E-1,1.498077305E0
2.532343686E1,-7.693424821E-2,1.310887694E0,-3.000268936E-1,1.346982391E0
2.534281552E1,3.575262129E-1,9.586632252E-1,5.214185715E-1,1.148362965E0
2.536219419E1,3.018960953E-1,3.066974878E-1,2.046532631E0,2.091291565E0
2.538157285E1,-1.582548022E-1,-2.260693312E-1,3.167797089E0,3.179794069E0
2.540092099E1,-4.599129558E-1,-5.031373501E-1,3.497059822E0,3.562877281E0
2.542029966E1,-4.603423476E-1,-5.084284544E-1,3.219566345E0,3.291811359E0
2.543967832E1,-2.700890303E-1,-4.064059258E-1,2.771798134E0,2.814423343E0
2.545902646E1,-1.640885472E-1,-2.125467062E-1,2.546397209E0,2.560515554E0
2.547840512E1,-8.904701471E-2,1.926743984E-2,2.285216331E0,2.287031763E0
2.549778379E1,-2.559423447E-4,-3.286898136E-2,2.192741394E0,2.192987747E0
2.551716245E1,-9.056925774E-4,-2.935017347E-1,2.093637466E0,2.114110198E0
2.553651059E1,-1.161492467E-1,-6.412341595E-1,1.807021141E0,1.920936568E0
2.555588926E1,-4.951334000E-2,-8.879172802E-1,1.248377800E0,1.532741269E0
2.557526792E1,3.384324908E-1,-6.938874722E-1,2.433118820E-1,8.094547837E-1
2.559461606E1,6.855459213E-1,-7.126114368E-1,-1.062512398E0,1.451454741E0
2.561402524E1,5.710746646E-1,-6.469687223E-1,-2.103802681E0,2.273913042E0
2.563340390E1,2.118417621E-1,-5.148289204E-1,-3.066449165E0,3.116574439E0
2.565275205E1,1.897118688E-1,-1.076562524E0,-4.030963898E0,4.176559278E0
2.567213071E1,8.318942189E-1,-7.386003733E-1,-5.590703011E0,5.700310400E0
2.569150937E1,1.432046890E0,1.094523907E0,-6.687274933E0,6.925921376E0
2.571085752E1,1.453511477E0,2.518795729E0,-5.563978195E0,6.278127180E0
2.573023618E1,1.175624609E0,2.149380922E0,-4.003911018E0,4.693957287E0
2.574961484E1,7.145723104E-1,1.559063554E0,-2.519623756E0,3.047916768E0
2.576896298E1,4.507395625E-1,1.447686911E0,-1.354758263E0,2.033306050E0
2.578834165E1,3.567362428E-1,1.124428868E0,-6.587963104E-1,1.351152695E0
2.580772031E1,3.874054551E-1,9.810291529E-1,1.351060867E-1,1.063369569E0
2.582709897E1,3.699997663E-1,1.109677911E0,9.887351990E-1,1.531627300E0
2.584644712E1,2.430140972E-2,8.136013746E-1,1.758248329E0,1.937517727E0
2.586582578E1,-4.023282528E-1,3.412150145E-1,2.654747009E0,2.706654280E0
2.588520444E1,-8.018534184E-1,-2.103185654E-2,3.205316544E0,3.304158802E0
2.590458310E1,-1.016933918E0,-1.253665686E-1,3.244528770E0,3.402475321E0
2.592396176E1,-1.007585168E0,-6.582152843E-2,3.115561485E0,3.275100565E0
2.594334043E1,-6.101117134E-1,3.172230721E-2,2.950239182E0,3.012831531E0
2.596268857E1,-2.824939489E-1,-7.841575146E-2,2.713923454E0,2.729712874E0
2.598206723E1,-6.302177906E-3,-4.003034830E-1,2.458115578E0,2.490504927E0
2.600144590E1,1.387580633E-1,-7.094674110E-1,2.085791588E0,2.207515426E0
2.602079404E1,1.736615300E-1,-8.710975647E-1,1.509361267E0,1.751325421E0
2.604017270E1,1.336516142E-1,-9.651490450E-1,1.133885384E0,1.495015550E0
2.605955136E1,1.566439867E-1,-1.024827480E0,4.884204865E-1,1.146020626E0
2.607889951E1,2.184280157E-1,-9.005013704E-1,-7.591552734E-1,1.197885740E0
2.609827817E1,3.110063076E-2,-5.227732658E-1,-2.004096985E0,2.071391769E0
2.611765683E1,-2.365654707E-2,-2.888921499E-1,-2.912742615E0,2.927129626E0
2.613700498E1,5.151554346E-1,-6.375005245E-1,-3.226376534E0,3.328858299E0
2.615638364E1,7.838627100E-1,-1.427541256E0,-3.292494774E0,3.673259672E0
2.617576230E1,7.825997472E-1,-1.871861935E0,-3.265162468E0,3.844166413E0
2.619517148E1,5.056852102E-2,-6.496307850E-1,-3.250879288E0,3.315538188E0
2.621451963E1,-1.127006769E0,1.073683858E0,-3.125388145E0,3.491560159E0
2.623389829E1,-1.190484881E0,1.392637610E0,-2.748231888E0,3.302949027E0
2.625327695E1,-6.428794861E-1,9.715945721E-1,-1.653793335E0,2.022948947E0
2.627262510E1,-4.999763966E-1,1.051918387E0,-8.168783188E-1,1.422602853E0
2.629200376E1,-8.641734123E-1,1.413645506E0,-4.321126938E-1,1.712282302E0
2.631138242E1,-7.761399150E-1,1.583230495E0,-6.815032959E-1,1.890359413E0
2.633073056E1,-4.531742334E-1,1.653770328E0,-7.101039886E-1,1.855955510E0
2.635012346E1,-1.403818727E-1,1.383646011E0,-3.996562958E-2,1.391323329E0
2.636950212E1,4.212939739E-2,6.431736946E-1,1.330190659E0,1.478125325E0
2.638885027E1,6.949907541E-2,-2.016165257E-1,2.764755249E0,2.772967892E0
2.640822893E1,4.768413305E-2,-7.647043467E-1,3.548547745E0,3.630321971E0
2.642760759E1,-1.455373764E-1,-8.139482737E-1,3.465204239E0,3.562489767E0
2.644695574E1,-4.895628691E-1,-7.772914767E-1,3.156398773E0,3.287355633E0
2.646633440E1,-5.146535039E-1,-6.401226521E-1,2.936435699E0,3.049144119E0
2.648574358E1,-1.441026926E-1,-5.242151618E-1,2.685942650E0,2.740411473E0
2.650509172E1,2.406823635E-1,-6.193190217E-1,2.148119926E0,2.248533582E0
2.652447038E1,1.876499057E-1,-6.524869800E-1,1.364385605E0,1.523975008E0
2.654384904E1,-1.314113140E-1,-4.372552633E-1,5.942049026E-1,7.493601037E-1
2.656322771E1,-5.350025296E-1,-2.697190046E-1,3.070259094E-2,5.999322439E-1
2.658257585E1,-8.477875590E-1,-3.783518076E-1,-1.540184021E-1,9.410714658E-1
2.660195451E1,-5.212630630E-1,-7.629638910E-1,-1.693143845E-1,9.394128169E-1
2.662133318E1,-1.956627965E-1,-1.184243798E0,-3.320293427E-1,1.245375762E0
2.664068132E1,-2.302288413E-1,-1.409393549E0,-1.002056122E0,1.744566412E0
2.666005998E1,-5.074190497E-1,-1.240963340E0,-2.255805969E0,2.624142655E0
2.667943864E1,-4.876590371E-1,-1.457594514E0,-3.373541832E0,3.707179197E0
2.669878679E1,3.375008702E-1,-1.364212990E0,-4.321646690E0,4.544404695E0
2.671816545E1,1.024800777E0,1.951707602E-1,-5.156815529E0,5.261278804E0
2.673754411E1,1.197654009E0,2.070327520E0,-4.496686935E0,5.093213579E0
2.675692278E1,6.805579662E-1,2.884052277E0,-3.073208809E0,4.269136805E0
2.677633196E1,5.428761244E-1,2.031985044E0,-1.901752472E0,2.835549360E0
2.679568010E1,7.034164667E-1,1.813580513E0,-1.375530243E0,2.382425750E0
2.681502824E1,7.679821253E-1,1.651485920E0,-1.654400826E0,2.460537417E0
2.683440691E1,9.091015458E-1,1.287468195E0,-1.671782494E0,2.297584967E0
2.685378557E1,9.729618430E-1,9.172336459E-1,-9.411163330E-1,1.635136771E0
2.687316423E1,5.335052013E-1,5.544773936E-1,7.133293152E-2,7.727621672E-1
2.689251238E1,-2.991271019E-2,1.557327509E-1,1.177467346E0,1.188097981E0
2.691189104E1,-4.631341696E-1,-8.946239948E-2,2.246472359E0,2.295459614E0
2.693126970E1,-7.327114344E-1,-2.717826962E-1,3.165414810E0,3.260457453E0
2.695061784E1,-9.083868265E-1,-3.108851910E-1,3.740678787E0,3.861928795E0
2.696999651E1,-7.798108459E-1,-1.266099215E-1,3.856464386E0,3.936553389E0
2.698937517E1,-3.880096674E-1,-2.883672714E-3,3.528967857E0,3.550235761E0
2.700875383E1,-2.477065921E-1,-3.281241655E-1,2.960462570E0,2.988873141E0
2.702810198E1,-1.718447804E-1,-4.138236046E-1,2.522608757E0,2.562095928E0
2.704751116E1,5.259221792E-2,-7.268928289E-1,2.257245064E0,2.371981114E0
2.706685930E1,2.287373543E-1,-9.085992575E-1,1.709799767E0,1.949689367E0
2.708623796E1,4.985600710E-2,-1.036770940E0,7.616472244E-1,1.287433920E0
2.710561662E1,-2.324663401E-1,-1.048403502E0,-3.555755615E-1,1.131204880E0
2.712496477E1,-4.514448047E-1,-9.311053753E-1,-1.204729080E0,1.588122095E0
2.714434343E1,-5.097949505E-1,-4.338929653E-1,-1.729652405E0,1.854683649E0
2.716372209E1,-1.410078406E-1,-6.452783346E-1,-2.130803108E0,2.230827027E0
2.718310075E1,2.120928168E-1,-1.168822169E0,-3.073826790E0,3.295381580E0
2.720244890E1,4.996937513E-1,-1.082130313E0,-4.458289146E0,4.614871826E0
2.722182756E1,3.026187420E-1,4.203470945E-1,-5.615185738E0,5.639023023E0
2.724120622E1,-1.052750349E-1,1.644428015E0,-5.632141113E0,5.868239928E0
2.726055437E1,-3.676693439E-1,2.041180134E0,-4.870016098E0,5.293264955E0
2.727993303E1,-5.459960699E-1,1.795516133E0,-3.396977425E0,3.880907821E0
2.729931169E1,-6.491079330E-1,1.394013405E0,-1.351462364E0,2.047209077E0
2.731865984E1,-7.182676792E-1,1.213411808E0,3.321647644E-3,1.410066562E0
2.733806902E1,-6.203495264E-1,1.172587514E0,3.513240814E-1,1.372305951E0
2.735744768E1,-4.527871609E-1,1.319500685E0,1.037484169E0,1.738525718E0
2.737679582E1,-5.498516560E-2,1.130252481E0,2.287515640E0,2.552101456E0
2.739617449E1,-1.802468300E-2,5.746446848E-1,3.320102692E0,3.369513806E0
2.741555315E1,-5.388610363E-1,2.020013332E-1,3.705106735E0,3.749532194E0
2.743490129E1,-1.106635332E0,9.288883209E-2,3.725489616E0,3.887485431E0
2.745427995E1,-1.223651528E0,-1.292153597E-1,3.674008369E0,3.874578322E0
2.747365862E1,-1.089970350E0,-2.162213326E-1,3.707801819E0,3.870733956E0
2.749300676E1,-6.879738569E-1,-2.683520317E-2,3.313351631E0,3.384128719E0
2.751238542E1,-4.709886909E-1,2.234247923E-1,2.263861656E0,2.323105375E0
2.753176408E1,-4.038723111E-1,2.102223635E-1,1.149650574E0,1.236528498E0
2.755111223E1,-3.132353425E-1,1.022819281E-1,1.144466400E-1,3.488208796E-1
2.757049089E1,-3.118889928E-1,-1.278972626E-2,-6.054725647E-1,6.812014001E-1
2.758986955E1,-2.714924216E-1,-2.260004282E-1,-6.512994766E-1,7.409286989E-1
2.760924822E1,-4.603111744E-2,-5.936359167E-1,-5.941257477E-1,8.411348699E-1
2.762862688E1,1.685437560E-1,-9.037266970E-1,-7.002887726E-1,1.155652762E0
2.764800554E1,2.728436589E-1,-1.143670559E0,-1.031879425E0,1.564353271E0
2.766738420E1,1.339277029E-1,-1.184419155E0,-1.389039040E0,1.830359205E0
2.768673235E1,-2.369281650E-1,-9.903588295E-1,-1.982000351E0,2.228288796E0
2.770611101E1,-3.565502167E-1,-1.307476044E0,-2.648129463E0,2.974762397E0
2.772548967E1,-4.083442688E-2,-1.375200152E0,-3.616745949E0,3.869585788E0
2.774483782E1,1.685461104E-1,2.562923431E-1,-5.419116020E0,5.427790710E0
2.776421648E1,5.612845421E-1,1.656967640E0,-6.294902802E0,6.533481719E0
2.778359514E1,8.134520054E-1,2.062891483E0,-5.345823288E0,5.787490999E0
2.780294328E1,8.287789822E-1,1.118173599E0,-2.912291527E0,3.227790070E0
2.782232195E1,8.455326557E-1,3.408402205E-1,-4.335632324E-1,1.009492251E0
2.784170061E1,9.343048930E-1,4.403051138E-1,8.647966385E-1,1.347095933E0
2.786107927E1,6.994882822E-1,8.951896429E-1,9.979734421E-1,1.512150569E0
2.788042741E1,5.191794038E-1,1.320178986E0,5.966386795E-1,1.538959883E0
2.789980608E1,3.571926355E-1,1.462486267E0,4.961814880E-1,1.585133663E0
2.791921526E1,1.692615747E-1,1.292850256E0,1.157953262E0,1.743836868E0
2.793856340E1,3.859102726E-2,8.449970484E-1,2.309029579E0,2.459090661E0
2.795797258E1,-7.175838947E-2,3.404488564E-1,3.204952240E0,3.223782491E0
2.797732073E1,-2.259379625E-2,-9.720087051E-3,3.647210121E0,3.647293055E0
2.799666887E1,1.716689467E-1,-5.324435234E-2,3.367642403E0,3.372435402E0
2.801604753E1,3.581466675E-1,5.562067032E-3,2.708767891E0,2.732347609E0
2.803542619E1,4.301470518E-1,-1.186027527E-1,2.206042290E0,2.250714483E0
2.805477434E1,3.787118793E-1,-5.620166063E-1,1.965001106E0,2.078584783E0
2.807415300E1,4.051015377E-1,-1.010079265E0,1.292511940E0,1.689661058E0
2.809353166E1,4.070827961E-1,-1.112728477E0,2.546882629E-2,1.185128570E0
2.811287981E1,3.579076529E-1,-1.263500333E0,-7.024812698E-1,1.489298799E0
2.813225847E1,1.692478061E-1,-1.426514745E0,-7.168006897E-1,1.605425914E0
2.815163713E1,2.666306496E-1,-1.399620414E0,-6.403465271E-1,1.562073264E0
2.817098528E1,2.718490064E-1,-1.120384097E0,-1.248868942E0,1.699657625E0
2.819039446E1,8.150931597E-1,-1.001005411E0,-1.956042290E0,2.343606224E0
2.820977312E1,1.722530961E0,-1.157181740E0,-2.370851517E0,3.150733154E0
2.822915178E1,1.710412383E0,-1.561245680E0,-2.408408165E0,3.341171723E0
2.824849992E1,6.526535749E-1,-1.363010287E0,-2.639629364E0,3.041610907E0
2.826787859E1,-5.186469555E-1,-2.347388268E-1,-3.354907990E0,3.402867115E0
2.828725725E1,-1.083546638E0,1.262235522E0,-3.623462677E0,3.987078329E0
2.830660539E1,-6.462523937E-1,1.932847023E0,-2.810282707E0,3.471487961E0
2.832598406E1,1.011935771E-1,1.545865297E0,-1.155342102E0,1.932551430E0
2.834536272E1,3.751663268E-1,1.003407121E0,5.408315659E-1,1.200031002E0
2.836471086E1,-8.641293645E-2,9.194195271E-1,1.132635117E0,1.461390355E0
2.838408952E1,-6.316359043E-1,1.184671164E0,5.229225159E-1,1.440783689E0
2.840346819E1,-4.471909106E-1,1.323538542E0,-3.847980499E-2,1.397574570E0
2.842281633E1,1.644857824E-1,1.430049658E0,-1.326990128E-1,1.445581760E0
2.844219499E1,5.543876886E-1,1.247338057E0,5.128650665E-1,1.458159289E0
2.846157366E1,5.448346138E-1,7.512025833E-1,1.339838028E0,1.629820855E0
2.848095232E1,1.001051068E-1,2.827663422E-1,2.146771431E0,2.167626678E0
2.850033098E1,-2.364993691E-1,-2.505064011E-1,2.932285309E0,2.952453648E0
2.851970964E1,-3.031446934E-1,-4.484766722E-1,3.336267471E0,3.379897731E0
2.853908830E1,-2.111945748E-1,-4.610905647E-1,2.998653412E0,3.041238225E0
2.855843645E1,5.105715990E-2,-3.226512671E-1,2.377602577E0,2.399938476E0
2.857781511E1,2.568674684E-1,-1.302785873E-1,1.761460304E0,1.784851761E0
2.859719377E1,2.654569745E-1,-1.051181555E-1,1.204690933E0,1.238061984E0
2.861654192E1,1.736088395E-1,-3.596652746E-1,9.989194870E-1,1.075797044E0
2.863592058E1,-6.707280874E-2,-9.958981276E-1,1.071846008E0,1.464638422E0
2.865529924E1,-2.258972526E-1,-1.542320013E0,9.858560562E-1,1.844367847E0
2.867464738E1,-1.543824971E-1,-1.510242581E0,1.696319580E-1,1.527560673E0
2.869402605E1,3.283202648E-2,-9.977008104E-1,-1.299633026E0,1.638758936E0
2.871340471E1,-1.782903075E-2,-4.728869200E-1,-2.542282104E0,2.585950157E0
2.873275285E1,-2.441443503E-1,-4.633463621E-1,-2.986799240E0,3.032369703E0
2.875213152E1,-6.463811398E-1,-1.137640119E0,-2.912118912E0,3.192564827E0
2.877154070E1,-3.243128061E-1,-2.034148932E0,-2.800816536E0,3.476710218E0
2.879088884E1,5.448513031E-1,-1.623441577E0,-3.644797325E0,4.027030300E0
2.881026750E1,1.166829348E0,4.664973021E-1,-4.721685410E0,4.886043754E0
2.882964616E1,1.312412858E0,2.334213257E0,-4.173527718E0,4.958761201E0
2.884899431E1,4.461311102E-1,2.639907598E0,-2.523979187E0,3.679485838E0
2.886837297E1,-4.947634339E-1,1.611122370E0,-7.615118027E-1,1.849434068E0
2.888775163E1,-7.904622555E-1,1.018802524E0,3.766279221E-1,1.343368062E0
2.890713030E1,-4.817674756E-1,7.013235092E-1,7.411947250E-1,1.128416672E0
2.892647844E1,-2.777445316E-2,6.797332764E-1,2.367591858E-1,7.203219137E-1
2.894585710E1,1.375329494E-1,1.154038429E0,5.559158325E-2,1.163533598E0
2.896523576E1,6.610205770E-2,1.264610291E0,4.250240326E-1,1.335759745E0
2.898458391E1,1.036763489E-1,7.120027542E-1,1.169911385E0,1.373458902E0
2.900396257E1,-1.256107986E-1,-8.913397789E-3,2.322682381E0,2.326093498E0
2.902334123E1,-3.044139445E-1,-5.189062357E-1,3.129753113E0,3.187049745E0
2.904271990E1,-3.240292668E-1,-6.233526468E-1,3.355708122E0,3.428460367E0
2.906209856E1,-1.028072536E-1,-2.141978741E-1,2.779312134E0,2.789449049E0
2.908147722E1,6.771573424E-2,1.804100275E-1,1.995416641E0,2.004699671E0
2.910082536E1,1.969307959E-1,9.754848480E-2,1.950709343E0,1.963049767E0
2.912020403E1,1.098506749E-1,-3.089641333E-1,2.327976227E0,2.350957107E0
2.913961321E1,2.990955114E-2,-8.150041103E-1,2.622159004E0,2.746059745E0
2.915893083E1,6.080910563E-2,-1.133180380E0,2.334229469E0,2.595461950E0
2.917830950E1,4.960325360E-2,-1.164258838E0,1.376433372E0,1.803476629E0
2.919768816E1,2.309393883E-2,-8.624099493E-1,-2.012634277E-2,8.629538344E-1
2.921703630E1,-7.239818573E-3,-3.591362238E-1,-1.472695351E0,1.515870324E0
2.923641496E1,8.138105273E-2,-8.212471008E-2,-2.750532150E0,2.752961034E0
2.925579363E1,5.968631506E-1,-5.416746140E-1,-3.550322533E0,3.640665749E0
2.927517229E1,9.185091257E-1,-1.361876845E0,-4.077841759E0,4.396266708E0
2.929452043E1,7.956234813E-1,-1.164507866E0,-4.703112602E0,4.910026827E0
2.931389909E1,2.007188201E-1,5.446875095E-1,-5.435409546E0,5.466319553E0
2.933327776E1,-2.302675545E-1,1.429685354E0,-5.762821198E0,5.941980437E0
2.935265642E1,-5.764946342E-1,1.215272188E0,-4.915110588E0,5.095836011E0
2.937203508E1,-1.218837380E0,9.927039146E-1,-2.866582870E0,3.269300074E0
2.939141374E1,-1.604030132E0,8.783371449E-1,-7.683973312E-1,1.983638895E0
2.941076189E1,-1.433423758E0,8.153879642E-1,6.469297409E-1,1.771462472E0
2.943014055E1,-8.440802097E-1,8.659182787E-1,1.248310089E0,1.737976969E0
2.944951921E1,-5.205415487E-1,1.264161348E0,1.436124802E0,1.982806563E0
2.946886736E1,-2.762683332E-1,1.423152804E0,1.721550941E0,2.250650071E0
2.948824602E1,-1.112479270E-1,1.055020928E0,2.366416931E0,2.593332673E0
2.950762468E1,-1.347986460E-1,3.987942934E-1,3.047527313E0,3.076463926E0
2.952697282E1,-1.523415446E-1,-6.560671329E-2,3.584455490E0,3.588291146E0
2.954635149E1,-8.749163151E-2,-1.494866610E-1,3.419965744E0,3.424349097E0
2.956573015E1,-4.169187546E-1,-4.189014435E-4,2.737878799E0,2.769440692E0
2.958510881E1,-6.161564589E-1,8.534252644E-2,2.235814095E0,2.320731952E0
2.960445696E1,-4.340968132E-1,-6.097257137E-2,1.987723351E0,2.035485646E0
2.962386614E1,-1.904515028E-1,-2.431843281E-1,1.821458817E0,1.847463833E0
2.964324480E1,-1.448924541E-1,-4.462171793E-1,1.495538712E0,1.567399002E0
2.966259294E1,-2.767415941E-1,-6.258440018E-1,1.275480270E0,1.447451742E0
2.968197160E1,-3.520953953E-1,-8.206747770E-1,7.976436615E-1,1.197377830E0
2.970135027E1,-5.053710938E-2,-9.687634706E-1,2.044868469E-2,9.702962487E-1
2.972069841E1,4.865379930E-1,-1.092261076E0,-7.620840073E-1,1.417930009E0
2.974007707E1,5.307455063E-1,-1.210079432E0,-1.600158691E0,2.075208631E0
2.975945574E1,-1.292632222E-1,-1.227191567E0,-2.766732216E0,3.029441414E0
2.977880388E1,-8.170256019E-1,-1.299572587E0,-3.581307411E0,3.896432024E0
2.979818254E1,-3.666576445E-1,-1.785188675E0,-4.096171379E0,4.483297492E0
2.981756120E1,4.883188307E-1,-1.138308525E0,-4.907738686E0,5.061630230E0
2.983690935E1,8.115044832E-1,5.999875069E-1,-5.392123222E0,5.485755862E0
2.985628801E1,5.524511337E-1,2.127238274E0,-4.757523537E0,5.240646442E0
2.987566667E1,5.593168736E-1,1.800747991E0,-2.959689140E0,3.509314534E0
2.989501482E1,8.440570831E-1,8.938814402E-1,-9.528827667E-1,1.555455546E0
2.991442400E1,1.469371319E0,7.823318243E-1,4.066658020E-1,1.713613793E0
2.993380266E1,1.734276891E0,1.353995800E0,5.702095032E-1,2.272918793E0
2.995318132E1,1.471499205E0,1.733589768E0,1.830244064E-1,2.281258716E0
2.997252946E1,1.025614500E0,1.667219639E0,2.018117905E-1,1.967799387E0
2.999190813E1,3.974615932E-1,1.303892612E0,9.664878845E-1,1.670990872E0
