"Time (s)","Linear Acceleration x (m/s^2)","Linear Acceleration y (m/s^2)","Linear Acceleration z (m/s^2)","Absolute acceleration (m/s^2)"
1.578359740E-1,-1.382399559E0,5.509281158E-2,1.988014340E0,2.422037319E0
1.772146360E-1,-2.002602816E0,-2.744283676E-1,1.827494621E0,2.724970744E0
1.965932980E-1,-2.470033407E0,-7.440404892E-1,9.686913490E-1,2.755544268E0
2.159414430E-1,-1.808400512E0,-2.484904289E0,1.171894908E0,3.289133535E0
2.353506230E-1,-6.806285381E-1,-4.748012543E0,2.172646046E0,5.265668918E0
2.547292850E-1,1.633403897E-1,-4.709389687E0,5.943939209E0,7.585212233E0
2.740774290E-1,-3.688252866E-1,-3.982738495E0,8.568614006E0,9.456182316E0
2.934560910E-1,1.000485420E0,-5.137522697E0,1.571684122E0,5.464915509E0
3.128347530E-1,1.521502018E0,-4.227734566E0,-7.419444323E-1,4.554030027E0
3.322134160E-1,6.462922096E-1,-2.659391403E0,-2.122010469E0,3.463088894E0
3.515615600E-1,-8.459949493E-2,-3.109799385E0,-3.175738096E0,4.445595770E0
3.709402220E-1,-6.464447379E-1,-6.093469620E0,-4.639992714E0,7.686208115E0
3.903188840E-1,-1.548256874E0,-7.247968674E0,-6.675090790E0,9.974316332E0
4.096975460E-1,-2.116338730E0,-3.557448387E0,-6.962289333E0,8.099864283E0
4.290456910E-1,-1.205074072E0,3.730049133E-1,-4.214421749E0,4.399168883E0
4.484243530E-1,-2.270556092E-1,2.604451180E0,-2.364130974E0,3.524746155E0
4.678030150E-1,2.825254798E-1,3.816492081E0,-2.494916916E0,4.568374204E0
4.871511600E-1,4.891674519E-1,4.302763939E0,-2.907481194E0,5.215985928E0
5.065298220E-1,6.270620823E-1,4.696771622E0,-2.440241098E0,5.329882470E0
5.259390010E-1,8.472273946E-1,4.991490364E0,-1.693881512E0,5.338726898E0
5.453176640E-1,1.033315659E0,5.113080978E0,-9.929518700E-1,5.310112217E0
5.646658080E-1,1.123409629E0,4.834491730E0,-4.318021536E-1,4.982049034E0
5.840444700E-1,9.966290593E-1,3.995491982E0,7.871937752E-2,4.118667551E0
6.034231320E-1,5.635633469E-1,2.939878464E0,7.139012814E-1,3.077359918E0
6.228017940E-1,-1.572893858E-1,2.212304115E0,1.198791742E0,2.521136865E0
6.421499390E-1,-6.364058256E-1,2.006410599E0,8.726058006E-1,2.278626066E0
6.615286010E-1,-7.743875980E-1,1.718482971E0,4.111827016E-1,1.929230699E0
6.809072630E-1,-5.650906563E-1,5.980272293E-1,1.641571522E-2,8.229419740E-1
7.002554080E-1,-5.600224137E-1,-7.147455215E-1,7.203367949E-1,1.159038982E0
7.196340700E-1,-9.503649473E-1,-2.248239517E0,2.161977291E0,3.260662550E0
7.390127320E-1,-1.331629992E0,-3.552738190E0,4.484695435E0,5.874323810E0
7.583913940E-1,-9.387654066E-1,-4.488732338E0,4.224929333E0,6.235385021E0
7.777395390E-1,-9.619097114E-1,-4.079657555E0,4.404559135E-1,4.214602884E0
7.971182010E-1,-5.973243117E-1,-4.690226555E0,-1.479910254E0,4.954306796E0
8.165273800E-1,-2.144529074E-1,-3.361574173E0,-1.818735242E0,3.828050267E0
8.359060430E-1,7.586923242E-2,-1.881479263E0,-1.377480388E0,2.333060774E0
8.552541870E-1,4.779767394E-1,-4.310212135E0,-1.106044888E0,4.475458156E0
8.746328490E-1,1.412416577E0,-7.209527016E0,-1.045175791E0,7.420552056E0
8.940115110E-1,3.089564323E0,-7.084338188E0,-7.893925905E-1,7.768937890E0
9.133901730E-1,3.988985538E0,-3.164922714E0,-9.307161570E-1,5.176386189E0
9.327383180E-1,3.999332905E0,1.027135849E-1,-1.947369218E0,4.449433743E0
9.521169800E-1,3.669752598E0,2.122193336E0,-2.588277340E0,4.966887182E0
9.714956420E-1,3.031745672E0,3.581157684E0,-2.280746937E0,5.217085275E0
9.908437870E-1,2.258659124E0,4.530967712E0,-1.878466129E0,5.399985597E0
1.010222449E0,1.404101610E0,5.252590179E0,-1.364094734E0,5.605529357E0
1.029601111E0,6.329061985E-1,5.851150513E0,-9.705616236E-1,5.964773461E0
1.048979773E0,5.721448362E-2,6.125881195E0,-3.728276491E-1,6.137482739E0
1.068327918E0,-4.195863903E-1,6.065646172E0,3.731312752E-1,6.091579694E0
1.087706580E0,-5.093964338E-1,4.970859528E0,9.165749550E-1,5.080259720E0
1.107115759E0,-7.394845486E-1,3.309117317E0,1.047653794E0,3.548897475E0
1.126494421E0,-1.442473292E0,1.883947372E0,1.115903378E0,2.622065455E0
1.145842566E0,-2.435692787E0,1.037473679E0,9.626286030E-1,2.817020556E0
1.165221228E0,-2.902176380E0,5.438385010E-1,1.091063738E0,3.147825938E0
1.184599890E0,-2.570981026E0,-2.233619690E-1,1.396673560E0,2.934370637E0
1.203948035E0,-1.225693703E0,-2.723049164E0,1.824763775E0,3.499583495E0
1.223326697E0,5.004219711E-2,-4.431477547E0,2.939169407E0,5.317820444E0
1.242705359E0,7.197494507E-1,-3.793848991E0,4.482436180E0,5.916380950E0
1.262084021E0,4.270559847E-1,-2.469498634E0,5.544498920E0,6.084592722E0
1.281432166E0,7.864482999E-1,-4.803386688E0,1.820823669E0,5.196770482E0
1.300810828E0,1.205262423E0,-5.747107506E0,-5.828545094E-1,5.900984797E0
1.320189490E0,4.864154458E-1,-4.183121681E0,-1.141008377E0,4.363141884E0
1.339568152E0,-2.889221311E-1,-1.506698608E0,-2.689584017E0,3.096365430E0
1.358916296E0,-8.439660072E-1,-3.245257378E0,-4.969488144E0,5.994980107E0
1.378325476E0,-8.342999816E-1,-6.295210838E0,-5.397299767E0,8.334061479E0
1.397704138E0,-4.122240841E-1,-6.876405716E0,-4.327080727E0,8.135017632E0
1.417082800E0,1.771468520E-1,-3.597293854E0,-2.691646814E0,4.496317010E0
1.436430945E0,7.585332990E-1,3.396883011E-1,-3.347406387E-1,8.959978810E-1
1.455809607E0,6.850831509E-1,2.517731667E0,-5.687425137E-1,2.670539218E0
1.475188269E0,2.383660674E-1,3.204797745E0,-2.312997818E0,3.959483031E0
1.494536414E0,1.572701335E-2,3.964369774E0,-3.051469803E0,5.002793520E0
1.513915076E0,8.449733257E-2,4.965265274E0,-2.711506605E0,5.658026786E0
1.533293738E0,1.802594066E-1,5.830216408E0,-1.879031181E0,6.128186926E0
1.552702918E0,3.287371993E-1,6.236169815E0,-1.012441039E0,6.326366964E0
1.572020544E0,4.028589427E-1,5.851554871E0,-4.081389904E-1,5.879589030E0
1.591399207E0,4.521680772E-1,4.437485695E0,4.074653387E-1,4.479035975E0
1.610777869E0,4.804949760E-1,2.784306526E0,6.470546722E-1,2.898606217E0
1.630156531E0,4.587003887E-1,1.877626419E0,1.984059811E-1,1.943000759E0
1.649504675E0,6.766146421E-1,1.102968216E0,-5.381528139E-1,1.401411685E0
1.668913855E0,9.999514222E-1,3.266143799E-2,-1.387215853E-1,1.010056085E0
1.688292517E0,7.428160310E-1,-1.183770180E0,1.222846508E0,1.856997867E0
1.707640662E0,-7.144162655E-1,-2.470012665E0,3.083991051E0,4.015265118E0
1.727019324E0,-2.420360327E0,-3.919006348E0,5.704254627E0,7.331798941E0
1.746397986E0,-1.970542073E0,-4.881299019E0,5.642953396E0,7.717061565E0
1.765776648E0,-6.696493030E-1,-4.319314957E0,1.408749223E0,4.592329067E0
1.785124793E0,-1.108771712E-1,-4.847812653E0,-1.249289513E0,5.007425042E0
1.804503455E0,2.152350992E-1,-4.917111397E0,-2.408826828E0,5.479667629E0
1.823882117E0,4.260008037E-1,-1.568860054E0,-2.316304207E0,2.829852246E0
1.843260779E0,7.369177938E-1,-3.298912048E-1,-1.822212934E0,1.993072006E0
1.862608923E0,1.354934812E0,-3.481293678E0,-1.377037644E0,3.981392557E0
1.881987585E0,2.527949333E0,-6.653015137E0,-1.091658115E0,7.200337192E0
1.901366248E0,4.043128490E0,-5.990989685E0,-8.371093273E-1,7.275960241E0
1.920744910E0,4.077906609E0,-1.722755432E0,-1.532327056E0,4.684574132E0
1.940093054E0,3.299162149E0,1.221182823E0,-2.295320034E0,4.200506212E0
1.959502234E0,2.293150663E0,2.720818520E0,-2.476566553E0,4.335294139E0
1.978880896E0,1.306449175E0,3.722203255E0,-2.332827568E0,4.582978396E0
1.998229041E0,5.681258440E-1,4.925228119E0,-1.862406731E0,5.296149340E0
2.017607703E0,-2.694091201E-1,6.229415894E0,-8.673462868E-1,6.295275469E0
2.036986365E0,-5.492607355E-1,6.960894585E0,-3.626606464E-1,6.991942757E0
2.056365027E0,-4.648102820E-1,6.902958870E0,2.158048153E-1,6.921955033E0
2.075713171E0,-2.231124640E-1,5.657651901E0,1.190519929E0,5.785857059E0
2.095091834E0,-3.630298674E-1,3.961611748E0,1.066161156E0,4.118599026E0
2.114470496E0,-1.178413868E0,2.319533348E0,3.670866489E-1,2.627479173E0
2.133849158E0,-1.992287636E0,7.873067856E-1,4.407575130E-1,2.187082345E0
2.153197302E0,-2.014410257E0,-5.968933105E-1,1.173545003E0,2.406519932E0
2.172575964E0,-1.702305794E0,-1.371021271E0,1.725731492E0,2.784904581E0
2.191954626E0,-1.737540960E0,-1.911929131E0,1.346417069E0,2.913307487E0
2.211302771E0,-7.883417606E-1,-3.558375359E0,1.760026693E0,4.047370984E0
2.230711951E0,2.840022147E-1,-4.783527374E0,3.356403828E0,5.850490411E0
2.250090613E0,7.885500789E-1,-4.130500793E0,5.126271248E0,6.630347271E0
2.269499793E0,-3.019673228E-1,-1.739912033E0,6.206433296E0,6.452774009E0
2.288817419E0,-4.218800068E-1,-3.140383720E0,2.187033415E0,3.850078935E0
2.308196082E0,9.744666815E-1,-4.085940361E0,-9.153196812E-1,4.299105031E0
2.327574744E0,4.195393324E-1,-1.453534126E0,-2.488882542E0,2.912612404E0
2.346953406E0,-3.244220018E-1,-4.011554718E-1,-3.851027489E0,3.885432803E0
2.366301550E0,-7.326840162E-1,-2.946990013E0,-4.413344860E0,5.357162389E0
2.385680212E0,-6.263834238E-1,-6.642729759E0,-3.629228115E0,7.595361187E0
2.405058875E0,-2.157227397E-1,-8.166267395E0,-2.699324369E0,8.603534827E0
2.424437537E0,-6.827712059E-2,-4.281555176E0,-2.062296152E0,4.752835144E0
2.443785681E0,4.675084949E-1,2.673425674E-1,-1.292314649E0,1.400040497E0
2.463164343E0,3.309354186E-1,2.290022850E0,-2.011811256E0,3.066122541E0
2.482543005E0,-7.980978489E-2,3.547257423E0,-3.411072254E0,4.921871469E0
2.501921668E0,-2.537233233E-1,4.743341446E0,-3.943546534E0,6.173752737E0
2.521300330E0,-1.149579883E-1,5.785873413E0,-3.644253254E0,6.838868932E0
2.540678992E0,2.345937490E-1,6.450956345E0,-2.913058758E0,7.082074789E0
2.560057654E0,6.226835847E-1,6.713612556E0,-2.209084272E0,7.095095611E0
2.579405798E0,1.072335958E0,6.389969826E0,-1.472075701E0,6.644443216E0
2.598784460E0,1.611566901E0,5.247509956E0,-5.203306675E-1,5.514005134E0
2.618163123E0,2.207391262E0,3.459721565E0,6.946928501E-1,4.162312776E0
2.637541785E0,2.575417519E0,1.492888451E0,1.543826580E0,3.353340399E0
2.656889929E0,2.305952072E0,-1.750841141E-1,1.825996637E0,2.946579903E0
2.676268591E0,1.471641541E0,-1.338942528E0,1.087652087E0,2.267483843E0
2.695647253E0,7.290669680E-1,-2.848923683E0,9.000262618E-1,3.075378362E0
2.714995398E0,-1.463159472E-1,-4.535429955E0,1.216332674E0,4.697978119E0
2.734374060E0,-1.910196900E0,-5.014790535E0,2.177597523E0,5.791278553E0
2.753752722E0,-2.721442699E0,-4.602500916E0,5.663381100E0,7.788655245E0
2.773131384E0,-1.908602476E0,-4.570846558E0,4.833166599E0,6.920614210E0
2.792479529E0,-1.571267009E0,-4.178009033E0,7.730993032E-1,4.530156954E0
2.811888709E0,-5.431669354E-1,-3.306162834E0,-1.060937405E0,3.514446070E0
2.831267371E0,1.530570984E-1,-1.800565720E-1,-1.438152671E0,1.457439518E0
2.850646033E0,6.107077599E-1,-4.176864624E-1,-1.459622622E0,1.636436417E0
2.869994177E0,1.242378354E0,-4.035844803E0,-1.394930243E0,4.447176366E0
2.889372839E0,2.389544010E0,-6.505314827E0,-1.613988638E0,7.115757226E0
2.908751501E0,3.469456911E0,-4.399585724E0,-1.821474433E0,5.891625829E0
2.928099646E0,3.313008070E0,-3.637237549E-1,-2.263991356E0,4.029140641E0
2.947478308E0,2.962335110E0,2.051578522E0,-2.542668343E0,4.410166214E0
2.966856970E0,2.437167645E0,3.529896736E0,-2.461940289E0,4.945817130E0
2.986235632E0,1.701167464E0,4.319553375E0,-2.253727913E0,5.160600896E0
3.005583777E0,1.071608543E0,4.908739090E0,-1.848863482E0,5.353723984E0
3.024962439E0,6.394214630E-1,5.548042297E0,-1.281123281E0,5.729826350E0
3.044341101E0,2.740141749E-1,6.023082733E0,-7.774866819E-1,6.079234731E0
3.063719763E0,-1.629576385E-1,6.026575089E0,3.264402151E-1,6.037609271E0
3.083067908E0,-1.016037464E-1,4.968032837E0,1.185814977E0,5.108603601E0
3.102477087E0,-6.600211561E-2,3.385663033E0,1.984927893E0,3.925176326E0
3.121855750E0,-5.877285004E-1,2.007668495E0,1.924074173E0,2.842220787E0
3.141234412E0,-1.275732636E0,9.483795166E-1,1.348813057E0,2.084757571E0
3.160582556E0,-1.887833595E0,-3.750801086E-3,8.604184389E-1,2.074668562E0
3.179961218E0,-2.082517624E0,-1.030406952E0,8.535755873E-1,2.475320065E0
3.199339880E0,-2.284086943E0,-2.443986893E0,1.162057638E0,3.541257269E0
3.218718543E0,-1.750251055E0,-5.161257744E0,2.041978836E0,5.819934520E0
3.238066687E0,-8.846464157E-1,-5.267061234E0,4.478219986E0,6.969862808E0
3.257445349E0,-8.853420615E-1,-2.739044189E0,7.892873764E0,8.401407614E0
3.276824011E0,-1.640120506E0,-1.816325188E0,6.741713524E0,7.172149866E0
3.296172156E0,4.759746492E-1,-3.747709274E0,-1.813522577E-1,3.782164104E0
3.315550818E0,6.566563249E-1,-3.112510681E0,-2.059089184E0,3.789296575E0
3.334929480E0,-1.638315320E-1,-1.980581284E0,-3.667465687E0,4.171312450E0
3.354308142E0,-4.771589637E-1,-2.429831505E0,-5.428215027E0,5.966345632E0
3.373686804E0,-2.275607735E-1,-5.767352104E0,-5.528213978E0,7.992201448E0
3.393065466E0,1.292667687E-1,-8.338877678E0,-3.735854387E0,9.138391479E0
3.412444128E0,7.034807205E-1,-6.177563667E0,-1.333407879E0,6.358864251E0
3.431792273E0,1.421351671E0,-1.224939346E0,-1.520280719E0,2.414947295E0
3.451170935E0,1.050879955E0,1.295140266E0,-3.050357342E0,3.476552445E0
3.470549597E0,4.972319007E-1,2.848430634E0,-3.705609322E0,4.700248619E0
3.489928259E0,2.493345439E-1,4.694816589E0,-3.359642506E0,5.778465911E0
3.509276404E0,1.277774125E-1,6.200197220E0,-2.818042755E0,6.811764647E0
3.528655066E0,1.125793755E-1,7.105607033E0,-2.321410656E0,7.476046606E0
3.548033728E0,1.840423793E-1,7.460410118E0,-1.931256175E0,7.708523928E0
3.567412390E0,3.101735711E-1,7.187525749E0,-1.423804522E0,7.333754383E0
3.586760535E0,6.599431634E-1,5.724685669E0,-6.773709059E-1,5.802273893E0
3.606139197E0,1.112280130E0,3.618573189E0,2.318862677E-1,3.792757605E0
3.625517859E0,1.352040768E0,1.682003975E0,7.709348202E-1,2.291613429E0
3.644896521E0,1.249809861E0,2.513799667E-1,7.496620417E-1,1.478921821E0
3.664275183E0,1.186358571E0,-1.012066841E0,4.879621267E-1,1.633962358E0
3.683653845E0,1.076211333E0,-2.288590431E0,2.952983379E-1,2.546188937E0
3.703032507E0,6.151103377E-1,-3.404630661E0,5.200378299E-1,3.498615442E0
3.722380652E0,-4.079364538E-1,-4.023106575E0,1.830965042E0,4.438944880E0
3.741759314E0,-1.684918165E0,-4.769086838E0,4.523500919E0,6.785661284E0
3.761137976E0,-2.254218102E0,-5.074032784E0,7.133996010E0,9.039978264E0
3.780516638E0,-5.697706342E-1,-3.891178131E0,4.789791107E0,6.197419195E0
3.799864783E0,-1.030426174E-1,-3.440218925E0,-2.425386906E-1,3.450296951E0
3.819243445E0,2.512229979E-1,-4.117563248E0,-1.998563051E0,4.583851477E0
3.838622107E0,2.893781662E-1,-1.347697258E0,-2.263007164E0,2.649760187E0
3.858000769E0,4.043159187E-1,3.809633255E-1,-1.810374737E0,1.893689812E0
3.877348914E0,8.922603726E-1,-1.498955727E0,-1.393246770E0,2.232517280E0
3.896727576E0,1.910334110E0,-4.677927971E0,-9.503914118E-1,5.141559136E0
3.916106238E0,3.092025757E0,-4.626431465E0,-1.103822947E0,5.672998897E0
3.935454382E0,3.085068464E0,-1.053733826E0,-1.735014915E0,3.693004084E0
3.954863562E0,2.359432936E0,1.695511818E0,-2.410797596E0,3.775397880E0
3.974242224E0,1.271009445E0,3.091987610E0,-2.987248421E0,4.483247207E0
3.993620886E0,3.326076567E-1,3.952528000E0,-3.024377823E0,4.987982223E0
4.012969031E0,-3.127950132E-1,4.756671906E0,-2.384037971E0,5.329859791E0
4.032347693E0,-5.442945361E-1,5.420804024E0,-1.635501385E0,5.688254353E0
4.051726355E0,-6.048938632E-1,5.561228752E0,-1.093364120E0,5.699877798E0
4.071105017E0,-6.360659599E-1,5.143808365E0,-4.862506390E-1,5.205745296E0
4.090453162E0,-7.513833046E-1,4.055075645E0,4.368566275E-1,4.147174830E0
4.109831824E0,-1.016810775E0,2.471590996E0,1.120488882E0,2.897958167E0
4.129210486E0,-1.515843749E0,1.674382210E0,1.041436315E0,2.487152519E0
4.148558630E0,-1.935495138E0,1.726668358E0,7.698613405E-1,2.705588944E0
4.167937293E0,-2.034459829E0,1.280531883E0,1.140796661E0,2.660865597E0
4.187315955E0,-1.914731860E0,1.577272415E-1,1.868032932E0,2.679668452E0
4.206694617E0,-1.577441216E0,-1.586052895E0,2.054453850E0,3.037213393E0
4.226042761E0,-8.764947653E-1,-4.153923988E0,2.808778524E0,5.090438525E0
4.245451941E0,7.160070539E-2,-5.958296776E0,3.905079126E0,7.124329450E0
4.264830603E0,9.017771482E-1,-4.425942421E0,4.105165482E0,6.103650708E0
4.284209265E0,7.382214069E-1,-2.332593918E0,3.522634029E0,4.288929439E0
4.303557410E0,1.231768966E0,-4.552274704E0,5.173124075E-1,4.744267266E0
4.322936072E0,1.036644459E0,-3.512120247E0,-1.523742437E0,3.966284329E0
4.342314734E0,-1.546798050E-1,-8.393392563E-1,-2.965101242E0,3.085488876E0
4.361693396E0,-9.094129205E-1,-1.292401314E0,-4.112365723E0,4.405551595E0
4.381041541E0,-1.406648040E0,-4.291251183E0,-4.212369919E0,6.175561169E0
4.400420203E0,-1.618148923E0,-6.096837044E0,-4.068013191E0,7.505901625E0
4.419798865E0,-1.328418970E0,-4.481829643E0,-2.646149158E0,5.371554643E0
4.439147009E0,-8.398443460E-2,-1.701187134E0,-1.272459030E0,2.126086318E0
4.458525671E0,4.758127928E-1,1.779289246E-1,-2.106528759E0,2.166914841E0
4.477904334E0,1.668935418E-1,8.939361572E-1,-4.013936996E0,4.115661006E0
4.497282996E0,8.937782049E-2,2.250593185E0,-4.356366634E0,4.904190895E0
4.516631140E0,3.056823015E-1,3.731341362E0,-3.439788342E0,5.084141409E0
4.536040320E0,6.311622262E-1,4.773983955E0,-2.418458700E0,5.388713302E0
4.555418982E0,9.754815698E-1,5.419553757E0,-1.650853872E0,5.748777759E0
4.574797644E0,1.209890604E0,5.832243919E0,-1.155248642E0,6.067413274E0
4.594145789E0,1.422382116E0,5.853202820E0,-5.806734562E-1,6.051473853E0
4.613524451E0,1.834400058E0,5.113163948E0,1.301527023E-1,5.433820834E0
4.632903113E0,2.443629742E0,3.658117294E0,9.857871532E-1,4.508317288E0
4.652251257E0,2.721240044E0,2.205310822E0,9.596685171E-1,3.631736067E0
4.671629919E0,2.525187731E0,1.035054207E0,5.202152729E-1,2.778225012E0
4.691008582E0,2.200304270E0,-3.058061600E-1,4.229494333E-1,2.261358554E0
4.710387244E0,1.633336425E0,-1.928244591E0,4.609384537E-1,2.568731075E0
4.729735388E0,5.707135201E-1,-3.401753426E0,1.270658731E0,3.675896340E0
4.749114050E0,-1.028719187E0,-4.490596771E0,2.892500401E0,5.439694945E0
4.768492712E0,-2.547664642E0,-4.547468185E0,4.532243729E0,6.907336335E0
4.787871375E0,-1.886110544E0,-5.305674553E0,4.667886734E0,7.314148071E0
4.807250037E0,-7.384089231E-1,-4.807778358E0,1.468810558E0,5.081081080E0
4.826628699E0,1.267983615E-1,-3.247371674E0,-1.457557201E0,3.561737442E0
4.846007361E0,4.341995716E-1,-6.747465134E-1,-1.994317770E0,2.149677998E0
4.865386023E0,6.274756193E-1,-1.996650696E-1,-1.971073866E0,2.078153983E0
4.884734168E0,1.050402880E0,-3.123180389E0,-1.601108313E0,3.663488745E0
4.904112830E0,1.874494076E0,-5.666389465E0,-1.491168618E0,6.151851872E0
4.923491492E0,2.836275339E0,-4.328128815E0,-1.749327302E0,5.462353233E0
4.942839636E0,2.880725622E0,-8.454465866E-1,-2.200853825E0,3.722514956E0
4.962218298E0,2.527342081E0,1.261772156E0,-2.586876631E0,3.830333885E0
4.981596960E0,1.857147932E0,2.742162704E0,-2.887864351E0,4.394111429E0
5.000975623E0,1.042831063E0,4.052190781E0,-2.978711128E0,5.136191851E0
5.020323767E0,4.230435193E-1,5.090852737E0,-2.771950960E0,5.812009940E0
5.039702429E0,8.079938591E-2,5.828763008E0,-2.348567009E0,6.284645872E0
5.059081091E0,-1.104059070E-1,6.086820602E0,-1.766716719E0,6.338995384E0
5.078459753E0,-2.213334888E-1,5.424516678E0,-1.132089496E0,5.545808898E0
5.097838416E0,-4.657218754E-1,4.033689499E0,-2.243467569E-1,4.066679150E0
5.117217078E0,-8.345851898E-1,2.467021942E0,1.045428157E0,2.806358803E0
5.136595740E0,-1.344740629E0,1.467617989E0,1.322087049E0,2.389590778E0
5.155943884E0,-1.905010223E0,1.049731255E0,1.097185493E0,2.436147710E0
5.175322546E0,-2.401963472E0,6.595392227E-1,1.163365841E0,2.749152704E0
5.194701209E0,-2.463027716E0,-3.034343719E-1,1.454493284E0,2.876478517E0
5.214079871E0,-1.993889689E0,-1.683029175E0,1.920948386E0,3.240096603E0
5.233428015E0,-1.057830572E0,-3.596610069E0,2.372265577E0,4.436468582E0
5.252806677E0,1.035379916E-1,-4.784308434E0,3.629330158E0,6.006027364E0
5.272189027E0,1.253134012E0,-4.100230217E0,5.267573357E0,6.791874686E0
5.291567689E0,6.397443414E-1,-3.019663811E0,6.138734818E0,6.871077609E0
5.310915834E0,1.690638304E0,-4.054137230E0,2.354889393E0,4.983953311E0
5.330294496E0,1.322004199E0,-2.217164993E0,-2.438077927E-1,2.592866743E0
5.349673158E0,4.649271667E-1,-8.043975830E-1,-1.980993867E0,2.188046947E0
5.369021303E0,-4.625610411E-1,-1.836996078E0,-4.097365856E0,4.514080667E0
5.388430482E0,-1.370694518E0,-4.751076698E0,-5.615269184E0,7.482164210E0
5.407809145E0,-1.986359000E0,-6.701650620E0,-6.506765842E0,9.549646320E0
5.427187807E0,-1.959810138E0,-4.678297043E0,-5.196698189E0,7.261748485E0
5.446535951E0,-5.344381928E-1,-1.421387672E0,-2.419645071E0,2.856685031E0
5.465914613E0,9.832367897E-1,6.109886169E-1,-1.577987909E0,1.957066048E0
5.485293275E0,1.435758114E0,1.946494102E0,-2.915125847E0,3.787901709E0
5.504671938E0,1.222411871E0,3.292692184E0,-3.261682510E0,4.793191567E0
5.524020082E0,9.685060978E-1,4.644079208E0,-2.648600578E0,5.433282689E0
5.543398744E0,8.501315117E-1,5.635165215E0,-1.894550085E0,6.005591612E0
5.562777406E0,8.658223748E-1,6.093251228E0,-1.214803457E0,6.273205429E0
5.582156068E0,9.470713139E-1,6.016447067E0,-7.905223370E-1,6.141620711E0
5.601534731E0,1.036812663E0,5.248289108E0,-1.436474323E-1,5.351649619E0
5.620882875E0,9.925062060E-1,3.695368767E0,6.518038511E-1,3.881451681E0
5.640261537E0,7.032814026E-1,2.100045204E0,1.412676811E0,2.626870831E0
5.659609682E0,2.096685618E-1,7.840881348E-1,1.101867318E0,1.368527199E0
5.679018861E0,-2.158706337E-1,-1.907129288E-1,8.440088034E-1,8.918085063E-1
5.698397523E0,-2.964921594E-1,-8.540878296E-1,9.791163206E-1,1.332682404E0
5.717776186E0,-4.482759535E-1,-1.378303528E0,1.304924607E0,1.950256439E0
5.737124330E0,-9.001263380E-1,-2.073843002E0,2.901269913E0,3.678099962E0
5.756502992E0,-1.379782677E0,-3.388674736E0,4.449578762E0,5.760700293E0
5.775881654E0,-1.604232550E0,-4.467307091E0,5.376097679E0,7.171667935E0
5.795260316E0,-8.915166855E-1,-4.463399887E0,2.997644901E0,5.450010597E0
5.814608461E0,-3.723121285E-1,-4.842788696E0,-7.085692883E-2,4.857596050E0
5.833987123E0,-4.740584195E-1,-5.164682388E0,-1.612984061E0,5.431426437E0
5.853365785E0,-3.690067232E-1,-2.345072746E0,-1.482388973E0,2.798751367E0
5.872713930E0,2.106272578E-1,1.276817322E-1,-8.461961746E-1,8.813140373E-1
5.892092592E0,5.365156531E-1,-3.009319305E-2,-1.219265461E0,1.332427450E0
5.911471254E0,1.002064347E0,-2.631141663E0,-1.575514197E0,3.226342262E0
5.930849916E0,2.263033867E0,-4.048949242E0,-1.568766594E0,4.896564190E0
5.950228578E0,2.919754028E0,-1.992781639E0,-1.685054541E0,3.916063208E0
5.969607240E0,2.389331579E0,2.732295990E-1,-1.942911506E0,3.091676718E0
5.988985902E0,1.556322336E0,1.555999756E0,-1.683845520E0,2.771030528E0
6.008364564E0,8.141850233E-1,2.394644737E0,-1.165414214E0,2.784853849E0
6.027712709E0,2.372219861E-1,3.336162567E0,-6.068851948E-1,3.399200580E0
6.047091371E0,-1.275002956E-1,4.293400764E0,-1.708846092E-1,4.298691429E0
6.066470033E0,-4.306920767E-1,5.121453285E0,6.375491619E-2,5.139926469E0
6.085848695E0,-5.521689057E-1,5.386124611E0,-1.927725077E-1,5.417784609E0
6.105196840E0,-5.577408671E-1,4.790759087E0,-4.992119074E-1,4.848882348E0
6.124575502E0,-7.196366787E-1,3.922526360E0,-4.145094156E-1,4.009477278E0
6.143954164E0,-1.156165957E0,3.087719917E0,-4.334853888E-1,3.325453892E0
6.163302309E0,-1.519543648E0,2.239229202E0,2.091938257E-1,2.714207504E0
6.182680971E0,-1.283449531E0,1.434560776E0,1.228442907E0,2.283479646E0
6.202059633E0,-8.718366623E-1,7.567768097E-1,2.042775869E0,2.346432091E0
6.221438295E0,-7.580311298E-1,3.060407639E-1,2.381644011E0,2.518035015E0
6.240816957E0,-6.543022394E-1,-6.499881744E-1,2.130243540E0,2.321321517E0
6.260195619E0,-2.891338617E-2,-2.574142456E0,1.785145760E0,3.132697041E0
6.279574281E0,5.659976006E-1,-3.939558983E0,2.605028629E0,4.756748093E0
6.298952943E0,3.981672823E-1,-3.554885864E0,3.913811445E0,5.302232617E0
6.318331606E0,-1.036790371E0,-2.206042290E0,5.873286724E0,6.359013587E0
6.337679750E0,-8.678394556E-1,-3.653437614E0,2.362072468E0,4.436230164E0
6.357058412E0,5.227330923E-1,-4.432188034E0,-1.316355228E0,4.652991698E0
6.376406557E0,-2.929688990E-1,-2.723340034E0,-3.704051733E0,4.606778805E0
6.395785219E0,-7.499815226E-1,-1.791881561E0,-4.998853207E0,5.363007104E0
6.415163881E0,-4.526229501E-1,-4.089520454E0,-4.403394699E0,6.026518892E0
6.434512025E0,-1.450030208E-1,-7.411973953E0,-2.778733730E0,7.917054055E0
6.453890688E0,-2.067439854E-1,-7.432060242E0,-1.605496407E0,7.606305360E0
6.473269350E0,-1.135747135E-1,-2.791129112E0,-1.613052726E0,3.225715430E0
6.492648012E0,2.793604136E-1,3.125581741E-1,-2.631911755E0,2.665088054E0
6.512026674E0,3.782505095E-1,1.829481125E0,-3.471441746E0,3.942205275E0
6.531405336E0,2.957604527E-1,3.154997826E0,-3.294819117E0,4.571358500E0
6.550783998E0,3.267672062E-1,4.492837906E0,-2.619940758E0,5.211185933E0
6.570162660E0,4.017533958E-1,5.554692268E0,-2.015369892E0,5.922645337E0
6.589510805E0,4.637911022E-1,6.313899994E0,-1.445482135E0,6.493831991E0
6.608889467E0,4.603442550E-1,6.683038712E0,-9.365713596E-1,6.764029063E0
6.628268129E0,4.764440060E-1,6.425436974E0,-4.340778589E-1,6.457682462E0
6.647646791E0,6.922330856E-1,5.069727898E0,2.990909815E-1,5.125503196E0
6.666994936E0,8.475364447E-1,3.123115540E0,8.872728348E-1,3.355506189E0
6.686373598E0,4.208019674E-1,1.494933128E0,8.750611544E-1,1.782591198E0
6.705752260E0,-2.045872808E-2,1.772823334E-1,7.611660957E-1,7.818065046E-1
6.725130922E0,-1.342757642E-1,-9.868898392E-1,6.196205616E-1,1.172992402E0
6.744479066E0,-3.549127281E-1,-2.221516609E0,4.676363468E-1,2.297777805E0
6.763857729E0,-1.146321654E0,-3.224916458E0,1.228250027E0,3.636308241E0
6.783236391E0,-2.266366482E0,-3.794054031E0,4.265243053E0,6.141950938E0
6.802615053E0,-1.706794262E0,-3.724438667E0,6.356504440E0,7.562389751E0
6.821993715E0,-9.929031134E-1,-3.799852371E0,2.530736923E0,4.672190494E0
6.841372377E0,-2.328549027E-1,-5.131122589E0,-1.268387794E0,5.290694475E0
6.860751039E0,3.717558384E-1,-5.475095749E0,-2.270774841E0,5.938964072E0
6.880099184E0,6.258572340E-1,-1.420943260E0,-1.550794244E0,2.194479394E0
6.899477846E0,7.831029892E-1,8.101644516E-1,-1.014984250E0,1.516512367E0
6.918856508E0,1.065137148E0,-9.457082748E-1,-1.270117521E0,1.908423381E0
6.938235170E0,1.844574451E0,-4.206132889E0,-1.328899384E0,4.781211390E0
6.957583314E0,2.998507261E0,-4.366825104E0,-1.311460972E0,5.457118027E0
6.976961977E0,3.015596867E0,-1.252451897E0,-1.577174306E0,3.626284463E0
6.996340639E0,2.101484776E0,9.546108246E-1,-1.902855873E0,2.991384389E0
7.015719301E0,1.079632282E0,1.958804131E0,-2.110369682E0,3.075090191E0
7.035067445E0,4.651597142E-1,2.859793663E0,-1.945599556E0,3.490007305E0
7.054446107E0,1.925475895E-3,3.937489510E0,-1.336068034E0,4.157992922E0
7.073824770E0,-3.574064374E-1,4.928742409E0,-5.026514530E-1,4.967182257E0
7.093203432E0,-4.340758324E-1,5.312386513E0,6.502079964E-2,5.330487782E0
7.112582094E0,-3.339326382E-1,4.810634613E0,9.032893181E-2,4.823056676E0
7.131960756E0,-4.209933281E-1,3.816185951E0,-6.318008900E-2,3.839857070E0
7.151339418E0,-9.829264879E-1,3.103770256E0,-3.651343584E-1,3.276103994E0
7.170687563E0,-1.453876853E0,2.372116089E0,-5.430099964E-1,2.834705011E0
7.190066225E0,-1.487136006E0,1.869341850E0,3.127411604E-1,2.409111763E0
7.209444887E0,-1.140986562E0,1.356236458E0,1.492724776E0,2.317208433E0
7.228823549E0,-1.002754092E0,8.764219284E-1,2.214604855E0,2.584203132E0
7.248171693E0,-7.869513631E-1,-2.081432343E-1,2.094808578E0,2.247407180E0
7.267550356E0,-2.187823057E-1,-2.133426666E0,1.819959402E0,2.812761501E0
7.286929018E0,3.497561514E-1,-4.398880005E0,2.752988815E0,5.201098161E0
7.306277162E0,6.914495826E-1,-4.874643326E0,4.717626095E0,6.818815590E0
7.325655824E0,-4.771178663E-1,-2.618496895E0,6.702294350E0,7.211443475E0
7.345034486E0,-7.439242601E-1,-3.658904076E0,3.243595362E0,4.945898625E0
7.364413148E0,6.024689078E-1,-4.330437660E0,-7.971193790E-1,4.444216288E0
7.383791811E0,-1.352103055E-2,-2.449994087E0,-3.274268389E0,4.089436065E0
7.403170473E0,-7.969076633E-1,-1.378495216E0,-4.591929913E0,4.860157529E0
7.422549135E0,-8.231422901E-1,-3.181375504E0,-4.265629768E0,5.384636538E0
7.441927797E0,-4.882951975E-1,-6.049330711E0,-2.600840330E0,6.602817935E0
7.461275941E0,-4.009374380E-1,-6.665965080E0,-1.455895424E0,6.834871818E0
7.480654604E0,-2.206108570E-1,-3.321879387E0,-1.036401629E0,3.486786507E0
7.500033266E0,-1.416925788E-1,1.736230850E-1,-1.825524569E0,1.839228565E0
7.519381410E0,-2.793767452E-1,1.904973030E0,-3.224524736E0,3.755600270E0
7.538760072E0,-3.973536491E-1,3.170477867E0,-3.832417011E0,4.989713416E0
7.558138734E0,-2.439651489E-1,4.459279060E0,-3.327054739E0,5.569019839E0
7.577517397E0,1.319885254E-1,5.519667625E0,-2.468581676E0,6.047978766E0
7.596865541E0,5.465640426E-1,6.212572098E0,-1.739729166E0,6.474676972E0
7.616244203E0,8.650603294E-1,6.445287704E0,-1.118588448E0,6.598583415E0
7.635622865E0,1.200968742E0,5.861737251E0,-1.495647430E-1,5.985370426E0
7.655001527E0,1.488547325E0,4.307349205E0,6.406160593E-1,4.602110304E0
7.674380189E0,1.582319736E0,2.327124596E0,9.640879631E-1,2.974678173E0
7.693758852E0,1.250544190E0,7.155332565E-1,6.807315946E-1,1.593500586E0
7.713137514E0,6.126047373E-1,1.340961456E-2,8.409094810E-2,6.184946802E-1
7.732516176E0,3.029883504E-1,-4.029560089E-1,-1.829240322E-1,5.363177110E-1
7.751864320E0,5.553839728E-2,-1.019990921E0,2.421430945E-1,1.049809159E0
7.771242982E0,-5.083494782E-1,-2.229629517E0,1.038272619E0,2.511508910E0
7.790621645E0,-1.684135556E0,-3.307674408E0,3.345788717E0,4.997131647E0
7.809969789E0,-2.561610699E0,-3.714119911E0,6.003374100E0,7.509796047E0
7.829348451E0,-1.260166407E0,-4.101297379E0,6.330253601E0,7.647272077E0
7.848727113E0,-3.926515281E-1,-4.394284248E0,8.534327745E-1,4.493579506E0
7.868105775E0,1.810405850E-1,-5.865998268E0,-2.045073509E0,6.214904427E0
7.887453920E0,4.921478331E-1,-3.664139748E0,-2.495746613E0,4.460591971E0
7.906832582E0,7.714301348E-1,-5.694046021E-1,-1.613775849E0,1.877125075E0
7.926211244E0,1.238315225E0,-1.193824768E0,-1.160125375E0,2.074736865E0
7.945589906E0,2.013017893E0,-3.705224037E0,-1.083982229E0,4.353842404E0
7.964968568E0,3.346031189E0,-3.983671188E0,-1.125605583E0,5.322832778E0
7.984347231E0,3.677377701E0,-1.226799011E0,-1.935053587E0,4.332732966E0
8.003725893E0,3.179583311E0,9.808654785E-1,-2.459004879E0,4.137457204E0
8.023074037E0,2.476791143E0,2.338566780E0,-2.384306908E0,4.157921161E0
8.042452699E0,1.822457790E0,3.142769814E0,-1.959793568E0,4.127849964E0
8.061831361E0,1.311504722E0,3.724345207E0,-1.458549738E0,4.209294382E0
8.081210023E0,8.936237693E-1,4.191126823E0,-9.064939022E-1,4.380164230E0
8.100558168E0,5.850776434E-1,4.399148941E0,-3.321711421E-1,4.450299419E0
8.119936830E0,6.344486773E-2,4.223974228E0,9.044359922E-1,4.320183792E0
8.139315492E0,-8.130428940E-2,3.431900978E0,1.472168446E0,3.735215475E0
8.158694154E0,-1.424211077E-2,2.673564911E0,1.295490980E0,2.970934037E0
8.178042299E0,-3.146357238E-1,2.377964020E0,6.987962723E-1,2.498404440E0
8.197420961E0,-7.033864856E-1,2.182881355E0,1.202952862E-2,2.293440269E0
8.216799623E0,-1.029473662E0,2.177870750E0,-1.200443506E-1,2.411917841E0
8.236147768E0,-1.385592103E0,1.812987328E0,6.835080385E-1,2.382010026E0
8.255556947E0,-1.502460837E0,8.761262894E-1,1.350936174E0,2.202274822E0
8.274935609E0,-1.315041184E0,-2.645721436E-1,1.738810182E0,2.196085741E0
8.294314272E0,-3.996732235E-1,-2.465858459E0,2.736763000E0,3.705410686E0
8.313662416E0,2.491699904E-1,-4.223825455E0,4.001277924E0,5.823487974E0
8.333041078E0,-1.021215245E-1,-2.312980652E0,5.636615753E0,6.093582317E0
8.352419740E0,1.114877388E-1,-2.883000374E0,4.047611237E0,4.970641548E0
8.371798402E0,2.334067822E0,-4.454776764E0,1.731483936E-1,5.032185308E0
8.391146547E0,2.406085491E0,-3.152873993E0,-1.859595537E0,4.380406073E0
8.410525209E0,1.458205581E0,-2.284681320E0,-3.947409153E0,4.788337005E0
8.429903871E0,9.708293676E-1,-3.972826004E0,-5.514950752E0,6.865896731E0
8.449282533E0,9.119104147E-1,-6.907328606E0,-5.665789604E0,8.980197153E0
8.468630678E0,7.844674587E-1,-7.003506660E0,-5.156982422E0,8.732637771E0
8.488009340E0,7.273032665E-1,-2.966875076E0,-3.944699287E0,4.989185327E0
8.507388002E0,1.081236601E0,7.419586182E-2,-2.860519409E0,3.058945718E0
8.526766664E0,1.746726274E0,1.876336098E0,-1.885712147E0,3.182389060E0
8.546145326E0,1.895038843E0,3.329993248E0,-1.597368002E0,4.151097660E0
8.565523988E0,1.497433186E0,4.249423981E0,-1.716996551E0,4.821616686E0
8.584902650E0,1.094321728E0,4.519315720E0,-1.588010788E0,4.913606911E0
8.604250795E0,8.048146367E-1,4.004560471E0,-1.363839746E0,4.306308165E0
8.623629457E0,2.970240712E-1,3.387145996E0,-7.401163578E-1,3.479763429E0
8.643008119E0,-2.615129948E-1,2.952740669E0,-4.275727272E-1,2.994976618E0
8.662386781E0,-7.505946755E-1,2.447964668E0,-1.620230675E-1,2.565574957E0
8.681734926E0,-1.176304936E0,1.572788239E0,3.126984835E-1,1.988752495E0
8.701144106E0,-1.548089981E0,8.328342438E-1,8.761305809E-1,1.964128372E0
8.720492250E0,-1.816105604E0,7.114467621E-1,8.815860748E-1,2.140464919E0
8.739840395E0,-1.785132170E0,1.154395103E0,7.504942417E-1,2.254454818E0
8.759219057E0,-1.821208477E0,1.289985657E0,1.782813549E0,2.856446650E0
8.778597719E0,-2.528033257E0,4.254179001E-1,2.981674671E0,3.932215200E0
8.797976381E0,-2.564208984E0,-1.063542366E0,3.943503141E0,4.822603768E0
8.817355043E0,-2.859579802E0,-1.704505920E0,3.292655230E0,4.682319461E0
8.836733705E0,-3.429748058E0,-1.981303215E0,2.060905933E0,4.464982356E0
8.856112367E0,-3.568253756E0,-3.673158646E0,1.120901585E0,5.242227548E0
8.875491029E0,-2.476187706E0,-5.391377449E0,1.387750626E0,6.092972029E0
8.894839174E0,-1.477458477E0,-3.896177292E0,6.957585812E-1,4.224590045E0
8.914217836E0,-8.202053308E-1,-1.078299522E0,-8.114082813E-1,1.579192846E0
8.933596498E0,4.711933434E-3,-5.553340912E-2,-1.215775967E0,1.217052736E0
8.952944643E0,7.479977608E-1,-8.354339600E-1,-1.496294022E0,1.869851960E0
8.972323305E0,1.198706150E0,-2.659053802E0,-1.685405970E0,3.368687703E0
8.991701967E0,2.112362146E0,-3.465098381E0,-1.123529196E0,4.210854840E0
9.011080629E0,3.173533678E0,-2.261910439E0,-3.171522617E-1,3.910005166E0
9.030428773E0,3.933659554E0,-5.519638062E-1,-7.225883007E-2,3.972853240E0
9.049807436E0,4.235983372E0,7.443790436E-1,-5.406352282E-1,4.334736640E0
9.069186098E0,3.724464417E0,1.554217339E0,-1.229977965E0,4.219013216E0
9.088564760E0,2.244963646E0,2.679294586E0,-1.026701927E0,3.643157710E0
9.107943422E0,1.032810688E0,3.552244186E0,-2.566207647E-1,3.708232853E0
9.127322084E0,2.913479805E-1,4.077531815E0,2.871375084E-1,4.097999182E0
9.146700746E0,-1.404592097E-1,4.293146133E0,4.117548466E-1,4.315133204E0
9.166079408E0,-4.661633670E-1,4.217495918E0,-8.474206924E-2,4.244026546E0
9.185427553E0,-9.321230054E-1,3.875312805E0,-6.438503265E-1,4.037504908E0
9.204806215E0,-1.567668796E0,3.157408714E0,-6.497287750E-1,3.584544981E0
9.224184877E0,-2.074535370E0,1.976758957E0,6.322073936E-2,2.866229202E0
9.243533022E0,-2.183819532E0,9.990606308E-1,1.033147216E0,2.614303552E0
9.262911684E0,-2.292888880E0,1.008186340E0,1.672292471E0,3.011700719E0
9.282290346E0,-2.708210230E0,1.226373672E0,1.523870468E0,3.340744863E0
9.301669008E0,-2.629551888E0,3.510971069E-1,1.105208397E0,2.873899426E0
9.321017152E0,-1.556270599E0,-9.587726593E-1,7.788573503E-1,1.986917704E0
9.340395814E0,-6.897754669E-1,-2.440824509E0,1.711627960E0,3.059915808E0
9.359774477E0,1.743887067E-1,-3.928807259E0,3.529622078E0,5.284332494E0
9.379153139E0,3.752656877E-1,-2.982957840E0,4.737207890E0,5.610704091E0
9.398531801E0,-8.795530796E-1,-1.827691078E0,4.200152874E0,4.664263335E0
9.417940981E0,-4.340606928E-1,-3.680881500E0,4.153583050E-1,3.729587085E0
9.437289125E0,-2.663624585E-1,-3.247668266E0,-2.397736549E0,4.045669127E0
9.456637270E0,-7.840359211E-1,-2.335689545E0,-3.927822351E0,4.636587797E0
9.476015932E0,-8.896838427E-1,-2.920433044E0,-4.545618057E0,5.475683522E0
9.495394594E0,-3.609166741E-1,-4.993483543E0,-2.927861929E0,5.799785705E0
9.514773256E0,-2.519039810E-1,-6.363472939E0,-1.587683439E0,6.563381915E0
9.534121400E0,-8.756768703E-2,-4.843971252E0,-1.403339505E0,5.043915876E0
9.553500063E0,5.941597819E-1,-1.338434219E0,-1.935178518E0,2.426797870E0
9.572878725E0,8.977440596E-1,1.152916908E0,-2.540524006E0,2.930771915E0
9.592257387E0,7.851939201E-1,2.502319336E0,-3.329845905E0,4.238632480E0
9.611605531E0,7.168820500E-1,3.645766258E0,-3.199140310E0,4.903063349E0
9.630984193E0,7.655820847E-1,4.653759003E0,-2.514609337E0,5.344796432E0
9.650362856E0,8.889978528E-1,5.241058350E0,-1.718884230E0,5.586910846E0
9.669741518E0,1.067481160E0,5.431905746E0,-1.025434852E0,5.629976261E0
9.689120180E0,1.240823984E0,5.080014229E0,-3.900294304E-1,5.243883264E0
9.708498842E0,1.247524619E0,4.084797859E0,2.108211517E-1,4.276252657E0
9.727877504E0,7.618965507E-1,2.750805855E0,6.594364047E-1,2.929552112E0
9.747225648E0,2.036534250E-2,1.579213142E0,5.583437681E-1,1.675134818E0
9.766604311E0,-4.375534654E-1,1.019165993E0,1.948373318E-1,1.126105653E0
9.785982973E0,-3.231541216E-1,5.236501694E-1,-1.132069826E-1,6.256627743E-1
9.805361635E0,3.011671305E-1,-5.033235550E-1,5.916286707E-1,8.331030701E-1
9.824709779E0,-1.049846411E-3,-1.488466263E0,2.905919790E0,3.264950650E0
9.844088441E0,-1.246364117E0,-2.447323799E0,4.724191666E0,5.464504020E0
9.863467104E0,-1.952625632E0,-3.323324203E0,5.630402088E0,6.823390528E0
9.882815248E0,-1.832557678E0,-3.414121628E0,4.137278557E0,5.668471398E0
9.902193910E0,-2.710259557E-1,-2.970106125E0,6.407246590E-1,3.050493985E0
9.921572572E0,5.812585354E-2,-3.431997299E0,-1.954169035E0,3.949779829E0
9.940951234E0,1.092969924E-1,-4.092000008E0,-2.349699020E0,4.719904171E0
9.960329897E0,6.711100936E-1,-1.648462296E0,-1.031139612E0,2.056955419E0
9.979708559E0,1.240885019E0,-4.538888931E-1,-2.268407345E-1,1.340622049E0
9.999087221E0,1.738644004E0,-2.448269844E0,-4.990500808E-1,3.044003808E0
1.001846588E1,2.736965656E0,-4.973935127E0,-1.185009360E0,5.799591265E0
1.003781403E1,3.550974846E0,-4.461681366E0,-2.212104797E0,6.116324926E0
1.005719269E1,2.912319422E0,-1.217475891E0,-3.032540798E0,4.377231505E0
1.007657135E1,1.806646466E0,7.684478760E-1,-2.903332710E0,3.504828729E0
1.009595001E1,1.071965575E0,1.598555565E0,-2.326938152E0,3.019789935E0
1.011529816E1,6.754050851E-1,2.619262695E0,-1.547737837E0,3.116440519E0
1.013467682E1,3.428632021E-1,3.719018936E0,-7.243520021E-1,3.804384687E0
1.015405548E1,-6.398641318E-2,4.815192223E0,9.770786762E-2,4.816608478E0
1.017340363E1,-2.342548519E-1,5.441329956E0,5.181809664E-1,5.470965047E0
1.019278229E1,-1.893611997E-1,5.141233444E0,9.614583254E-1,5.233788408E0
1.021216095E1,-1.780716032E-1,4.206451416E0,1.169125438E0,4.369530558E0
1.023153961E1,-5.931804776E-1,3.524782181E0,2.755906582E-1,3.584955050E0
1.025091828E1,-1.082722068E0,2.622033119E0,-7.113823891E-1,2.924621285E0
1.027029694E1,-1.139307618E0,1.592047691E0,-7.262611389E-1,2.088083557E0
1.028967560E1,-1.073171973E0,1.092621803E0,3.867126703E-1,1.579578165E0
1.030905426E1,-1.027735949E0,8.316164017E-1,1.925793648E0,2.335916992E0
1.032840241E1,-1.000261307E0,2.093467712E-1,2.397117376E0,2.605862711E0
1.034778107E1,-3.443548977E-1,-1.389189720E0,1.747602344E0,2.258880768E0
1.036715973E1,1.791094244E-1,-3.555890083E0,2.269306660E0,4.222106961E0
1.038650788E1,7.596361041E-1,-5.297410011E0,3.412276745E0,6.346907312E0
1.040588654E1,1.229876161E0,-4.605308533E0,4.801085472E0,6.765492130E0
1.042526520E1,1.122566462E-1,-3.930213928E0,4.077839851E0,5.664623635E0
1.044464386E1,9.898000956E-1,-4.806625366E0,1.560894012E0,5.149732203E0
1.046399201E1,4.295126796E-1,-1.422298431E0,-4.001002312E-1,1.538666359E0
1.048337067E1,-3.048560023E-1,-6.074304581E-1,-2.379830599E0,2.474975277E0
1.050274933E1,-6.008797884E-1,-3.092254639E0,-3.825964928E0,4.955915949E0
1.052212799E1,-7.671658397E-1,-6.190375328E0,-4.013267994E0,7.417250846E0
1.054150665E1,-8.894745111E-1,-6.354217529E0,-3.290455818E0,7.210710423E0
1.056088532E1,-8.387477994E-1,-2.744564056E0,-2.548265934E0,3.837940724E0
1.058026398E1,-6.305053830E-1,3.629398346E-2,-1.401401639E0,1.537133971E0
1.059961212E1,-4.672269225E-1,1.584032059E0,-1.513332605E0,2.240007619E0
1.061899079E1,-2.868957520E-1,2.712340355E0,-2.906360388E0,3.985728299E0
1.063836945E1,1.428139806E-1,3.552767754E0,-3.492341995E0,4.983874713E0
1.065774811E1,5.021717548E-1,4.628808022E0,-2.879048824E0,5.474208829E0
1.067709625E1,7.653180361E-1,5.552883148E0,-1.937488079E0,5.930774234E0
1.069647492E1,9.835199714E-1,6.070096016E0,-1.137039661E0,6.253497931E0
1.071585358E1,1.220348477E0,6.074069977E0,-4.842076302E-1,6.214340956E0
1.073523224E1,1.483400226E0,5.366071701E0,1.118910313E-1,5.568457716E0
1.075458038E1,1.727378607E0,3.865475655E0,8.665027618E-1,4.321639263E0
1.077395905E1,1.587941289E0,2.043132782E0,1.473980904E0,2.978014239E0
1.079333771E1,8.341042399E-1,7.861270905E-1,1.298654079E0,1.732116654E0
1.081271637E1,2.696035206E-1,4.976272583E-3,9.679547548E-1,1.004812037E0
1.083209503E1,-1.402985677E-2,-9.247388840E-1,8.187633157E-1,1.235197234E0
1.085147370E1,-6.838713288E-1,-2.071620941E0,1.047628999E0,2.420086742E0
1.087085236E1,-1.758098722E0,-3.318517685E0,2.744821548E0,4.651614351E0
1.089020050E1,-3.286362886E0,-4.218974113E0,5.225811481E0,7.477234063E0
1.090957916E1,-2.928247213E0,-5.004464149E0,6.693095684E0,8.855327380E0
1.092895783E1,-8.958821297E-1,-4.582897186E0,2.396808863E0,5.248832645E0
1.094833649E1,-9.956360608E-2,-5.462491989E0,-1.081132770E0,5.569342844E0
1.096768463E1,5.293696523E-1,-4.255538940E0,-2.404031277E0,4.916219104E0
1.098706330E1,7.336006761E-1,-2.183256149E-1,-2.119520664E0,2.253487047E0
1.100644196E1,1.012375951E0,9.320487976E-1,-1.635928988E0,2.137728627E0
1.102582062E1,1.698139071E0,-1.749567032E0,-1.252526522E0,2.741073474E0
1.104516876E1,2.869144678E0,-4.605536461E0,-8.086298108E-1,5.486058644E0
1.106454743E1,3.869284630E0,-3.674356461E0,-9.574835300E-1,5.421165341E0
1.108395661E1,3.597675562E0,-3.583860397E-1,-1.706205606E0,3.997855372E0
1.110330475E1,2.929775000E0,1.697221756E0,-2.193233728E0,4.034156346E0
1.112268341E1,1.983908653E0,2.664633751E0,-2.336012363E0,4.061172286E0
1.114206207E1,1.048879981E0,3.268632889E0,-2.147588253E0,4.049227764E0
1.116144074E1,3.724101484E-1,3.979094505E0,-1.773525119E0,4.372330471E0
1.118078888E1,-1.571552753E-1,4.598578453E0,-1.117464185E0,4.735012964E0
1.120016754E1,-6.951092482E-1,4.907207489E0,-7.210326195E-2,4.956718782E0
1.121954620E1,-7.698755264E-1,4.453810692E0,2.258380651E-1,4.525498960E0
1.123892487E1,-9.702266455E-1,3.531941414E0,5.840321779E-1,3.709048865E0
1.125827301E1,-1.627572417E0,2.992564201E0,2.330181599E-1,3.414488239E0
1.127765167E1,-2.419888973E0,2.814708710E0,-1.406793594E-1,3.714598019E0
1.129703034E1,-2.598868370E0,2.283743858E0,3.216474056E-1,3.474630897E0
1.131637848E1,-2.165350914E0,1.413931847E0,1.386620998E0,2.934393573E0
1.133575714E1,-1.757154107E0,5.959224701E-1,1.905195475E0,2.659414210E0
1.135513581E1,-9.568866491E-1,-1.440172195E-1,1.368836880E0,1.676331537E0
1.137451447E1,-7.635699213E-2,-1.330384254E0,1.209967732E0,1.799937379E0
1.139389313E1,7.504527569E-1,-4.111865997E0,2.498004913E0,4.869358260E0
1.141327179E1,1.711025238E0,-6.035338402E0,4.587544441E0,7.771645964E0
1.143265045E1,6.871022582E-1,-4.547094345E0,5.096096516E0,6.864282642E0
1.145202912E1,8.992500305E-1,-4.743944168E0,2.378970623E0,5.382672023E0
1.147137726E1,4.660281539E-1,-3.177520752E0,-1.874096394E-1,3.216977268E0
1.149075592E1,-2.751407623E-1,-1.690031052E0,-1.768336535E0,2.461487659E0
1.151013458E1,-6.703540683E-1,-1.661313057E0,-3.329472065E0,3.780835871E0
1.152948273E1,-1.096253872E0,-3.779712677E0,-3.992563248E0,5.606118243E0
1.154886139E1,-1.320849419E0,-5.593772888E0,-3.895174503E0,6.943149337E0
1.156824005E1,-1.329288006E0,-4.644129753E0,-3.324389696E0,5.864001587E0
1.158761872E1,-9.003643990E-1,-1.553545952E0,-2.498847008E0,3.077076119E0
1.160696686E1,-2.786022127E-1,9.763212204E-1,-1.532031775E0,1.837918300E0
1.162634552E1,1.319055855E-1,2.625750542E0,-2.313341618E0,3.501930101E0
1.164572418E1,3.414611816E-1,3.553282738E0,-3.383544683E0,4.918413217E0
1.166510285E1,4.607031345E-1,4.367019653E0,-3.179594994E0,5.421524910E0
1.168448151E1,6.090632677E-1,4.912616730E0,-2.363581419E0,5.485551779E0
1.170386017E1,7.489573359E-1,5.217673302E0,-1.481020689E0,5.475260182E0
1.172323883E1,8.820184469E-1,5.374086380E0,-7.741800547E-1,5.500737743E0
1.174258698E1,1.054320693E0,5.067972183E0,-1.512073278E-1,5.178686883E0
1.176196564E1,1.223293304E0,3.945258141E0,6.235631704E-1,4.177360331E0
1.178134430E1,1.195977926E0,2.047522545E0,1.344777346E0,2.726011350E0
1.180075348E1,7.251790762E-1,4.180297852E-1,2.075752497E0,2.238164878E0
1.182007111E1,1.070389152E-1,-3.056497574E-1,1.740470767E0,1.770343920E0
1.183944977E1,-3.002581000E-2,-7.884454727E-1,1.559750915E0,1.747961878E0
1.185882843E1,-4.287519157E-1,-1.428002357E0,2.182208538E0,2.642925092E0
1.187820709E1,-1.581113100E0,-2.105875969E0,3.821127176E0,4.640651369E0
1.189755524E1,-1.820469022E0,-3.386038780E0,4.694852829E0,6.068031737E0
1.191693390E1,-2.425956488E0,-3.706161499E0,4.243251801E0,6.134010416E0
1.193631256E1,-1.109011173E0,-3.779675484E0,2.503770351E0,4.667410258E0
1.195569122E1,-2.755643427E-1,-4.135595322E0,1.838183403E-2,4.144806662E0
1.197506989E1,-2.316303253E-1,-4.996704102E0,-1.524869561E0,5.229333769E0
1.199444855E1,1.058103740E-1,-2.764802933E0,-1.320221186E0,3.065667149E0
1.201382721E1,3.239502013E-1,6.964769363E-1,-7.682380676E-1,1.086376355E0
1.203317536E1,4.931363761E-1,1.085212708E0,-1.014480948E0,1.565260905E0
1.205255402E1,9.821165800E-1,-2.135983467E0,-1.102453470E0,2.596609713E0
1.207193268E1,2.054469109E0,-4.834651947E0,-1.292162180E0,5.409656724E0
1.209131134E1,2.708229780E0,-3.311233521E0,-2.031082630E0,4.735406278E0
1.211065949E1,2.041163445E0,-3.133726120E-1,-2.437519312E0,3.194691064E0
1.213003815E1,1.174000263E0,1.309395790E0,-2.347788811E0,2.933412050E0
1.214941681E1,6.033154130E-1,2.097523689E0,-1.972507000E0,2.941832589E0
1.216879547E1,1.697263867E-1,2.989583015E0,-1.458906174E0,3.330888902E0
1.218814362E1,-1.130573601E-1,3.902839661E0,-9.809645414E-1,4.025820514E0
1.220752228E1,-5.311259627E-1,4.686693192E0,1.037049890E-1,4.717832403E0
1.222690094E1,-7.227710485E-1,4.871764183E0,8.188247681E-1,4.992690482E0
1.224627960E1,-7.001250982E-1,4.344354630E0,9.148740768E-1,4.494506300E0
1.226565827E1,-7.142524719E-1,3.507390976E0,5.516656637E-1,3.621640934E0
1.228503693E1,-1.010832310E0,2.941052437E0,-1.048612595E-2,3.109932693E0
1.230441559E1,-1.225693107E0,2.336793900E0,-4.224956036E-1,2.672345759E0
1.232376373E1,-1.187803149E0,1.744205475E0,8.761763573E-3,2.110262028E0
1.234314240E1,-1.194516540E0,1.298920631E0,1.154700398E0,2.108885388E0
1.236252106E1,-1.159573913E0,7.108097076E-1,2.047828674E0,2.458345862E0
1.238189972E1,-1.032252312E0,-1.993103027E-1,2.395963669E0,2.616469250E0
1.240124786E1,-6.299626827E-1,-1.286244392E0,1.917188644E0,2.393092125E0
1.242062653E1,8.805805445E-2,-3.359555244E0,2.395124912E0,4.126861884E0
1.244000519E1,9.275113344E-1,-5.030013084E0,4.090964317E0,6.549602885E0
1.245935333E1,2.656998932E-1,-3.606576920E0,5.306685448E0,6.421752405E0
1.247873200E1,-8.818506002E-1,-4.031976700E0,4.069759846E0,5.796330028E0
1.249811066E1,2.131937444E-1,-5.083961487E0,1.227798700E0,5.234463260E0
1.251748932E1,-2.348581254E-1,-2.862637520E0,-1.294358373E0,3.150431003E0
1.253686798E1,-6.857609153E-1,-1.635039330E0,-3.425955534E0,3.857563086E0
1.255624665E1,-6.686892509E-1,-3.914046288E0,-4.235743523E0,5.805895869E0
1.257562531E1,-5.593479872E-1,-6.304542542E0,-3.544948578E0,7.254432249E0
1.259500397E1,-4.948356450E-1,-5.280202866E0,-2.595664501E0,5.904479555E0
1.261435211E1,-1.988253295E-1,-1.695581436E0,-1.639931321E0,2.367256356E0
1.263373078E1,-2.575209737E-2,8.123588562E-1,-1.433704019E0,1.648058644E0
1.265310944E1,-8.830896020E-2,2.311319351E0,-2.851917028E0,3.671978534E0
1.267245758E1,3.666338325E-2,3.320837975E0,-3.937332392E0,5.150912096E0
1.269183624E1,3.856756389E-1,4.265420914E0,-3.664808750E0,5.636788487E0
1.271121491E1,6.886096001E-1,4.935498238E0,-2.785713196E0,5.709073834E0
1.273059357E1,1.024992228E0,5.013037682E0,-1.836267948E0,5.436270398E0
1.274997223E1,1.391150117E0,4.617766380E0,-1.046984911E0,4.935103078E0
1.276932038E1,1.741863489E0,4.105353355E0,-4.154676199E-1,4.478909234E0
1.278869904E1,2.010542631E0,3.488121986E0,2.474288940E-1,4.033670502E0
1.280807770E1,2.013079643E0,2.921794891E0,7.150249481E-1,3.619480034E0
1.282745636E1,1.390270591E0,3.050416946E0,9.603793621E-1,3.487151328E0
1.284683502E1,5.449025035E-1,3.328507423E0,7.970314026E-1,3.465709085E0
1.286621369E1,1.133684963E-1,2.906968117E0,5.435700417E-1,2.959524360E0
1.288559235E1,6.149071455E-2,1.495489120E0,7.227114439E-1,1.662101275E0
1.290494049E1,-2.252455056E-2,-6.354627609E-1,1.606374025E0,1.727645156E0
1.292431915E1,-7.812427282E-1,-3.080941200E0,2.914034605E0,4.312091901E0
1.294369782E1,-2.086785316E0,-5.919663429E0,5.680109024E0,8.465265891E0
1.296304596E1,-1.164576650E0,-5.388571739E0,6.215085983E0,8.307841954E0
1.298242462E1,-1.483706117E0,-4.851165771E0,3.355065823E0,6.082076936E0
1.300180329E1,-8.043650389E-1,-5.870943069E0,7.589330673E-1,5.974190744E0
1.302118195E1,5.627121031E-2,-5.643054962E0,-1.212239146E0,5.772067178E0
1.304053009E1,4.398508668E-1,-1.521157265E0,-1.780674934E0,2.382895598E0
1.305990875E1,6.520692110E-1,1.164710045E0,-1.456171751E0,1.975393610E0
1.307928742E1,1.212542772E0,-1.010719299E0,-1.495801926E0,2.174680868E0
1.309866608E1,2.218315125E0,-5.418742180E0,-1.414374590E0,6.023632150E0
1.311804474E1,3.601869583E0,-5.749529839E0,-1.138168693E0,6.879388478E0
1.313742340E1,3.529593229E0,-1.233879089E0,-1.533600092E0,4.041338295E0
1.315680206E1,2.634628773E0,1.796236038E0,-2.021950722E0,3.775714157E0
1.317615021E1,1.702685595E0,3.045787811E0,-2.308918476E0,4.184144614E0
1.319552887E1,9.543570280E-1,3.595689774E0,-2.193393469E0,4.318652243E0
1.321490753E1,3.926656842E-1,4.165777206E0,-1.769680142E0,4.543088584E0
1.323428620E1,5.055050552E-2,4.868474960E0,-1.281894684E0,5.034665607E0
1.325363434E1,-4.190821648E-1,5.433971405E0,-1.346732378E-1,5.451771453E0
1.327301300E1,-6.872985363E-1,5.441573143E0,9.445393085E-1,5.565541488E0
1.329239166E1,-6.876497269E-1,4.607026100E0,1.411982775E0,4.867365508E0
1.331177033E1,-7.652201056E-1,3.331530571E0,1.458691359E0,3.716508877E0
1.333111847E1,-1.127913117E0,2.346700668E0,7.598714828E-1,2.712304684E0
1.335049713E1,-1.553476453E0,1.555077553E0,1.671788692E-1,2.204428284E0
1.336987580E1,-1.739111900E0,8.309326172E-1,5.968642235E-1,2.017723003E0
1.338925446E1,-1.755005002E0,2.770757675E-1,1.412152052E0,2.269578586E0
1.340863312E1,-1.810976982E0,-1.049852371E-1,1.757717967E0,2.525912109E0
1.342801178E1,-1.323134899E0,-9.303503036E-1,1.831733584E0,2.443662328E0
1.344739044E1,-2.779817879E-1,-2.694398880E0,2.827315331E0,3.915452870E0
1.346676911E1,1.731658578E-1,-4.671853065E0,4.095253944E0,6.215086673E0
1.348611725E1,-3.119382560E-1,-3.845880508E0,5.927322388E0,7.072570470E0
1.350549591E1,-8.801475763E-1,-3.868955612E0,4.994988918E0,6.379137213E0
1.352487457E1,4.555098116E-1,-4.627671242E0,1.314870954E0,4.832361321E0
1.354422272E1,2.640818059E-1,-3.120469093E0,-5.933543444E-1,3.187339947E0
1.356360138E1,-6.962689757E-2,-1.659891129E0,-2.210742712E0,2.765405902E0
1.358298004E1,-2.607378960E-1,-3.227888107E0,-3.627940416E0,4.863044062E0
1.360232819E1,-3.985698521E-1,-6.471324921E0,-4.048169136E0,7.643597158E0
1.362170685E1,-6.896811724E-1,-6.601124763E0,-3.551044703E0,7.527312053E0
1.364108551E1,-7.919461727E-1,-2.439414024E0,-2.909491301E0,3.878538275E0
1.366046417E1,-3.361102343E-1,4.094724655E-1,-1.918105006E0,1.989915728E0
1.367984284E1,-7.475858927E-2,2.043886185E0,-2.059437752E0,2.902471953E0
1.369922150E1,8.790940046E-3,3.407063484E0,-3.176809788E0,4.658355857E0
1.371860016E1,2.559645176E-1,4.629332542E0,-3.441709042E0,5.774218454E0
1.373797882E1,5.001726151E-1,5.633907318E0,-2.925859451E0,6.368024642E0
1.375732697E1,7.911957502E-1,6.037501335E0,-2.030518532E0,6.418755222E0
1.377670563E1,1.180021286E0,5.563078880E0,-1.164936066E0,5.804943833E0
1.379608429E1,1.601083517E0,4.525602341E0,-4.674451351E-1,4.823178405E0
1.381543244E1,1.840942621E0,3.788220406E0,2.144620419E-1,4.217306906E0
1.383481110E1,1.700264454E0,3.722686768E0,7.477252483E-1,4.160335206E0
1.385418976E1,1.125303507E0,3.666380882E0,1.310070276E0,4.052769533E0
1.387356842E1,5.234673023E-1,2.803083420E0,1.634422302E0,3.286735605E0
1.389291657E1,5.425408110E-2,1.469186783E0,1.611630917E0,2.181469120E0
1.391229523E1,-1.920625269E-1,4.705429077E-3,1.615260124E0,1.626645451E0
1.393167389E1,-5.530198812E-1,-1.526021004E0,1.433550596E0,2.165557297E0
1.395105255E1,-1.461315274E0,-3.302766800E0,2.243457079E0,4.251683258E0
1.397043122E1,-2.675640821E0,-5.027110100E0,4.372485161E0,7.179799178E0
1.398980988E1,-2.976155281E0,-5.993273735E0,6.618376732E0,9.411681087E0
1.400918854E1,-1.578837395E0,-5.594676971E0,4.164356232E0,7.150874125E0
1.402856720E1,-5.156188011E-1,-6.367555618E0,1.218501329E-1,6.389559825E0
1.404791535E1,2.260391116E-1,-5.615887642E0,-1.925068378E0,5.940974327E0
1.406729401E1,4.426128566E-1,-2.335415840E0,-2.389634371E0,3.370523062E0
1.408667267E1,6.738207340E-1,-2.187963486E0,-2.164449215E0,3.150564870E0
1.410602081E1,1.377106905E0,-4.682711601E0,-1.897765398E0,5.236957597E0
1.412539948E1,2.740629435E0,-4.664735794E0,-1.546637893E0,5.626979518E0
1.414477814E1,3.502434969E0,-1.589475632E0,-1.686537623E0,4.199749118E0
1.416415680E1,3.575438261E0,7.165269852E-1,-1.913511753E0,4.118093844E0
1.418350495E1,3.327240944E0,2.377986908E0,-1.793221831E0,4.465534522E0
1.420288361E1,2.804622889E0,3.721669197E0,-1.570113420E0,4.917518410E0
1.422226227E1,2.140249729E0,4.681529045E0,-1.402346253E0,5.335162427E0
1.424164093E1,1.430989981E0,5.252641678E0,-1.216731310E0,5.578387939E0
1.426101959E1,7.732352614E-1,5.759751320E0,-9.456880093E-1,5.887864965E0
1.428039826E1,2.524841130E-1,5.912853241E0,-6.722668409E-1,5.956301233E0
1.429977692E1,-2.565793991E-1,5.446651459E0,-1.222974658E-1,5.454062868E0
1.431912506E1,-7.547377348E-1,4.249283791E0,4.872974157E-1,4.343213160E0
1.433850372E1,-1.083592653E0,2.872139931E0,5.793823004E-1,3.123946970E0
1.435788239E1,-1.455804825E0,1.821441650E0,6.066550612E-1,2.409366667E0
1.437726105E1,-1.976410985E0,1.096521378E0,7.967807055E-1,2.396543137E0
1.439660919E1,-2.377646685E0,4.908161163E-1,1.267878294E0,2.738908466E0
1.441598786E1,-2.272750616E0,-3.102588654E-1,2.125830412E0,3.127428795E0
1.443536652E1,-2.046481133E0,-1.030180931E0,2.272916317E0,3.227306363E0
1.445474518E1,-1.003387570E0,-2.525016785E0,2.294027805E0,3.555989307E0
1.447409332E1,2.483388186E-1,-4.204864502E0,2.996218443E0,5.169127838E0
1.449347199E1,9.092325568E-1,-4.503112793E0,4.162169933E0,6.199063415E0
1.451285065E1,1.238342822E-1,-3.475906372E0,5.112822533E0,6.183705547E0
1.453222931E1,5.581577420E-1,-4.296422958E0,2.521049023E0,5.012631891E0
1.455160797E1,1.029530883E0,-2.154417038E0,6.334500313E-1,2.470365470E0
1.457098664E1,3.859701753E-1,-4.506349564E-1,-5.206720829E-1,7.893948682E-1
1.459036530E1,-1.745920628E-2,-8.375463486E-1,-1.663012147E0,1.862095086E0
1.460971344E1,-2.328412682E-1,-3.634689331E0,-2.934791803E0,4.677412160E0
1.462909210E1,-5.667419434E-1,-6.367714882E0,-3.680043221E0,7.376429174E0
1.464847077E1,-6.500580907E-1,-7.066525459E0,-3.564130068E0,7.941119614E0
1.466784943E1,-6.771602035E-1,-3.883018494E0,-3.121134043E0,5.027708850E0
1.468719757E1,-7.184481621E-1,-4.256982803E-1,-2.315941572E0,2.461904172E0
1.470657623E1,-5.265249610E-1,1.441543579E0,-1.501494408E0,2.147035603E0
1.472595490E1,-3.667311072E-1,2.969979286E0,-1.970902324E0,3.583256150E0
1.474530304E1,-1.355304718E-1,4.387771606E0,-2.331702709E0,4.970688655E0
1.476468170E1,1.510853171E-1,5.469952583E0,-2.115640402E0,5.866782964E0
1.478406036E1,3.836866617E-1,6.303235054E0,-1.537165642E0,6.499297332E0
1.480343903E1,6.232221127E-1,6.539253235E0,-9.414874315E-1,6.636010643E0
1.482281769E1,9.278092980E-1,6.126538277E0,-2.678003311E-1,6.202178518E0
1.484219635E1,1.201025486E0,5.156275749E0,4.397054911E-1,5.312530728E0
1.486157501E1,1.384178638E0,3.794042587E0,1.025319695E0,4.166772148E0
1.488092316E1,1.310477734E0,2.071537018E0,1.615347981E0,2.935637343E0
1.490030182E1,8.260563612E-1,7.248744965E-1,1.469699740E0,1.835164700E0
1.491968048E1,3.070389330E-1,1.427650452E-2,8.220889568E-1,8.776713382E-1
1.493905915E1,1.140726060E-1,-5.526390076E-1,5.417745113E-1,7.822672518E-1
1.495840729E1,-1.209748685E-1,-1.822471619E0,9.019538164E-1,2.037046491E0
1.497778595E1,-7.639691830E-1,-3.376639366E0,2.117425919E0,4.058181223E0
1.499716461E1,-2.003747463E0,-3.249543190E0,3.926727295E0,5.476652453E0
1.501654328E1,-2.528438091E0,-2.864829063E0,5.241253853E0,6.486215129E0
1.503589142E1,-9.584816694E-1,-4.256018639E0,4.264627457E0,6.100772829E0
1.505527008E1,-3.350788057E-1,-4.740004539E0,4.293943048E-1,4.771194851E0
1.507464874E1,5.825238675E-2,-4.746936798E0,-1.185989499E0,4.893196644E0
1.509402741E1,3.966870308E-1,-2.577715874E0,-1.319683313E0,2.922934104E0
1.511340607E1,6.700647473E-1,-4.329963684E0,-1.070952415E0,4.510489036E0
1.513278473E1,1.186991096E0,-7.221089363E0,-1.089036584E0,7.398586360E0
1.515216339E1,2.097186804E0,-6.060036659E0,-1.231599212E0,6.529860138E0
1.517151154E1,2.516216278E0,-1.284341812E0,-1.524143100E0,3.209967358E0
1.519089020E1,2.558797121E0,1.499282837E0,-1.871597767E0,3.506874667E0
1.521026886E1,2.508258343E0,2.744334221E0,-2.170302868E0,4.304990682E0
1.522964752E1,1.981841803E0,3.677027702E0,-2.305158615E0,4.770952305E0
1.524899567E1,1.094193816E0,4.597774506E0,-2.005650520E0,5.134143017E0
1.526838940E1,4.747435153E-1,5.352591515E0,-1.687615752E0,5.632376430E0
1.528776806E1,-4.239744693E-2,5.764694214E0,-1.561438084E0,5.972569448E0
1.530714672E1,-4.577725530E-1,5.491500854E0,-1.451377273E0,5.698476404E0
1.532649486E1,-7.691922188E-1,4.485963821E0,-1.095176220E0,4.681339448E0
1.534587353E1,-1.022370100E0,3.294350624E0,-4.132099748E-1,3.474007648E0
1.536525219E1,-1.198502302E0,2.304142952E0,7.870846987E-1,2.713850555E0
1.538460033E1,-1.598030567E0,1.937360764E0,1.655795336E0,3.008110140E0
1.540400951E1,-2.175265789E0,2.002867699E0,1.876866937E0,3.502269231E0
1.542338818E1,-2.536102772E0,1.387696266E0,2.235391617E0,3.654380095E0
1.544276684E1,-2.242964983E0,4.549694061E-2,2.449226141E0,3.321395878E0
1.546211498E1,-1.263408542E0,-1.708467484E0,2.247680187E0,3.093077514E0
1.548149364E1,-6.658081710E-2,-3.879398346E0,2.639050961E0,4.692414571E0
1.550087231E1,1.259830594E0,-4.798102379E0,4.131301403E0,6.455742471E0
1.552025097E1,4.420993924E-1,-2.453521729E0,8.744334221E0,9.092777448E0
1.553959911E1,8.124816418E-1,-3.302750587E0,5.290256977E0,6.289285074E0
1.555897778E1,1.524535656E0,-4.369306564E0,3.904064894E-1,4.644078600E0
1.557835644E1,9.950017929E-1,-4.540699005E0,-9.133734703E-1,4.737322780E0
1.559773510E1,-9.463879466E-2,-3.329385757E0,-2.590800285E0,4.219717069E0
1.561708324E1,-1.067259669E0,-4.038542747E0,-4.775739670E0,6.344805759E0
1.563646191E1,-2.585633993E0,-6.721618652E0,-6.300474644E0,9.568784729E0
1.565584057E1,-3.707859755E0,-6.929619789E0,-5.736653805E0,9.730213320E0
1.567518871E1,-3.124407053E0,-3.346099854E0,-3.371834278E0,5.685733907E0
1.569459789E1,-1.568635464E0,2.214803696E-1,-9.081373215E-1,1.826029618E0
1.571397655E1,-7.858145833E-1,2.693669319E0,-1.365590692E0,3.120608418E0
1.573335522E1,-3.300415874E-1,4.201822281E0,-3.278908014E0,5.339988361E0
1.575270336E1,5.070519447E-2,5.013051987E0,-3.274920940E0,5.988185736E0
1.577208202E1,4.191186726E-1,5.624170303E0,-2.254810333E0,6.073806196E0
1.579146068E1,8.561615944E-1,5.846730232E0,-1.263999701E0,6.042761151E0
1.581083935E1,1.344234467E0,5.580579758E0,-5.175693035E-1,5.763481128E0
1.583018749E1,1.655760884E0,4.954009056E0,-8.730614185E-2,5.224114489E0
1.584959667E1,1.825798631E0,3.950322151E0,1.549509168E-1,4.354606242E0
1.586894482E1,1.793184996E0,3.144041061E0,2.041054368E-1,3.625212498E0
1.588829296E1,1.639132977E0,2.644399643E0,1.972812414E-2,3.111269128E0
1.590767162E1,1.523314118E0,1.839922905E0,1.282505989E-1,2.392122575E0
1.592705029E1,1.193826795E0,5.588979721E-1,5.244169831E-1,1.418662233E0
1.594642895E1,7.716501951E-1,-5.708360672E-1,9.675327539E-1,1.362871039E0
1.596580761E1,1.445169151E-1,-1.549860001E0,1.643910885E0,2.263933338E0
1.598518627E1,-8.440340757E-1,-2.935855865E0,2.994498730E0,4.277693985E0
1.600456493E1,-2.294677019E0,-3.754567146E0,4.978949070E0,6.644716015E0
1.602394360E1,-3.846247673E0,-3.122144699E0,6.312156200E0,8.024009259E0
1.604329174E1,-2.364328384E0,-3.954680443E0,3.074848175E0,5.539335467E0
1.606267040E1,-9.698683023E-1,-4.181762695E0,-2.510254383E-1,4.300092736E0
1.608204906E1,2.127119154E-1,-3.816753387E0,-1.085213423E0,3.973731364E0
1.610139721E1,7.893632054E-1,-1.316154480E0,-1.227913857E0,1.965484501E0
1.612077587E1,1.215463519E0,-1.817577362E0,-9.416657090E-1,2.380687577E0
1.614015453E1,1.946533918E0,-5.246996880E0,-9.139841199E-1,5.670567654E0
1.615953320E1,3.285097122E0,-7.194577217E0,-9.543234110E-1,7.966463306E0
1.617888134E1,4.108624935E0,-4.024410248E0,-1.362907648E0,5.910515541E0
1.619826000E1,3.688338280E0,1.122474670E-3,-1.994356394E0,4.193005837E0
1.621763866E1,3.048555136E0,2.024586678E0,-2.156249046E0,4.247593387E0
1.623701733E1,2.249539137E0,3.167847633E0,-2.013253689E0,4.375942798E0
1.625639599E1,1.450985551E0,4.168449402E0,-1.737506986E0,4.743443898E0
1.627577465E1,8.259313107E-1,5.117608070E0,-1.290704966E0,5.342096424E0
1.629515331E1,2.877636850E-1,5.773435593E0,-7.479832172E-1,5.828794504E0
1.631450146E1,-3.200494051E-1,5.840355873E0,3.460880518E-1,5.859348538E0
1.633388012E1,-6.214764714E-1,4.824032784E0,1.106325746E0,4.988134116E0
1.635325878E1,-8.396725059E-1,3.391036034E0,1.439517379E0,3.778410457E0
1.637263744E1,-1.283917427E0,2.728709221E0,1.164826155E0,3.232818885E0
1.639198559E1,-1.975069642E0,2.807271004E0,4.426270723E-1,3.460865398E0
1.641136425E1,-2.614058971E0,2.741639137E0,2.660665512E-1,3.797457159E0
1.643074291E1,-2.985781908E0,2.046552658E0,1.065688968E0,3.773455228E0
1.645012157E1,-2.845621347E0,6.609373093E-1,1.919832587E0,3.495733992E0
1.646946972E1,-2.366232157E0,-1.575737000E-1,2.331696987E0,3.325762308E0
1.648884838E1,-9.329754114E-1,-2.001274109E0,3.414879322E0,4.066563901E0
1.650822704E1,3.024866283E-1,-5.065299988E0,4.386932850E0,6.707752377E0
1.652760571E1,9.965895414E-1,-7.046967506E0,3.050331593E0,7.743220556E0
1.654698437E1,1.362366080E0,-7.684404373E0,1.761612058E0,8.000586788E0
1.656639355E1,1.382453799E0,-5.939341545E0,1.545806170E0,6.290983485E0
1.658574169E1,2.347893864E-1,-1.173220634E0,6.893205643E-2,1.198467497E0
1.660508984E1,-4.098768532E-2,-2.587875366E0,-1.800178885E0,3.152685034E0
1.662446850E1,-5.589144230E-1,-5.694018364E0,-3.715565681E0,6.821998153E0
1.664384716E1,-1.258231044E0,-5.936128616E0,-4.704974174E0,7.678382010E0
1.666322582E1,-1.443375826E0,-3.711038589E0,-4.400801659E0,5.934829098E0
1.668257397E1,-1.602811813E0,-1.443111420E0,-3.728923082E0,4.307719075E0
1.670195263E1,-1.674723029E0,3.546056747E-1,-2.748928308E0,3.238371389E0
1.672133129E1,-1.331114054E0,2.251933098E0,-1.479927421E0,3.005536969E0
1.674070995E1,-6.882260442E-1,4.051118851E0,5.686759949E-2,4.109556297E0
1.676005810E1,4.269501567E-2,5.145950317E0,-2.932943106E-1,5.154478546E0
1.677943676E1,4.940225482E-1,4.980706215E0,-1.421556711E0,5.203106395E0
1.679881542E1,7.006456852E-1,4.629911423E0,-1.631868958E0,4.958828537E0
1.681816357E1,7.860738039E-1,4.559012413E0,-1.235982656E0,4.788544595E0
1.683757275E1,8.498415947E-1,4.454201698E0,-5.635700226E-1,4.569437020E0
1.685695141E1,9.175078869E-1,3.964854240E0,-3.432339430E-2,4.069774928E0
1.687633007E1,8.821229935E-1,2.927280426E0,3.842035532E-1,3.081351009E0
1.689567821E1,8.359366655E-1,1.845181465E0,8.936536312E-1,2.214069005E0
1.691505688E1,9.034179449E-1,1.371851921E0,1.175691485E0,2.019998056E0
1.693443554E1,9.620254040E-1,1.078623772E0,5.684602857E-1,1.553083776E0
1.695381420E1,1.000019550E0,1.033649445E-1,7.282484770E-1,1.241398106E0
1.697316235E1,1.866251826E-1,-1.127214432E0,2.001168013E0,2.304368623E0
1.699254101E1,-1.195955753E0,-3.047649384E0,4.504298210E0,5.568409045E0
1.701191967E1,-2.164596319E0,-5.039040565E0,6.699810982E0,8.658225813E0
1.703126781E1,-7.599446774E-1,-4.656172752E0,4.247606754E0,6.348198465E0
1.705064648E1,-7.029272318E-1,-4.309254646E0,1.474696994E-1,4.368698847E0
1.707002514E1,-2.215155959E-1,-5.922668457E0,-1.737161875E0,6.176147844E0
1.708937328E1,1.476779878E-1,-3.465398788E0,-1.898412347E0,3.954082320E0
1.710878246E1,3.765712380E-1,-2.729806900E-1,-1.219401479E0,1.305091691E0
1.712816113E1,6.782303452E-1,-1.192946434E0,-1.063492894E0,1.736126358E0
1.714753979E1,1.442936420E0,-4.354791641E0,-1.041578293E0,4.704376802E0
1.716691845E1,2.979964256E0,-4.556105614E0,-1.551206112E0,5.660788437E0
1.718626659E1,3.524420261E0,-2.167925835E0,-1.808076859E0,4.515593264E0
1.720564526E1,2.993745804E0,2.151374817E-1,-1.979616761E0,3.595508392E0
1.722502392E1,2.153965235E0,1.810028076E0,-1.782594919E0,3.330677486E0
1.724437206E1,1.426355362E0,2.629250526E0,-1.414355993E0,3.308753666E0
1.726375072E1,7.503672838E-1,3.387196541E0,-8.704389334E-1,3.576844336E0
1.728312939E1,8.627244830E-2,4.152601242E0,-1.066660285E-1,4.154866743E0
1.730250805E1,-6.271089911E-1,4.769009590E0,1.083355427E0,4.930555459E0
1.732185619E1,-9.147248268E-1,4.818437576E0,1.333024263E0,5.082422245E0
1.734123486E1,-1.049722195E0,4.494449615E0,9.119396806E-1,4.704638989E0
1.736061352E1,-1.240085125E0,3.904932976E0,4.484984875E-1,4.121585078E0
1.737999218E1,-1.692518115E0,3.398323059E0,1.253947616E-1,3.798544594E0
1.739937084E1,-2.397407293E0,3.184529305E0,3.135136366E-1,3.998384602E0
1.741874950E1,-2.829768658E0,2.938398361E0,1.185461640E0,4.248187247E0
1.743812817E1,-2.763033390E0,2.028164864E0,1.866428018E0,3.902737472E0
1.745747631E1,-2.389247656E0,8.730382919E-1,1.757054806E0,3.091592116E0
1.747685497E1,-1.373112440E0,-9.531354904E-1,1.755490780E0,2.423974611E0
1.749623363E1,-6.898140907E-1,-3.814748764E0,2.851411819E0,4.812348800E0
1.751561230E1,-1.177510470E-1,-5.937716484E0,4.415903091E0,7.400712295E0
1.753496044E1,6.421815753E-1,-4.969058990E0,4.448372364E0,6.700146350E0
1.755433910E1,4.256271720E-1,-5.256248474E0,1.705968380E0,5.542529623E0
1.757371776E1,7.862088680E-1,-5.239800453E0,-1.966940165E-1,5.302105403E0
1.759309643E1,2.014289945E-1,-2.471465111E0,-2.143028736E0,3.277390059E0
1.761244457E1,-1.629142165E-1,-2.030016899E0,-3.350334167E0,3.920745935E0
1.763182323E1,-4.436345696E-1,-4.572224617E0,-3.616883516E0,5.846699578E0
1.765120190E1,-5.421802402E-1,-6.139163017E0,-3.106857538E0,6.901872625E0
1.767055004E1,-4.184049666E-1,-5.019059181E0,-2.421086788E0,5.588173138E0
1.768995922E1,-6.281492114E-2,-2.309084892E0,-1.895420671E0,2.988049242E0
1.770933788E1,1.314186454E-1,3.242397308E-2,-1.135748506E0,1.143786187E0
1.772871654E1,1.411931515E-1,1.657340050E0,-1.533884406E0,2.262634066E0
1.774806469E1,3.789716959E-2,3.042139053E0,-2.675907373E0,4.051731295E0
1.776744335E1,1.433719695E-1,4.330306053E0,-2.802601576E0,5.160104808E0
1.778682201E1,3.589304984E-1,5.352992058E0,-2.132381916E0,5.773249320E0
1.780620068E1,5.735225677E-1,6.009431839E0,-1.350648880E0,6.185988325E0
1.782554882E1,7.523735762E-1,6.294039726E0,-7.252451777E-1,6.380202398E0
1.784492748E1,9.329876900E-1,6.086806297E0,-1.629181504E-1,6.160050264E0
1.786430614E1,1.161185741E0,5.141126633E0,7.430663705E-1,5.322751451E0
1.788365429E1,1.245146751E0,3.551701546E0,1.748071909E0,4.149786706E0
1.790303295E1,6.953512430E-1,2.092012405E0,1.583857179E0,2.714522576E0
1.792241161E1,1.551599950E-1,8.115272522E-1,1.104003429E0,1.378939693E0
1.794179028E1,-8.122304827E-2,-5.588550568E-1,5.624642372E-1,7.970459059E-1
1.796113842E1,-4.161251485E-1,-2.040367126E0,1.951489449E-1,2.091492592E0
1.798054760E1,-1.276693344E0,-3.263553619E0,9.639248848E-1,3.634539765E0
1.799992626E1,-2.841761827E0,-3.660629272E0,3.345885277E0,5.715834606E0
1.801930492E1,-2.185939789E0,-4.172460556E0,6.786107063E0,8.260690584E0
1.803865307E1,-1.903635859E0,-2.314970970E0,3.789053917E0,4.831133373E0
1.805803173E1,-1.559241533E0,-3.630878448E0,-4.750734568E-1,3.979975786E0
1.807741039E1,-4.599469304E-1,-5.887487411E0,-1.840032101E0,6.185448838E0
1.809678905E1,4.256679714E-1,-3.177718163E0,-1.085497618E0,3.384876810E0
1.811613720E1,7.732372880E-1,-6.136035919E-2,1.234652996E-1,7.854327963E-1
1.813551586E1,9.665802717E-1,-1.967527390E0,-3.677888513E-1,2.222770813E0
1.815489452E1,2.175751209E0,-6.333589554E0,-1.176921129E0,6.799514196E0
1.817424267E1,4.280994892E0,-6.767291069E0,-1.484774947E0,8.144182115E0
1.819362133E1,4.270618439E0,-1.793251038E0,-1.571840048E0,4.891279206E0
1.821299999E1,3.490002394E0,1.726882935E0,-1.546319008E0,4.189671091E0
1.823240917E1,2.677731991E0,3.083269119E0,-1.504475832E0,4.352039132E0
1.825175732E1,1.716632724E0,3.699438095E0,-1.450223684E0,4.328489212E0
1.827113598E1,8.966242075E-1,4.531927109E0,-1.187323570E0,4.769909386E0
1.829051464E1,5.979860574E-2,5.623659134E0,-4.726697206E-1,5.643804975E0
1.830989330E1,-4.610694051E-1,6.356327057E0,2.185714245E-2,6.373064913E0
1.832924145E1,-7.056693435E-1,6.357426643E0,2.948119640E-1,6.403261422E0
1.834862011E1,-7.997870445E-1,5.249391556E0,5.151622295E-1,5.334900481E0
1.836799877E1,-1.053176999E0,3.744151115E0,3.454936743E-1,3.904768270E0
1.838734692E1,-1.717830300E0,2.602243423E0,9.018003941E-2,3.119414082E0
1.840672558E1,-2.233892918E0,1.644277573E0,5.873848200E-1,2.835303728E0
1.842610424E1,-2.170120239E0,7.352342606E-1,1.632852793E0,2.813574153E0
1.844548290E1,-1.701057673E0,-1.664142609E-1,2.803851366E0,3.283728581E0
1.846483105E1,-1.325568795E0,-8.765859604E-1,3.095735550E0,3.479815250E0
1.848420971E1,-1.017776966E0,-2.088916779E0,2.504253387E0,3.416244764E0
1.850358837E1,-5.968279243E-1,-3.818536758E0,2.390542984E0,4.544460618E0
1.852296703E1,-1.506153792E-1,-4.242015839E0,3.610924006E0,5.572804998E0
1.854234570E1,-1.521015167E-1,-3.841272354E0,4.471501350E0,5.896849370E0
1.856172436E1,-1.257540733E-1,-4.479826927E0,3.131240845E0,5.467113737E0
1.858110302E1,4.788705409E-1,-4.811061859E0,5.027437210E-1,4.860903667E0
1.860045116E1,1.673382074E-1,-2.835877419E0,-1.342349172E0,3.141990469E0
1.861982983E1,-4.079906046E-1,-5.090942383E-1,-3.034962654E0,3.104292446E0
1.863920849E1,-5.214421749E-1,-2.168612480E0,-3.721935272E0,4.339076423E0
1.865858715E1,-2.957563698E-1,-4.790158272E0,-2.675544024E0,5.494690521E0
1.867793530E1,-1.197503954E-1,-4.993424416E0,-1.792220354E0,5.306663862E0
1.869731396E1,4.674896598E-2,-2.655396461E0,-1.449924469E0,3.025821673E0
1.871669262E1,-3.487211466E-2,-8.196649551E-1,-1.465186238E0,1.679237153E0
1.873607128E1,-3.165589571E-1,3.515224457E-1,-2.150361061E0,2.201778894E0
1.875541942E1,-4.015365243E-1,1.684465408E0,-3.197744608E0,3.636512872E0
1.877479809E1,-1.919547021E-1,3.003871918E0,-3.366508484E0,4.515913250E0
1.879417675E1,2.208756208E-1,4.121763229E0,-2.562749386E0,4.858539140E0
1.881352489E1,4.903387129E-1,4.952895164E0,-1.694563150E0,5.257675041E0
1.883293407E1,6.651943922E-1,5.470125198E0,-1.033078313E0,5.606425248E0
1.885231274E1,8.004211783E-1,5.728601456E0,-5.128884315E-1,5.806944398E0
1.887169140E1,9.730185270E-1,5.556856155E0,-1.694500446E-2,5.641427348E0
1.889103954E1,1.174935460E0,4.604222298E0,9.692758322E-1,4.849621835E0
1.891041821E1,1.176477790E0,3.255141258E0,1.978013039E0,3.986549910E0
1.892979687E1,6.678301692E-1,2.216297150E0,1.484122992E0,2.749652932E0
1.894920605E1,4.811131060E-1,1.253989220E0,9.185786247E-1,1.627189440E0
1.896852367E1,4.820458293E-1,1.506805420E-3,8.580339551E-1,9.841710827E-1
1.898790234E1,4.641458392E-2,-1.411346436E0,1.434513688E0,2.012928860E0
1.900728100E1,-1.241564035E0,-2.711848259E0,3.125056267E0,4.319904965E0
1.902662914E1,-3.536369324E0,-4.497787476E0,6.162642479E0,8.409171332E0
1.904600780E1,-2.431897402E0,-5.326862335E0,5.855636597E0,8.281187552E0
1.906538647E1,-2.253734827E0,-5.589741707E0,2.115961552E0,6.387630727E0
1.908476513E1,-1.210961580E0,-5.859044075E0,-1.037080288E-1,5.983776464E0
1.910411327E1,-4.293391705E-1,-5.647970200E0,-1.590372562E0,5.883297068E0
1.912352245E1,1.484417915E-1,-2.051743507E0,-1.263101459E0,2.413941110E0
1.914290112E1,6.606336832E-1,4.475107193E-1,-6.597645283E-1,1.035370436E0
1.916227978E1,1.073172927E0,-1.494102478E0,-8.034130931E-1,2.007365175E0
1.918162792E1,2.104459047E0,-5.579638481E0,-1.102637291E0,6.064397947E0
1.920100658E1,3.936219692E0,-5.449930191E0,-1.354748487E0,6.857908429E0
1.922038525E1,3.892139673E0,-1.567061424E0,-1.850243092E0,4.585611436E0
1.923973339E1,3.038371801E0,1.395540237E0,-2.158994198E0,3.980011521E0
1.925911205E1,2.271262169E0,2.773808479E0,-2.073712349E0,4.141609376E0
1.927849071E1,1.485428810E0,3.425490379E0,-1.902883053E0,4.190638018E0
1.929786938E1,7.780995965E-1,4.266214371E0,-1.692219257E0,4.655064989E0
1.931721752E1,1.381391734E-1,5.273765564E0,-1.058484912E0,5.380713332E0
1.933659618E1,-5.559244156E-1,6.186218262E0,1.825671196E-1,6.213829664E0
1.935597485E1,-6.805034876E-1,6.203367233E0,5.710994005E-1,6.266658165E0
1.937535351E1,-6.627257466E-1,5.148990631E0,8.373852968E-1,5.258566732E0
1.939470165E1,-8.028910756E-1,3.772659302E0,6.291749477E-1,3.908126585E0
1.941411083E1,-1.497186422E0,2.820179939E0,5.441999435E-2,3.193421928E0
1.943348949E1,-2.115557432E0,2.222664833E0,-3.357565403E-2,3.068704863E0
1.945286816E1,-2.257260799E0,1.753107071E0,8.867405653E-1,2.992477159E0
1.947221630E1,-2.089637756E0,7.943811417E-1,1.811225533E0,2.877180092E0
1.949159496E1,-1.970915794E0,-2.734079361E-1,2.334552765E0,3.067474137E0
1.951097363E1,-1.567905545E0,-1.994062424E0,2.315794945E0,3.434751661E0
1.953032177E1,-5.297293663E-1,-5.058288574E0,3.514170170E0,6.181932423E0
1.954970043E1,3.082115948E-1,-7.123198509E0,5.667869091E0,9.108221090E0
1.956907909E1,7.936491966E-1,-5.126853943E0,7.353600502E0,8.999441691E0
1.958845776E1,-5.352429748E-1,-1.994982719E0,5.203444481E0,5.598417237E0
1.960780590E1,5.741445422E-1,-5.061821938E0,5.651078224E-1,5.125527303E0
1.962718456E1,1.242119312E0,-4.140080452E0,-7.156636715E-1,4.381244233E0
1.964656322E1,2.434755862E-2,-5.287189484E-1,-2.926923990E0,2.974394153E0
1.966594189E1,-5.405977964E-1,8.338575363E-1,-4.594437599E0,4.700683059E0
1.968532055E1,-5.326113105E-1,-2.141002655E0,-4.843913078E0,5.322693030E0
1.970469921E1,-7.814880610E-1,-6.477871895E0,-3.478898764E0,7.394341383E0
1.972407787E1,-1.091180444E0,-7.030569077E0,-2.185318470E0,7.442794711E0
1.974342602E1,-6.824640036E-1,-2.380450249E0,-2.807244301E0,3.743383639E0
1.976280468E1,-3.738944232E-1,5.608720779E-1,-3.560258389E0,3.623508565E0
1.978218334E1,-3.571963906E-1,2.018994331E0,-3.522508621E0,4.075781441E0
1.980156200E1,-3.018397689E-1,3.639079094E0,-3.152078629E0,4.823857749E0
1.982091015E1,-1.623637676E-1,5.211217880E0,-2.576806545E0,5.815761838E0
1.984028881E1,4.359701276E-2,6.414872169E0,-1.961951852E0,6.708333677E0
1.985966747E1,3.542679846E-1,7.082934380E0,-1.262406230E0,7.203272501E0
1.987904613E1,6.389055252E-1,7.207212448E0,-5.850186944E-1,7.259087988E0
1.989842480E1,1.103043795E0,6.557125092E0,1.601741910E-1,6.651184169E0
1.991777294E1,1.772588849E0,4.892976761E0,1.057201624E0,5.310458369E0
1.993715160E1,2.599662781E0,2.447724342E0,2.522490263E0,4.371791184E0
1.995649975E1,2.524858236E0,4.146261215E-1,2.879822731E0,3.852298391E0
1.997590893E1,1.536179304E0,-5.948057175E-1,1.964585066E0,2.563832127E0
1.999528759E1,7.414669394E-1,-1.745429039E0,1.225002050E0,2.257637211E0
2.001466625E1,4.634988308E-2,-2.866229057E0,1.019985914E0,3.042661431E0
2.003401440E1,-1.219796896E0,-4.122230530E0,1.749720335E0,4.641358665E0
2.005339306E1,-3.253799438E0,-5.267702103E0,4.250855923E0,7.510370983E0
2.007277172E1,-2.128606796E0,-5.785813332E0,5.513875008E0,8.270998755E0
2.009215038E1,-3.126783371E0,-3.959743500E0,2.705485821E0,5.725032433E0
2.011149853E1,-1.862991691E0,-4.973387718E0,1.477307081E-1,5.312922717E0
2.013087719E1,-7.709705830E-1,-5.331022263E0,-1.343601108E0,5.551527532E0
2.015025585E1,5.289211869E-2,-1.747446060E0,-1.164326668E0,2.100481349E0
2.016960400E1,6.158218384E-1,7.593269348E-1,-6.227144599E-1,1.159132102E0
2.018898266E1,1.183722138E0,-2.243385315E-1,-7.005882263E-1,1.393682080E0
2.020836132E1,2.231961727E0,-4.081920624E0,-1.036569357E0,4.766361837E0
2.022773998E1,3.404288292E0,-4.900479317E0,-2.243662119E0,6.374785958E0
2.024708813E1,2.869528294E0,-1.063918114E0,-2.842779160E0,4.177021395E0
2.026649731E1,1.679236650E0,1.695207596E0,-2.649482250E0,3.565574388E0
2.028587597E1,7.027630806E-1,2.814269066E0,-2.309026241E0,3.707504350E0
2.030525463E1,1.396899819E-1,3.764964104E0,-1.938568830E0,4.237041079E0
2.032460278E1,-2.598696649E-1,4.853273392E0,-1.427597046E0,5.065553097E0
2.034398144E1,-5.238251686E-1,5.860311508E0,-7.478256822E-1,5.931010625E0
2.036336010E1,-8.543573618E-1,6.613783836E0,3.943523765E-1,6.680387484E0
2.038270824E1,-8.160949945E-1,6.725502014E0,9.186217785E-1,6.836830724E0
2.040208691E1,-5.500776172E-1,5.556965828E0,1.547575712E0,5.794604834E0
2.042146557E1,-4.185375571E-1,3.376670837E0,1.696850300E0,3.802154727E0
2.044084423E1,-6.915252209E-1,1.382295609E0,1.215220213E0,1.966140495E0
2.046019238E1,-9.306250811E-1,-1.092185974E-1,3.706790209E-1,1.007667941E0
2.047957104E1,-8.110048771E-1,-1.282921791E0,-1.242799759E-1,1.522846921E0
2.049894970E1,-5.416281223E-1,-2.100665092E0,5.963080525E-1,2.249830693E0
2.051832836E1,-8.200713992E-1,-2.416973114E0,1.209428191E0,2.824357039E0
2.053767650E1,-1.120074987E0,-3.279138565E0,1.893434763E0,3.948722946E0
2.055708568E1,-7.918742895E-1,-5.141675949E0,3.647106171E0,6.353367601E0
2.057646435E1,-8.502498865E-1,-4.663312912E0,4.962935448E0,6.862954207E0
2.059581249E1,-1.430557728E0,-1.678130150E0,6.500761986E0,6.864584664E0
2.061522167E1,-2.299271345E0,-6.464624405E-1,8.011453629E0,8.359901414E0
2.063456982E1,-8.491045237E-1,-2.394713402E0,1.884092212E0,3.163136771E0
2.065394848E1,3.846458197E-1,-1.768200874E0,-1.633275270E0,2.437637144E0
2.067329662E1,-1.873519719E-1,-6.289958954E-1,-4.005044937E0,4.058462954E0
2.069267528E1,-9.510780573E-1,-1.088263512E0,-5.454507351E0,5.642740237E0
2.071205395E1,-9.559055567E-1,-3.831046104E0,-4.835861206E0,6.243094048E0
2.073143261E1,-5.833021402E-1,-6.006536484E0,-2.590616226E0,6.567344543E0
2.075078075E1,-8.481353521E-2,-4.933565140E0,9.732270241E-2,4.935253796E0
2.077015942E1,7.269539237E-1,-1.579099655E0,-6.275085211E-1,1.848184155E0
2.078953808E1,1.378858805E0,-4.609012604E-1,-3.221563339E0,3.534423846E0
2.080888622E1,1.432344437E0,7.423343658E-1,-4.171901226E0,4.472966659E0
2.082829540E1,1.268293738E0,2.794162750E0,-3.312387943E0,4.515288293E0
2.084767406E1,1.117369652E0,4.555474281E0,-2.261566162E0,5.207258624E0
2.086705273E1,1.062016368E0,5.872190475E0,-1.464909673E0,6.144628556E0
2.088640087E1,1.104471803E0,6.695542336E0,-8.651232719E-1,6.840949013E0
2.090577953E1,1.252117634E0,7.069055557E0,-3.213891387E-1,7.186281098E0
2.092515820E1,1.515774727E0,6.855751038E0,2.950022817E-1,7.027511769E0
2.094453686E1,2.350966930E0,5.455006599E0,1.903616309E0,6.237619543E0
2.096388500E1,2.468894005E0,3.579340935E0,2.321551800E0,4.929170508E0
2.098326366E1,1.888499498E0,2.375946999E0,1.824059248E0,3.541009268E0
2.100264233E1,1.393827319E0,9.666843414E-1,1.367395282E0,2.178761820E0
2.102199047E1,8.805058599E-1,-7.090511322E-1,5.883482099E-1,1.274440149E0
2.104136913E1,2.053523064E-1,-2.298183441E0,3.071803451E-1,2.327697674E0
2.106074780E1,-7.292941809E-1,-3.729943275E0,1.597639918E0,4.122717568E0
2.108012646E1,-2.362403870E0,-4.928963661E0,4.177082062E0,6.879218660E0
2.109947460E1,-3.350422144E0,-5.341313362E0,6.535034180E0,9.080838546E0
2.111888378E1,-1.372145176E0,-5.158505440E0,4.016757488E0,6.680366867E0
2.113826244E1,-7.084926367E-1,-5.115609169E0,-6.679126024E-1,5.207449110E0
2.115764110E1,2.260248363E-1,-5.627974510E0,-2.097525120E0,6.010390665E0
2.117698925E1,6.022918224E-1,-1.766306877E0,-1.908764124E0,2.669452360E0
2.119636791E1,7.650903463E-1,4.170246124E-1,-1.468027592E0,1.707154877E0
2.121574657E1,1.402438402E0,-2.519361496E0,-1.298820734E0,3.162428042E0
2.123512524E1,2.847993135E0,-5.484646797E0,-1.625935555E0,6.390311559E0
2.125447338E1,3.778069973E0,-3.594060898E0,-1.767539263E0,5.505931484E0
2.127385204E1,3.220250368E0,-3.004322052E-1,-1.944342017E0,3.773690213E0
2.129323071E1,2.354461193E0,1.546339035E0,-1.991586328E0,3.449792461E0
2.131257885E1,1.352305055E0,2.777162552E0,-1.920944214E0,3.637497419E0
2.133195751E1,4.189038873E-1,3.896916389E0,-1.707863450E0,4.275305296E0
2.135133617E1,-2.590380013E-1,5.055450439E0,-1.406576157E0,5.253868700E0
2.137071484E1,-9.094990492E-1,6.166797638E0,-5.243851542E-1,6.255522474E0
2.139006298E1,-1.230230570E0,6.598320007E0,1.725625992E-1,6.714243965E0
2.140947216E1,-1.225325227E0,5.705779076E0,3.522665501E-1,5.846488561E0
2.142885082E1,-1.316423535E0,4.054627419E0,5.813174248E-1,4.302430055E0
2.144822948E1,-1.905516267E0,2.951534271E0,7.649933100E-1,3.595519651E0
2.146757763E1,-2.554658413E0,2.538800240E0,8.613559008E-1,3.703204052E0
2.148695629E1,-2.549257755E0,2.167726517E0,1.201946259E0,3.555619238E0
2.150633495E1,-2.069651604E0,1.371190071E0,1.811123133E0,3.073074515E0
2.152568310E1,-1.830720186E0,3.680553436E-1,1.925853372E0,2.682519775E0
2.154506176E1,-1.389052033E0,-1.024911880E0,1.677100062E0,2.406776793E0
2.156444042E1,-6.187104583E-1,-3.861884117E0,2.405500412E0,4.591664600E0
2.158381908E1,9.527388215E-2,-6.885136604E0,4.518692017E0,8.236064638E0
2.160316723E1,1.155008078E-1,-4.916535378E0,7.335534573E0,8.831519010E0
2.162254589E1,-1.522160530E0,-3.121685982E0,5.318076134E0,6.351679291E0
2.164192455E1,1.586447805E-1,-5.561003685E0,3.457679749E-1,5.574000865E0
2.166130321E1,1.895784438E-1,-3.476277351E0,-2.063340187E0,4.046951561E0
2.168065136E1,-8.514401317E-1,-1.236684799E0,-3.905753374E0,4.184405455E0
2.170006054E1,-1.139806151E0,-2.457312584E0,-4.826061726E0,5.534294443E0
2.171943920E1,-9.429013133E-1,-5.629074097E0,-3.728883743E0,6.817632437E0
2.173878735E1,-6.164513230E-1,-6.023224831E0,-1.143552542E0,6.161733685E0
2.175816601E1,-3.305157423E-1,-2.786649704E0,-3.941130638E-1,2.833722346E0
2.177754467E1,-3.531012684E-2,-1.046686172E-1,-2.148115158E0,2.150953523E0
2.179692333E1,-1.107341051E-1,1.323985100E0,-3.674378395E0,3.907205546E0
2.181627148E1,-8.968453854E-2,2.508417130E0,-3.602575541E0,4.390757376E0
2.183565014E1,2.496886626E-2,3.804312706E0,-2.768330574E0,4.705005077E0
2.185502880E1,1.160820946E-1,5.036396980E0,-1.977308512E0,5.411886782E0
2.187440746E1,2.590029836E-1,5.880134583E0,-1.282297373E0,6.023898389E0
2.189375561E1,3.537522554E-1,6.297417641E0,-6.995177269E-1,6.346017227E0
2.191313427E1,4.986857176E-1,5.985957146E0,9.545135498E-2,6.007452152E0
2.193251293E1,6.303409934E-1,4.667821884E0,8.195053935E-1,4.780949696E0
2.195186108E1,4.144569039E-1,3.239680290E0,9.419590831E-1,3.399204293E0
2.197127026E1,-3.606224060E-2,2.324059486E0,5.655938983E-1,2.392164175E0
2.199064892E1,-2.752723992E-1,1.590209007E0,-4.168307781E-2,1.614396810E0
2.201002758E1,-2.007038295E-1,8.101024628E-1,-3.989136815E-1,9.250298118E-1
2.202937572E1,-1.762577891E-2,-2.825193405E-1,-5.736798048E-2,2.888233561E-1
2.204875439E1,-9.810060263E-3,-1.604915619E0,1.553429961E0,2.233605835E0
2.206813305E1,-1.297058344E0,-2.707306862E0,3.699841499E0,4.764524941E0
2.208751171E1,-2.640434265E0,-4.495090485E0,6.730994701E0,8.513754826E0
2.210685986E1,-1.079282165E0,-4.999451637E0,5.215751648E0,7.305027852E0
2.212623852E1,-7.331446409E-1,-6.570652962E0,2.826812267E-1,6.617468556E0
2.214561718E1,-1.621580124E-2,-6.900711060E0,-2.398775101E0,7.305764715E0
2.216496532E1,2.866018414E-1,-2.832877159E0,-2.419586182E0,3.736539964E0
2.218434399E1,6.260195971E-1,-9.019117355E-1,-1.736691475E0,2.054614950E0
2.220372265E1,1.127170205E0,-2.783045769E0,-1.300301075E0,3.272100137E0
2.222310131E1,2.268557072E0,-4.564626694E0,-8.593009710E-1,5.169193960E0
2.224244946E1,3.724212885E0,-3.404782295E0,-3.648942113E-1,5.059194785E0
2.226182812E1,4.128596783E0,-1.061539650E0,-5.184360147E-1,4.294293158E0
2.228123730E1,3.687748432E0,9.393758774E-1,-1.137807846E0,3.971967048E0
2.230061596E1,2.931728363E0,2.327140808E0,-1.407603025E0,3.998995100E0
2.231996410E1,1.994009972E0,3.367146492E0,-1.423954606E0,4.164300420E0
2.233934276E1,1.048206091E0,4.362597466E0,-1.269257545E0,4.662832548E0
2.235872143E1,1.391876042E-1,5.377101898E0,-6.911575198E-1,5.423126103E0
2.237806957E1,-6.032811403E-1,5.921111107E0,2.367075682E-1,5.956470041E0
2.239744823E1,-8.110829592E-1,5.474723816E0,6.122564077E-1,5.568241584E0
2.241682690E1,-8.701864481E-1,4.283790588E0,5.506527424E-1,4.405826222E0
2.243620556E1,-1.024903774E0,3.115094185E0,1.008464098E-1,3.280915958E0
2.245555370E1,-1.604806304E0,2.699728966E0,-2.669719458E-1,3.152017415E0
2.247493236E1,-2.422137976E0,2.963773727E0,1.847336292E-1,3.832079539E0
2.249431103E1,-2.843188047E0,2.955167770E0,1.384363532E0,4.328186365E0
2.251368969E1,-2.543505907E0,1.885743141E0,2.346882343E0,3.941231562E0
2.253303783E1,-2.189693928E0,7.794656754E-1,2.265150547E0,3.245494298E0
2.255244701E1,-9.430964589E-1,-1.139282227E0,2.408459663E0,2.826317900E0
2.257182568E1,-4.386281222E-2,-4.182164192E0,3.596846104E0,5.516314274E0
2.259120434E1,5.570389032E-1,-6.804241180E0,5.560652256E0,8.805046501E0
2.261055248E1,4.989945889E-1,-4.880473137E0,4.424028873E0,6.606061240E0
2.262993114E1,5.647660494E-1,-5.246837616E0,6.681841612E-1,5.319279625E0
2.264930981E1,8.589815497E-1,-4.966274261E0,-2.820138931E-1,5.047896708E0
2.266865795E1,-6.116710603E-2,-2.003998756E0,-1.694122553E0,2.624843549E0
2.268803661E1,-5.850387216E-1,-1.953181267E0,-2.900314569E0,3.545280238E0
2.270741528E1,-9.284964800E-1,-5.276893616E0,-3.471014023E0,6.384015217E0
2.272679394E1,-6.429281831E-1,-7.576645851E0,-2.905390739E0,8.140037736E0
2.274614208E1,-1.013824642E-1,-5.229020119E0,-2.005136967E0,5.601205590E0
2.276552074E1,-3.585225344E-2,-1.158139229E0,-1.442105412E0,1.849929695E0
2.278489941E1,-8.291909099E-2,8.819780350E-1,-1.200685024E0,1.492114391E0
2.280427807E1,-1.441693604E-1,2.455120087E0,-2.263266087E0,3.342270609E0
2.282362621E1,-5.965901911E-2,4.063361168E0,-3.068268538E0,5.092026610E0
2.284303539E1,2.504507601E-1,5.533487320E0,-2.735926390E0,6.177985166E0
2.286241405E1,3.865156174E-1,6.765794754E0,-1.875476956E0,7.031556498E0
2.288176220E1,4.718956053E-1,7.574022293E0,-9.038946033E-1,7.642350726E0
2.290114086E1,6.412010789E-1,7.634615898E0,-1.118668914E-1,7.662311201E0
2.292051952E1,9.894329906E-1,6.452450752E0,7.135623693E-1,6.566754877E0
2.293989818E1,1.406642556E0,3.793773651E0,1.946117401E0,4.489847964E0
2.295924633E1,1.030994534E0,1.010739326E0,2.426529646E0,2.823577489E0
2.297862499E1,1.728895307E-2,-6.530570984E-1,2.083576918E0,2.183592282E0
2.299803417E1,-4.898381233E-1,-6.049213409E-1,1.406300545E0,1.607343286E0
2.301738232E1,-3.434665799E-1,-6.786336899E-1,1.124732971E0,1.357769212E0
2.303673046E1,-7.341765165E-1,-1.867670059E0,1.091591001E0,2.284464384E0
2.305610912E1,-1.467591166E0,-3.756864548E0,2.309003592E0,4.647510371E0
2.307548778E1,-2.733821154E0,-4.644867897E0,4.942472935E0,7.312770651E0
2.309483593E1,-1.551034927E0,-4.530698776E0,5.129596233E0,7.017527931E0
2.311421459E1,-1.236720085E0,-3.675527573E0,1.267154336E0,4.079786712E0
2.313362377E1,-5.530700684E-1,-4.894260406E0,-1.314142466E0,5.097709471E0
2.315300243E1,1.031345427E-1,-4.220277786E0,-1.732621670E0,4.563261901E0
2.317235058E1,5.564349890E-1,-1.309286118E0,-9.754199982E-1,1.724904115E0
2.319172924E1,1.062679529E0,-1.453058243E0,-6.607852578E-1,1.917629577E0
2.321110790E1,2.006402493E0,-4.710212708E0,-9.336549044E-1,5.204177763E0
2.323048656E1,3.633654118E0,-6.224454880E0,-1.594002366E0,7.381607165E0
2.324983471E1,4.173295021E0,-3.327094078E0,-1.662965059E0,5.590295084E0
2.326921337E1,3.399446487E0,1.202869415E-1,-1.824322224E0,3.859903748E0
2.328859203E1,2.203359604E0,2.046859741E0,-1.924651146E0,3.570533626E0
2.330794018E1,1.111094236E0,3.082086563E0,-1.831997752E0,3.753665375E0
2.332731884E1,3.142859340E-1,4.142443657E0,-1.549217701E0,4.433812195E0
2.334669750E1,-5.546816587E-1,5.305367470E0,-5.378504992E-1,5.361331821E0
2.336607616E1,-9.210621715E-1,6.071673393E0,-1.444822550E-1,6.142837165E0
2.338542431E1,-1.012006402E0,5.832672119E0,7.552003860E-2,5.920297652E0
2.340480297E1,-1.148548722E0,4.502873421E0,1.568868160E-1,4.649693182E0
2.342421215E1,-1.890192032E0,3.583466530E0,1.755263805E-1,4.055227219E0
2.344359081E1,-2.804713011E0,3.396357536E0,-8.213603497E-2,4.405497238E0
2.346293896E1,-3.046231747E0,2.899785042E0,-2.508584261E-1,4.213218614E0
2.348231762E1,-2.513551235E0,2.208572388E0,9.661781788E-2,3.347397020E0
2.350169628E1,-1.678858161E0,1.599163055E0,1.000373960E0,2.525200044E0
2.352104443E1,-9.506444335E-1,9.201288223E-1,1.950498462E0,2.356863623E0
2.354042309E1,-4.814168513E-1,1.551246643E-1,2.228870392E0,2.285539120E0
2.355980175E1,-1.739506871E-1,-1.509140015E0,2.446563005E0,2.879832107E0
2.357918041E1,3.276932836E-1,-4.474203110E0,3.523181677E0,5.704269058E0
2.359852856E1,4.444718659E-1,-5.558948517E0,3.887322664E0,6.797848288E0
2.361790722E1,1.025123075E-1,-5.220871925E0,2.750460625E0,5.901952735E0
2.363728588E1,7.458789945E-1,-5.990621567E0,1.318189502E0,6.179118529E0
2.365666454E1,4.459065497E-1,-3.656768799E0,-3.990218639E-1,3.705402697E0
2.367601269E1,-3.018916845E-1,-2.343684196E0,-2.482043266E0,3.427029760E0
2.369542187E1,-8.596222401E-1,-4.885474205E0,-3.888419151E0,6.302905052E0
2.371483105E1,-1.512343526E0,-7.596961975E0,-4.195182800E0,8.809118737E0
2.373414867E1,-1.864599705E0,-6.391385078E0,-3.930417061E0,7.731410838E0
2.375352734E1,-1.477092505E0,-1.999070168E0,-2.901285410E0,3.820411081E0
2.377290600E1,-6.920663118E-1,5.481452942E-1,-1.092302322E0,1.404472644E0
2.379228466E1,1.887727976E-1,2.368958473E0,-6.806300879E-1,2.472014711E0
2.381163280E1,6.706910133E-1,3.682019234E0,-2.257029533E0,4.370500473E0
2.383101147E1,7.612380385E-1,4.706377029E0,-2.817746639E0,5.537974740E0
2.385039013E1,8.675150871E-1,5.717589378E0,-2.291344404E0,6.220423611E0
2.386976879E1,9.755793810E-1,6.455973625E0,-1.512830257E0,6.702238877E0
2.388911694E1,1.064561486E0,6.724785805E0,-8.503025770E-1,6.861417474E0
2.390849560E1,1.301519156E0,6.173278809E0,-2.611244321E-1,6.314389070E0
2.392787426E1,1.593176007E0,4.567528725E0,3.551635742E-1,4.850429837E0
2.394725292E1,1.551042676E0,2.780673027E0,7.558734417E-1,3.272494542E0
2.396660107E1,9.547831416E-1,1.405617714E0,1.233163834E0,2.099539246E0
2.398601025E1,1.866505742E-1,3.300657272E-1,1.198313355E0,1.256875777E0
2.400538891E1,-3.596552610E-1,-4.066114426E-1,8.143935800E-1,9.787347317E-1
2.402473705E1,-4.799402058E-1,-9.561510086E-1,2.684875727E-1,1.103019913E0
2.404411571E1,-8.541761041E-1,-2.171708107E0,4.055649042E-1,2.368631632E0
2.406349438E1,-1.857689857E0,-3.451716423E0,2.963959694E0,4.914307168E0
2.408287304E1,-3.265536785E0,-3.495658875E0,6.643427372E0,8.186482072E0
2.410222118E1,-2.379229069E0,-4.160014153E0,7.700044632E0,9.069571988E0
2.412159985E1,-6.296235323E-1,-4.415667534E0,2.043353319E0,4.906102154E0
2.414097851E1,3.792009354E-1,-5.811724663E0,-9.824129343E-1,5.906358614E0
2.416032665E1,6.850918531E-1,-3.950980186E0,-2.008008480E0,4.484606263E0
2.417970531E1,5.368726850E-1,-4.757595062E-2,-1.891093969E0,1.966400812E0
2.419908398E1,7.059860229E-1,2.419013977E-1,-1.799198627E0,1.947831680E0
2.421846264E1,1.255915284E0,-2.965091705E0,-1.742478371E0,3.661328023E0
2.423781078E1,2.481495142E0,-5.155966759E0,-1.229089022E0,5.852561079E0
2.425718944E1,3.596859932E0,-3.300865173E0,-8.191086650E-1,4.950156691E0
2.427659863E1,3.260021687E0,-2.655830383E-1,-1.410527825E0,3.562002877E0
2.429597729E1,2.475601196E0,1.481884956E0,-1.866442561E0,3.436305013E0
2.431532543E1,1.608784556E0,2.317650795E0,-2.007986069E0,3.462903552E0
2.433470409E1,8.293346763E-1,3.194149971E0,-1.753977418E0,3.737221806E0
2.435408276E1,1.910896003E-1,4.286829948E0,-1.184476256E0,4.451562674E0
2.437346142E1,-5.112629533E-1,5.293922424E0,-8.873891830E-2,5.319293096E0
2.439280956E1,-7.401467562E-1,5.635107040E0,4.883464575E-1,5.704448338E0
2.441218822E1,-6.396846771E-1,5.016950607E0,8.684502840E-1,5.131588037E0
2.443156689E1,-6.117058396E-1,3.698584557E0,1.169067144E0,3.926885502E0
2.445091503E1,-1.009557128E0,2.927540779E0,4.679683447E-1,3.131883615E0
2.447029369E1,-1.343555689E0,2.144171715E0,-4.264516830E-1,2.566023240E0
2.448967236E1,-1.093856692E0,1.217411041E0,-2.105685472E-1,1.650136728E0
2.450905102E1,-8.351530433E-1,6.956596375E-1,1.198543310E0,1.618001546E0
2.452839916E1,-7.920577526E-1,3.016548157E-1,2.231547594E0,2.387081016E0
2.454777782E1,-8.208345771E-1,-1.189098358E-1,2.227848291E0,2.377228841E0
2.456718700E1,-4.433187842E-1,-1.299650192E0,1.967116117E0,2.398993119E0
2.458656567E1,2.662259936E-1,-3.649663925E0,2.647083998E0,4.516411932E0
2.460591381E1,5.800690651E-1,-4.800991058E0,4.274720192E0,6.454396020E0
2.462529247E1,-3.241278529E-1,-2.060508728E0,6.655914307E0,6.975095006E0
2.464467113E1,-1.298134327E0,-2.736556053E0,5.042581558E0,5.882305716E0
2.466404980E1,1.170815378E-1,-3.151387215E0,3.229008913E-1,3.170049597E0
2.468339794E1,3.562754691E-1,-1.314494133E0,-1.851581454E0,2.298517113E0
2.470277660E1,-5.419448018E-1,-7.825860977E-1,-3.878866911E0,3.993964657E0
2.472215526E1,-1.123351932E0,-1.992054939E0,-5.225061893E0,5.703636930E0
2.474150341E1,-9.525244236E-1,-5.041993141E0,-4.091476440E0,6.562711107E0
2.476088207E1,-8.392722607E-1,-7.174629211E0,-1.671762228E0,7.414477136E0
2.478026073E1,-1.038534999E0,-5.624352455E0,-6.798158884E-1,5.759691409E0
2.479963940E1,-7.459427714E-1,-1.626111984E0,-1.990565181E0,2.676381987E0
2.481898754E1,-6.947261095E-1,4.268980026E-1,-3.219840288E0,3.321484270E0
2.483839672E1,-4.798964262E-1,1.790037155E0,-3.317138433E0,3.799729067E0
2.485777538E1,-6.920540333E-2,3.434366226E0,-2.626522064E0,4.324150658E0
2.487712353E1,3.794857562E-1,4.768288612E0,-1.724714994E0,5.084803589E0
2.489650219E1,7.317923307E-1,5.598777771E0,-9.988973141E-1,5.734076071E0
2.491588085E1,9.473273754E-1,5.960249901E0,-6.240659952E-1,6.067245372E0
2.493525951E1,1.068588138E0,5.828089714E0,-2.715276480E-1,5.931461674E0
2.495460766E1,1.202362537E0,5.064343452E0,-5.283808708E-2,5.205385878E0
2.497398632E1,1.641803265E0,3.923214912E0,4.823522568E-1,4.280163187E0
2.499336498E1,1.326354742E0,3.121799469E0,5.551707745E-1,3.437013735E0
2.501274364E1,6.469877958E-1,2.187541008E0,7.940788269E-1,2.415468910E0
2.503209179E1,2.127608955E-1,6.485633850E-1,1.195322514E0,1.376480140E0
2.505147045E1,-3.256127834E-1,-6.987276077E-1,1.779320002E0,1.939129604E0
2.507084911E1,-1.232299328E0,-1.561481476E0,2.861250877E0,3.484758617E0
2.509019726E1,-2.589821339E0,-2.578943253E0,4.497356415E0,5.795199530E0
2.510957592E1,-2.704776049E0,-3.767988205E0,5.461558819E0,7.165345303E0
2.512898510E1,-5.942248106E-1,-3.634217262E0,3.720271587E0,5.234602078E0
2.514836376E1,8.004810214E-1,-4.124456406E0,1.383671761E0,4.423398925E0
2.516771191E1,1.046459317E0,-5.416689873E0,-6.731929779E-1,5.557768893E0
2.518709057E1,3.674429059E-1,-5.328938484E0,-1.983099699E0,5.697831524E0
2.520646923E1,2.755635083E-1,-1.782997131E0,-1.648687363E0,2.444009828E0
2.522584789E1,1.435658187E-1,7.687911987E-1,-1.370457530E0,1.577911561E0
2.524519604E1,3.589408994E-1,-1.647752762E0,-1.554577351E0,2.293608178E0
2.526456259E1,1.583916426E0,-4.958966255E0,-1.324422717E0,5.371613640E0
2.528394125E1,3.180353642E0,-3.995161057E0,-1.007573366E0,5.204917410E0
2.530328939E1,2.902631760E0,-6.683607101E-1,-1.550615788E0,3.358033128E0
2.532266806E1,1.945198059E0,8.643970490E-1,-2.152365685E0,3.027153083E0
2.534204672E1,1.277546287E0,1.190201759E0,-2.081808567E0,2.717099861E0
2.536142538E1,7.715531588E-1,2.084152222E0,-1.342487931E0,2.596393384E0
2.538077352E1,3.601838648E-2,3.618323326E0,1.317442656E-1,3.620900105E0
2.540015219E1,-3.445155025E-1,4.761361122E0,6.358260512E-1,4.815965680E0
2.541956136E1,-4.079390764E-1,5.131572723E0,8.106341362E-1,5.211197617E0
2.543894003E1,-3.367468715E-1,4.354273796E0,1.052276969E0,4.492258404E0
2.545828817E1,-2.576085925E-1,3.156823158E0,1.517610431E0,3.512126999E0
2.547766683E1,-3.725340962E-1,2.468268394E0,2.936210632E-1,2.513432682E0
2.549704550E1,-3.868253827E-1,2.239907265E0,-1.902796030E-1,2.281013976E0
2.551639364E1,-3.917050958E-1,1.680488586E0,1.381059885E-1,1.731054024E0
2.553577230E1,-2.961567044E-1,1.376943588E0,1.286310911E0,1.907427115E0
2.555515097E1,-9.971457720E-2,1.197055817E0,2.373655796E0,2.660287102E0
2.557452963E1,-2.639607340E-2,9.129199982E-1,2.307748556E0,2.481899086E0
2.559387777E1,-2.854117751E-2,1.919927597E-1,1.023440599E0,1.041684443E0
2.561325643E1,4.544376135E-1,-1.917326927E0,1.315448284E0,2.369189794E0
2.563263510E1,1.053782463E0,-4.103506088E0,3.200088024E0,5.309405151E0
2.565198324E1,1.240539074E0,-3.988093376E0,5.254501343E0,6.712198621E0
2.567136190E1,1.876076162E-1,-3.751442909E0,5.453855515E0,6.622164336E0
2.569074056E1,7.081681490E-1,-5.351606369E0,2.569202423E0,5.978460834E0
2.571014974E1,1.104804516E0,-4.179273605E0,5.642335415E-1,4.359504602E0
2.572949789E1,2.981567383E-1,-1.471011162E0,-1.136353612E0,1.882570267E0
2.574887655E1,-4.448888302E-1,-4.060821533E-1,-3.098823547E0,3.156823746E0
2.576825521E1,-1.418814898E0,-2.239719391E0,-4.557550430E0,5.272631657E0
2.578763388E1,-2.390158892E0,-5.198409081E0,-5.911631584E0,8.227010665E0
2.580698202E1,-2.804367065E0,-4.572007179E0,-4.450523376E0,6.969568323E0
2.582636068E1,-2.108739138E0,-1.491414070E0,-1.670754671E0,3.076120584E0
2.584573934E1,-1.353286147E0,8.377704620E-1,-2.884112597E-1,1.617536336E0
2.586511801E1,-1.301208496E0,2.172432899E0,-2.012216568E0,3.234443348E0
2.588446615E1,-1.002387285E0,2.874529839E0,-3.665385723E0,4.764740765E0
2.590384481E1,-4.991076291E-1,3.742627144E0,-2.972374916E0,4.805348999E0
2.592322348E1,-7.246780396E-2,4.496279716E0,-1.690405965E0,4.804087343E0
2.594257162E1,3.725708425E-1,4.796583176E0,-6.492464542E-1,4.854641094E0
2.596195028E1,6.827797294E-1,4.643380165E0,4.303463697E-1,4.712999630E0
2.598132894E1,7.362385988E-1,4.121500969E0,9.759908915E-1,4.298997061E0
2.600073812E1,6.645488143E-1,3.477879524E0,1.264020681E0,3.759656819E0
2.602008627E1,5.908559561E-1,2.970765114E0,1.025434732E0,3.197823090E0
2.603946493E1,6.222561598E-1,2.353385925E0,3.210191131E-1,2.455337311E0
2.605884359E1,6.044495702E-1,1.468075752E0,-5.239379406E-1,1.671860240E0
2.607822225E1,7.124278545E-1,1.769075394E-1,-6.331408024E-1,9.693900149E-1
2.609757040E1,5.425333381E-1,-8.400411606E-1,1.676843882E0,1.952387507E0
2.611694906E1,-4.487226009E-1,-1.885706902E0,4.104724884E0,4.539384194E0
2.613632772E1,-2.163169861E0,-3.132670403E0,5.437252998E0,6.637518201E0
2.615567587E1,-2.658373594E0,-3.431829453E0,5.376693249E0,6.910371470E0
2.617505453E1,-2.019962549E0,-3.785943985E0,3.411263227E0,5.481818801E0
2.619443319E1,-9.412344694E-1,-4.531001091E0,7.325173616E-1,4.685346828E0
2.621381185E1,5.478639901E-2,-5.543005943E0,-1.149526834E0,5.661212625E0
2.623316000E1,1.117558032E-1,-3.340925217E0,-1.559144974E0,3.688523243E0
2.625253866E1,4.455909133E-1,-6.884489059E-1,-1.265971184E0,1.508375350E0
2.627194784E1,8.545638323E-1,-1.830076218E0,-1.314283967E0,2.409730411E0
2.629132650E1,1.588919878E0,-4.441659927E0,-1.423686981E0,4.927463233E0
2.631067465E1,2.988838673E0,-4.286105156E0,-1.310151219E0,5.387053948E0
2.633005331E1,3.432001829E0,-1.620276451E0,-1.452288151E0,4.063628084E0
2.634943197E1,2.849285126E0,4.992198944E-1,-1.921042204E0,3.472470213E0
2.636881063E1,1.950029492E0,1.956032753E0,-1.961315870E0,3.387541748E0
2.638815878E1,1.174299598E0,2.956621170E0,-1.755339384E0,3.633428772E0
2.640753744E1,5.256469250E-1,3.985616684E0,-1.443411350E0,4.271402740E0
2.642691610E1,2.522787452E-2,4.940859795E0,-1.018234253E0,5.044753012E0
2.644626425E1,-4.936157465E-1,5.448077202E0,-9.011512995E-2,5.471135388E0
2.646564291E1,-6.114590764E-1,4.952376366E0,4.935306311E-1,5.014328106E0
2.648502157E1,-5.792846680E-1,3.871362686E0,8.456800580E-1,4.004771471E0
2.650440023E1,-7.059475183E-1,3.000442505E0,9.703155160E-1,3.231490264E0
2.652374838E1,-9.687421322E-1,2.805164337E0,6.552451253E-1,3.039202930E0
2.654312704E1,-1.076844215E0,2.566242218E0,2.452951670E-2,2.783126710E0
2.656253622E1,-8.050558567E-1,1.721217155E0,2.953656912E-1,1.923003983E0
2.658191488E1,-4.566490948E-1,8.113269806E-1,1.536802769E0,1.796814575E0
2.660126302E1,-1.969812810E-1,-1.668434143E-1,2.442779779E0,2.456381770E0
2.662064169E1,-1.140824780E-1,-1.139847755E0,2.641650915E0,2.879337992E0
2.664002035E1,-1.425842345E-1,-2.590519905E0,2.668366194E0,3.721733707E0
2.665936849E1,-1.125124842E-2,-4.265218735E0,2.958334923E0,5.190757455E0
2.667874716E1,3.812937811E-2,-4.368551254E0,3.889420986E0,5.849212726E0
2.669812582E1,-3.153451979E-1,-4.850400925E0,4.220211506E0,6.437081394E0
2.671750448E1,1.382097006E-1,-4.958378792E0,2.734740019E0,5.664223260E0
2.673685262E1,3.984964788E-1,-2.603827477E0,4.336634874E-1,2.669603152E0
2.675623129E1,-3.558563441E-2,-1.950158119E0,-1.374253273E0,2.385991426E0
2.677560995E1,-2.735246420E-1,-3.107980728E0,-3.016354084E0,4.339671865E0
2.679498861E1,-5.921835899E-1,-4.936471939E0,-4.008336544E0,6.386407320E0
2.681433676E1,-9.666295648E-1,-4.984182358E0,-4.362034798E0,6.693563630E0
2.683371542E1,-9.501264095E-1,-2.318426132E0,-3.803250790E0,4.554399685E0
2.685312460E1,-4.215123355E-1,-3.433990479E-2,-1.862280488E0,1.909696440E0
2.687247274E1,2.990589440E-1,1.513402939E0,-9.212834835E-1,1.796827194E0
2.689185140E1,6.726006866E-1,2.749727249E0,-2.149326324E0,3.554292514E0
2.691123007E1,5.852914453E-1,3.893191338E0,-2.900138617E0,4.889816854E0
2.693060873E1,5.182923675E-1,4.947264671E0,-2.440562248E0,5.540794058E0
2.694995687E1,5.927754641E-1,5.513076782E0,-1.666056395E0,5.789744577E0
2.696933554E1,7.765102983E-1,5.416569710E0,-8.719705939E-1,5.540986228E0
2.698871420E1,9.710724354E-1,4.522530556E0,-1.936054826E-1,4.629659532E0
2.700809286E1,9.193327427E-1,3.674925804E0,2.973065376E-1,3.799821514E0
2.702744100E1,5.921024680E-1,3.382156372E0,7.233101726E-1,3.508952075E0
2.704685018E1,1.042194366E-1,2.902205467E0,1.251570463E0,3.162291399E0
2.706619833E1,-3.499883413E-1,1.687617302E0,1.449795008E0,2.252209928E0
2.708554647E1,-6.856604815E-1,4.296035767E-1,1.237225175E0,1.478315143E0
2.710492514E1,-6.937999725E-1,-5.079727173E-1,8.116578460E-1,1.182447945E0
2.712430380E1,-6.171039343E-1,-1.221806526E0,1.274245024E0,1.870114658E0
2.714371298E1,-1.277011991E0,-2.537056923E0,3.158239841E0,4.247575350E0
2.716306112E1,-2.546596527E0,-4.162514687E0,5.476202488E0,7.334880781E0
2.718243978E1,-2.281556368E0,-4.865170479E0,6.576201916E0,8.492456352E0
2.720181844E1,4.195471108E-2,-4.263621330E0,3.276797056E0,5.377511134E0
2.722119711E1,2.626184821E-1,-4.993544579E0,-9.498586059E-1,5.089861226E0
2.724054525E1,3.274016976E-1,-5.629197121E0,-2.762537718E0,6.279065754E0
2.725992391E1,4.918715656E-1,-1.496803284E0,-2.286127090E0,2.776460837E0
2.727930258E1,7.784242034E-1,6.778602600E-1,-1.212226868E0,1.592147214E0
2.729865072E1,1.414158344E0,-1.622409821E0,-8.611149788E-1,2.318097594E0
2.731802938E1,2.740427732E0,-4.282139778E0,-1.044653893E0,5.190179861E0
2.733740804E1,3.903355122E0,-2.960206032E0,-1.262342691E0,5.058904034E0
2.735678671E1,3.508325338E0,-1.398372650E-1,-1.813676357E0,3.951875892E0
2.737613485E1,2.562722206E0,1.428086281E0,-2.132784843E0,3.627085155E0
2.739551351E1,1.326466680E0,1.980088234E0,-1.886299729E0,3.039471983E0
2.741492269E1,5.749512315E-1,2.878694534E0,-1.344139099E0,3.228646939E0
2.743430136E1,-1.075017005E-1,4.120239258E0,-1.873373389E-1,4.125896683E0
2.745364950E1,-6.032801270E-1,5.214253426E0,6.507872939E-1,5.289225822E0
2.747302816E1,-7.858562469E-1,5.642045021E0,7.901547551E-1,5.751050912E0
2.749240682E1,-8.055222034E-1,5.092257500E0,6.262665987E-1,5.193473050E0
2.751175497E1,-1.083286643E0,4.261998177E0,4.802062511E-1,4.423656457E0
2.753113363E1,-1.698510170E0,3.501921654E0,-1.020469666E-1,3.893431090E0
2.755051229E1,-1.887928724E0,2.395663261E0,-1.920723915E-2,3.050220688E0
2.756989096E1,-1.405847788E0,1.396270752E0,9.905582070E-1,2.215216824E0
2.758923910E1,-1.009899735E0,7.600507736E-1,2.054298162E0,2.411994112E0
2.760861776E1,-1.038649917E0,1.694583893E-1,2.261848927E0,2.494688430E0
2.762799642E1,-7.416458726E-1,-1.332037926E0,1.811254501E0,2.367489494E0
2.764737509E1,9.620074928E-2,-3.981801987E0,2.327520609E0,4.613171775E0
2.766672323E1,6.508169770E-1,-6.108746529E0,3.901471376E0,7.277487601E0
2.768610189E1,9.177025557E-1,-4.338697433E0,5.591989040E0,7.137003211E0
2.770551107E1,-6.188672781E-1,-2.843718529E0,4.489351749E0,5.350141205E0
2.772488973E1,3.749707714E-2,-4.677562714E0,1.423198581E0,4.889426671E0
2.774423788E1,3.810376525E-1,-2.077118874E0,-8.099746704E-1,2.261785019E0
2.776364706E1,-2.247296870E-1,-1.603803635E-1,-2.634914637E0,2.649339623E0
2.778299520E1,-6.004455090E-1,-1.364291191E0,-4.361159325E0,4.608854079E0
2.780234335E1,-7.639070153E-1,-5.064998627E0,-4.807232857E0,7.024759979E0
2.782172201E1,-5.767713785E-1,-7.157379150E0,-2.726095676E0,7.680647054E0
2.784110067E1,-2.519049346E-1,-5.154517174E0,-8.809640408E-1,5.235322438E0
2.786047933E1,-1.435914934E-1,-1.258622169E0,-2.103327274E0,2.455348021E0
2.787982748E1,-3.339609206E-1,6.424417496E-1,-3.656046867E0,3.727055137E0
2.789920614E1,-3.416247070E-1,2.358255386E0,-3.530179024E0,4.259136045E0
2.791858480E1,-1.532601416E-1,4.255640030E0,-2.630336285E0,5.005260204E0
2.793796347E1,6.043516099E-3,5.950677872E0,-1.450414062E0,6.124892212E0
2.795731161E1,9.814436734E-2,7.070903778E0,-2.018955946E-1,7.074466368E0
2.797669027E1,1.686738729E-1,7.439570427E0,3.986263871E-1,7.452151502E0
2.799609945E1,4.110007882E-1,6.370798111E0,1.220213890E0,6.499608616E0
2.801544760E1,2.528638244E-1,4.248000145E0,1.478819132E0,4.505147208E0
2.803482626E1,-3.365135789E-1,2.688308716E0,1.348250866E0,3.026222982E0
2.805420492E1,-3.639650047E-1,2.162063599E0,6.657977104E-1,2.291348101E0
2.807358358E1,1.009096503E-1,1.543389320E0,2.870751321E-1,1.573100595E0
2.809293173E1,2.745268941E-1,1.060657501E-1,5.468227863E-1,6.209912387E-1
2.811231039E1,1.763449907E-1,-1.108955383E0,1.799898028E0,2.121441140E0
2.813168905E1,-5.458852053E-1,-2.066242218E0,2.691741943E0,3.436978651E0
2.815106771E1,-1.645402193E0,-3.211828232E0,3.227538109E0,4.841507122E0
2.817041586E1,-2.309560776E0,-4.483518600E0,4.081467628E0,6.488018805E0
2.818979452E1,-1.008592963E0,-4.866136551E0,3.153517962E0,5.885679250E0
2.820917318E1,-1.259154379E-1,-4.075160027E0,3.164929152E-1,4.089370576E0
2.822852133E1,2.836477757E-2,-5.468831062E0,-1.878386974E0,5.782495601E0
2.824789999E1,2.097278833E-1,-4.751175880E0,-1.962032199E0,5.144631025E0
2.826727865E1,5.385482311E-1,-8.621549606E-1,-9.686362743E-1,1.404137317E0
2.828668783E1,8.882459402E-1,-9.321975708E-1,-2.476242185E-1,1.311217341E0
2.830603598E1,1.489453077E0,-4.441916466E0,-3.738587499E-1,4.699879012E0
2.832541464E1,2.790939569E0,-6.373332024E0,-8.453062773E-1,7.008797862E0
2.834479330E1,3.482964277E0,-3.591518402E0,-1.630724549E0,5.262063012E0
2.836417196E1,2.846135855E0,1.417331696E-1,-1.995364904E0,3.478801330E0
2.838352011E1,1.823389530E0,2.310991287E0,-2.167347670E0,3.655519940E0
2.840289877E1,7.265447378E-1,3.626447678E0,-2.169965267E0,4.288092732E0
2.842227743E1,-7.466717064E-2,4.919957161E0,-1.841153622E0,5.253703485E0
2.844162557E1,-7.219598293E-1,6.258793831E0,-9.010397792E-1,6.364400906E0
2.846100424E1,-9.571263194E-1,7.192114830E0,-3.387176394E-1,7.263424548E0
2.848038290E1,-9.659454823E-1,7.236845970E0,2.024600506E-1,7.303833264E0
2.849976156E1,-8.777704239E-1,6.231877327E0,4.509623051E-1,6.309527949E0
2.851910970E1,-1.288197398E0,5.074605942E0,4.872332811E-1,5.258181651E0
2.853848837E1,-2.054456472E0,3.910303116E0,2.415430546E-1,4.423754616E0
2.855786703E1,-2.318198681E0,2.514185905E0,4.962956905E-2,3.420181133E0
2.857727621E1,-1.766510129E0,9.403572083E-1,7.862438560E-1,2.150118396E0
2.859662435E1,-1.209033728E0,-3.540887833E-1,1.620703697E0,2.052759580E0
2.861600302E1,-8.883791566E-1,-1.681030273E0,1.780199766E0,2.604648059E0
2.863538168E1,-5.078444481E-1,-4.050288200E0,2.545625210E0,4.810711818E0
2.865472982E1,-3.504443169E-2,-7.109443665E0,4.174282074E0,8.244394954E0
2.867410848E1,1.631588638E-1,-5.852865219E0,5.663716316E0,8.146185279E0
2.869348715E1,-1.516309738E0,-1.041541100E0,8.938150406E0,9.125488248E0
2.871286581E1,-1.960070372E0,-8.008556366E-1,6.387691021E0,6.729475625E0
2.873221395E1,-4.884856045E-1,-6.788797379E-1,-2.029490232E0,2.195068675E0
2.875159262E1,-6.293490529E-1,-1.532069206E0,-4.695088387E0,4.978671634E0
2.877097128E1,-1.606303692E0,-3.093189240E0,-6.749988079E0,7.596734186E0
2.879034994E1,-1.224589348E0,-5.671724319E0,-4.879632950E0,7.581483598E0
2.880969808E1,1.858463585E-1,-7.998796463E0,2.228907347E-1,8.004059221E0
2.882907675E1,5.130165815E-1,-8.033766747E0,8.045355678E-1,8.090233101E0
2.884848593E1,4.263532162E-1,-4.425853729E0,-2.815758467E0,5.262932076E0
2.886783407E1,6.483168006E-1,-1.590807915E0,-4.263638020E0,4.596693775E0
2.888721273E1,9.581738710E-1,1.115206718E0,-3.118509769E0,3.447736413E0
2.890659139E1,9.336598516E-1,3.777728081E0,-2.204469919E0,4.472430860E0
2.892597006E1,7.242220640E-1,5.936161041E0,-1.735132098E0,6.226812098E0
2.894531820E1,5.446453691E-1,7.465231895E0,-1.459016323E0,7.625946136E0
2.896469686E1,4.871574938E-1,8.082416534E0,-1.144681334E0,8.177595907E0
2.898407552E1,8.207948804E-1,8.177213669E0,-7.695311308E-1,8.254253799E0
2.900345419E1,1.794467807E0,6.921295166E0,-2.720450163E-1,7.155309216E0
2.902280233E1,2.466052055E0,4.806088448E0,3.272366524E-2,5.401941294E0
2.904218099E1,2.546137333E0,3.054834366E0,3.801782727E-1,3.994917251E0
2.906155966E1,2.136791468E0,2.015281677E0,6.884780526E-1,3.016826154E0
2.908090780E1,1.574840546E0,1.256103516E0,1.076604009E0,2.284074206E0
2.910028646E1,8.907880783E-1,5.828008652E-1,1.837267160E0,2.123372522E0
2.911966512E1,2.916814089E-1,-7.227621078E-1,2.502781391E0,2.621331303E0
2.913907430E1,-3.810150623E-1,-2.942701340E0,2.945740223E0,4.181154041E0
2.915842245E1,-1.672069311E0,-5.029520035E0,3.327649593E0,6.258205763E0
2.917780111E1,-2.733484268E0,-4.985000610E0,3.603824615E0,6.731249452E0
2.919717977E1,-1.197062492E0,-3.390516281E0,3.076026917E0,4.731860190E0
2.921655844E1,-1.319584250E0,-2.094070435E0,5.383491516E-1,2.533032449E0
2.923590658E1,-2.299426198E-1,-4.350135803E0,-1.365969896E0,4.565350904E0
2.925528524E1,3.121231794E-1,-3.376942635E0,-1.307141066E0,3.634526132E0
2.927466390E1,7.087409496E-1,-1.252882004E0,-4.231480360E-1,1.500360393E0
2.929404257E1,1.457745433E0,-3.580240250E0,-2.929014564E-1,3.876716814E0
2.931339071E1,2.472481251E0,-7.822150230E0,-1.796903133E0,8.398098513E0
2.933276937E1,3.224391699E0,-7.331686974E0,-3.064510822E0,8.575637719E0
2.935214804E1,2.105321407E0,-1.820286751E0,-3.079439163E0,4.150755069E0
2.937149618E1,9.994390011E-1,1.148980141E0,-2.367440939E0,2.814926337E0
2.939087484E1,4.235756993E-1,2.874345779E0,-1.427762270E0,3.237249625E0
2.941025350E1,-1.903313696E-1,4.537372589E0,-2.783060074E-1,4.549882446E0
2.942966268E1,-5.315657854E-1,5.954756737E0,3.010305166E-1,5.986009468E0
2.944901083E1,-6.619909406E-1,6.823575020E0,6.184760332E-1,6.883452670E0
2.946838949E1,-5.035643578E-1,6.604721069E0,7.213017941E-1,6.663046881E0
2.948776815E1,-4.625933766E-1,5.491567612E0,8.774662018E-1,5.580434965E0
2.950714681E1,-1.051961303E0,4.623961449E0,2.862727642E-2,4.742200078E0
2.952649496E1,-1.841006279E0,4.340690613E0,-4.685860872E-1,4.738192908E0
2.954587362E1,-2.237487316E0,3.679654121E0,3.546642065E-1,4.321109885E0
2.956525228E1,-2.083340645E0,2.406163216E0,1.850426078E0,3.681576610E0
2.958460043E1,-1.912462354E0,1.135947227E0,2.870770693E0,3.631695572E0
2.960397909E1,-1.920788407E0,2.949314117E-1,2.747720003E0,3.365468446E0
2.962335775E1,-1.322493076E0,-1.110050201E0,2.566339493E0,3.093104877E0
2.964273641E1,-3.877730370E-1,-3.693866730E0,3.322352409E0,4.983276520E0
2.966208456E1,-4.676324725E-1,-4.874226570E0,4.534999371E0,6.674053047E0
2.968146322E1,-6.824669242E-2,-5.419132233E0,2.342620134E0,5.904195192E0
2.970084188E1,3.899541795E-1,-7.060808182E0,9.265778065E-1,7.132013942E0
2.972025106E1,-2.704451680E-1,-6.498889923E0,-5.134139061E-1,6.524745563E0
2.973959921E1,-6.639018059E-1,-4.644258499E0,-3.084619999E0,5.614693505E0
2.975897787E1,-7.944291234E-1,-6.780432701E0,-4.806992531E0,8.349404915E0
2.977835653E1,-9.502607584E-1,-8.801767349E0,-4.807865143E0,1.007420822E1
2.979770468E1,-1.313034773E0,-6.060419083E0,-3.519632578E0,7.130256184E0
2.981708334E1,-7.602064610E-1,-1.492687225E0,-1.820005059E0,2.473549561E0
2.983646200E1,-3.614811301E-1,9.639644623E-1,-1.300708532E0,1.658836574E0
2.985584066E1,-3.228411376E-1,2.502474785E0,-2.580987692E0,3.609446483E0
2.987518881E1,3.521144390E-5,3.365374565E0,-3.385730982E0,4.773774214E0
2.989456747E1,3.020043671E-1,4.370635986E0,-2.837396145E0,5.219624742E0
2.991394613E1,5.184776783E-1,5.208850861E0,-1.919260979E0,5.575348338E0
2.993332479E1,7.644752860E-1,5.577335358E0,-9.269824028E-1,5.705294780E0
2.995267294E1,9.412031770E-1,5.605555534E0,-8.051139116E-2,5.684593068E0
2.997205160E1,1.035700202E0,5.397167206E0,6.558315754E-1,5.534636737E0
2.999143026E1,1.013500571E0,4.924600601E0,1.141704202E0,5.155808663E0
