"Time (s)","Linear Acceleration x (m/s^2)","Linear Acceleration y (m/s^2)","Linear Acceleration z (m/s^2)","Absolute acceleration (m/s^2)"
1.582026190E-1,7.933664322E-1,1.205149651E0,6.115864515E-1,1.567116449E0
1.775812810E-1,1.715502620E0,2.811037064E0,3.298826218E0,4.661237285E0
1.969294260E-1,1.095624566E0,3.636898994E0,3.150114775E0,4.934637837E0
2.163080880E-1,-1.786434650E-1,4.910938263E0,-1.518186808E0,5.143356812E0
2.356867500E-1,-6.504434347E-1,4.949446678E0,-4.572102547E0,6.769358964E0
2.550348950E-1,-6.683614254E-1,3.705988884E0,-4.681844711E0,6.008388345E0
2.744135570E-1,-1.161862969E0,3.063066483E0,-2.109812260E0,3.896615147E0
2.937922190E-1,-4.248287201E0,4.005524635E0,1.046956539E0,5.931971826E0
3.131403630E-1,-4.679423332E0,4.512547493E0,-1.774969578E0,6.738739096E0
3.325190260E-1,-2.655032635E0,3.738877296E0,-2.390107155E0,5.171171428E0
3.518976880E-1,-1.308280945E0,3.329919815E0,7.402372360E-2,3.578469577E0
3.713068670E-1,-1.124311686E0,1.591900826E0,-6.223481894E-1,2.045859788E0
3.906855300E-1,-1.613655090E0,-2.778892517E-1,-1.572834969E0,2.270443795E0
4.100336740E-1,-1.880054951E0,-1.984743118E0,-1.250595093E0,3.006293390E0
4.294123360E-1,-2.014560938E0,-3.669069290E0,-1.319537640E0,4.388815878E0
4.487604810E-1,-1.811701059E0,-3.477496147E0,-1.450697899E0,4.180880837E0
4.681391430E-1,-1.735392332E0,-3.873507500E0,-1.260353804E0,4.427656108E0
4.875178050E-1,-2.003758192E0,-4.350702286E0,-1.560351372E0,5.037693289E0
5.068659490E-1,-2.114986420E0,-4.894774437E0,-2.159208059E0,5.752752714E0
5.262446120E-1,-2.386153460E0,-4.732139587E0,-2.069919109E0,5.689590365E0
5.456232740E-1,-1.607098103E0,-4.689107895E0,-6.589183807E-1,5.000467038E0
5.649714180E-1,-6.782488823E-1,-4.466538429E0,9.322237968E-1,4.612919715E0
5.843500800E-1,3.841469288E-1,-3.356202126E0,1.115138769E0,3.557414236E0
6.037287420E-1,5.670003891E-1,-9.169025421E-1,8.439812660E-1,1.369125301E0
6.231074050E-1,1.243935585E0,7.149906158E-1,3.388948441E-1,1.474258131E0
6.424860670E-1,1.522186279E0,2.438900948E0,-4.335443974E-1,2.907447273E0
6.618647290E-1,8.758623600E-1,4.009008408E0,2.539344788E0,4.825718106E0
6.812433910E-1,2.228442430E0,4.536825180E0,3.480440617E0,6.136954071E0
7.005915350E-1,2.868596792E0,6.163183212E0,1.430512428E0,6.946944701E0
7.199701970E-1,8.156344891E-1,9.529496193E0,-7.256000042E-1,9.591822177E0
7.393488600E-1,-1.625340462E0,9.048111916E0,-1.766555071E0,9.361131218E0
7.586970040E-1,-5.296039581E0,6.066188812E-1,-2.956423044E0,6.095609808E0
7.780756660E-1,-7.875347137E0,-5.776527405E0,-6.747879982E-1,9.790030656E0
7.974543280E-1,-5.241341114E0,-2.722578049E-1,1.060513020E0,5.354481193E0
8.168024730E-1,-2.720327854E0,6.767518997E0,-5.925336361E0,9.397292589E0
8.361811350E-1,2.289931774E-1,7.108200073E0,-2.371729374E0,7.496935799E0
8.555597970E-1,1.284875870E-1,3.471358299E0,-1.773421764E0,3.900238743E0
8.749384590E-1,-1.066910505E0,2.380580902E-1,-1.846749783E0,2.146032255E0
8.942866040E-1,-1.953440189E0,-2.255022049E0,-9.334380627E-1,3.126077355E0
9.136652660E-1,-2.840244770E0,-3.457836151E0,-1.239559174E0,4.643288506E0
9.330744460E-1,-3.314831734E0,-3.801437378E0,-2.182334900E0,5.495600165E0
9.524225900E-1,-3.253396273E0,-4.783335686E0,-3.160738468E0,6.592052431E0
9.718012520E-1,-2.904261827E0,-5.314123154E0,-2.681900263E0,6.623234155E0
9.911799140E-1,-2.482547998E0,-4.991145134E0,-2.243910074E0,6.009135273E0
1.010528059E0,-1.676313400E0,-4.014180183E0,-4.260538816E-1,4.370948532E0
1.029906721E0,-1.002361298E0,-4.121073723E0,8.803284168E-2,4.242137030E0
1.049285383E0,-6.311347485E-1,-3.242490768E0,-7.384330034E-1,3.384872339E0
1.068633528E0,2.637541294E-2,-1.884578705E0,-9.071869850E-1,2.091726747E0
1.088012190E0,2.434973717E-1,-1.717987061E-1,-1.717967987E-1,3.439766060E-1
1.107390852E0,2.270269394E-2,1.271151543E0,9.266585112E-1,1.573225239E0
1.126769514E0,1.409500837E-1,1.545692444E0,1.196875691E0,1.959985581E0
1.146117658E0,1.615593314E0,1.397767067E0,1.798822880E-1,2.143887163E0
1.165496321E0,3.216932297E0,1.616540909E0,-1.779205352E-1,3.604651665E0
1.184874983E0,3.780812263E0,1.948898315E0,6.642438173E-1,4.305109274E0
1.204223127E0,1.426037431E0,3.316374779E0,1.698095679E0,3.989417672E0
1.223632307E0,-2.541024685E0,3.703400612E0,-1.399947256E-1,4.493504319E0
1.243010969E0,-4.655398369E0,5.833517075E0,-2.948719025E0,8.024811482E0
1.262359113E0,-3.295468569E0,5.944166183E0,-2.935523987E0,7.403413117E0
1.281737776E0,-1.813676357E0,4.232151031E0,-1.319451094E0,4.789726033E0
1.301116438E0,-2.920679569E0,5.972197533E0,-7.537710071E-1,6.690716198E0
1.320464582E0,-3.187374830E0,7.196672440E0,-2.747943640E0,8.336824741E0
1.339843244E0,-2.002208948E0,4.713036537E0,-2.672369719E0,5.776081196E0
1.359221906E0,-8.169653416E-1,2.230663300E0,1.265075207E-1,2.378927338E0
1.378570051E0,-1.525022268E0,7.733964920E-1,-3.419337273E-1,1.743775710E0
1.397948713E0,-2.501206160E0,-8.573637009E-1,-1.744520664E0,3.167721123E0
1.417327375E0,-2.098755360E0,-2.613710403E0,-2.836027384E0,4.390820818E0
1.436706037E0,-1.527194500E0,-4.033842087E0,-2.106626272E0,4.800216586E0
1.456054182E0,-2.055138350E0,-4.821311951E0,-1.007009268E0,5.336919545E0
1.475432844E0,-2.594196796E0,-5.257635117E0,-1.191975832E0,5.982757761E0
1.494811506E0,-2.308014870E0,-5.220633507E0,-2.229439497E0,6.127997007E0
1.514190168E0,-2.211939335E0,-5.030053139E0,-1.864800692E0,5.802722794E0
1.533568830E0,-2.041461706E0,-5.683735847E0,-5.492832661E-1,6.064167807E0
1.552947492E0,-1.091921568E0,-6.034016609E0,8.699898720E-1,6.193426477E0
1.572326155E0,9.507536888E-2,-5.367280960E0,8.382315636E-1,5.433173694E0
1.591674299E0,8.440656662E-1,-2.547746658E0,3.752491474E-1,2.710031698E0
1.611052961E0,9.891250134E-1,1.446464539E0,-2.617418766E-1,1.771760922E0
1.630401106E0,-3.442180157E-1,6.027465820E0,5.217149258E-1,6.059786854E0
1.649779768E0,8.207812309E-1,8.341828346E0,7.580231667E0,1.130131382E1
1.669158430E0,3.253080130E0,4.975602150E0,6.286288261E0,8.651968978E0
1.688537092E0,3.447097063E0,1.730525017E0,-4.994106293E-1,3.889293763E0
1.707885237E0,-2.246093750E-2,6.455821037E0,-3.097591162E0,7.160530760E0
1.727263899E0,-3.691309214E0,9.034382820E0,-6.631814003E0,1.179944039E1
1.746642561E0,-9.076890945E0,5.950232506E0,-3.480304241E0,1.139770739E1
1.765990705E0,-6.622004509E0,-1.329422951E0,4.498049736E0,8.114848152E0
1.785399885E0,-4.584911346E0,-2.907762527E-1,-2.129521132E0,5.063676839E0
1.804778547E0,-2.693944693E0,4.236821175E0,-5.545561790E0,7.480725048E0
1.824126692E0,-5.486161709E-1,5.716698647E0,-3.811181545E0,6.892512451E0
1.843505354E0,6.150360107E-1,2.064245224E0,-2.451912880E0,3.263625961E0
1.862884016E0,5.193758011E-1,-1.631781578E0,-1.286361217E0,2.141772052E0
1.882232160E0,-2.571978569E-1,-3.437391281E0,-9.252130985E-1,3.569009503E0
1.901610822E0,-1.426537514E0,-3.386350632E0,-1.972700119E0,4.170602551E0
1.920989485E0,-2.014170647E0,-2.740670204E0,-2.240211487E0,4.072677751E0
1.940368147E0,-2.695984364E0,-3.288418770E0,-2.816141129E0,5.100262792E0
1.959716291E0,-2.954614639E0,-4.290658951E0,-1.687290072E0,5.475988467E0
1.979094953E0,-2.251783848E0,-4.773813248E0,-6.597037315E-1,5.319307515E0
1.998473615E0,-1.468043923E0,-3.899929047E0,1.164618731E-1,4.168712379E0
2.017821760E0,-1.068585515E0,-3.869010925E0,1.334279180E-1,4.016083111E0
2.037200422E0,-6.390323639E-1,-3.442943573E0,-6.911235452E-1,3.569296088E0
2.056579084E0,-4.496766329E-1,-1.669271469E0,-6.538984179E-1,1.848312596E0
2.075957746E0,-3.731334209E-1,1.121980667E0,-2.178797126E-2,1.182600475E0
2.095336408E0,3.158979416E-1,1.663100243E0,1.343256533E-1,1.698157033E0
2.114715071E0,1.823428869E0,1.248183250E0,-6.434577703E-1,2.301497810E0
2.134063215E0,2.949998379E0,1.816460609E0,5.120235085E-1,3.502026221E0
2.153441877E0,3.344278812E0,3.030602455E0,1.865120888E0,4.883382838E0
2.172820539E0,1.746368527E0,4.780453682E0,7.298628092E-1,5.141521191E0
2.192199201E0,-2.024037600E0,5.096693039E0,-2.059868813E0,5.857991777E0
2.211547346E0,-4.079555511E0,5.837697029E0,-3.858071089E0,8.099764953E0
2.230926008E0,-3.329520702E0,6.242506027E0,-2.040577412E0,7.363324370E0
2.250304670E0,-2.704941273E0,5.365816116E0,1.998772502E0,6.332754645E0
2.269652815E0,-3.512407780E0,4.980971336E0,-1.817241907E0,6.359988366E0
2.289031477E0,-2.933326006E0,5.126056671E0,-4.978823185E0,7.724606059E0
2.308410139E0,-1.868247986E-2,3.440681458E0,-1.429077864E0,3.725708183E0
2.327758283E0,-6.773927212E-1,3.499235153E0,2.701420784E-1,3.574420834E0
2.347136946E0,-2.084477425E0,1.895116806E0,-4.413186312E-1,2.851539229E0
2.366546125E0,-2.658046961E0,-7.653112411E-1,-1.695937991E0,3.244552452E0
2.385894270E0,-2.868206501E0,-2.986052513E0,-1.955047369E0,4.578791146E0
2.405272932E0,-2.867420673E0,-4.307774544E0,-1.491083860E0,5.385383358E0
2.424651594E0,-3.066103458E0,-4.802528381E0,-1.708857536E0,5.948568177E0
2.444030256E0,-3.177042007E0,-4.311221123E0,-1.390590906E0,5.532988935E0
2.463378401E0,-2.852207661E0,-4.359765053E0,-2.182550430E0,5.648554349E0
2.482757063E0,-2.240259647E0,-5.201673508E0,-1.696600676E0,5.912243603E0
2.502135725E0,-1.631563187E0,-6.189487457E0,-1.081294298E0,6.491606178E0
2.521483869E0,-1.198617935E0,-5.965945244E0,1.481273174E-1,6.086963883E0
2.540862531E0,-6.738970280E-1,-5.139253616E0,1.669181108E0,5.445386167E0
2.560241194E0,4.932870865E-1,-3.612948418E0,2.711230040E0,4.543951666E0
2.579589338E0,2.308609009E0,-1.037477493E0,2.141582966E0,3.315480765E0
2.598968000E0,2.887697935E0,3.555329323E0,2.576267719E-1,4.587541554E0
2.618346662E0,2.269454241E0,8.023008347E0,3.540551424E0,9.058398858E0
2.637725324E0,2.216538429E0,4.830152512E0,6.290894985E0,8.235215578E0
2.657103987E0,1.820566416E0,5.463085175E-1,1.672649145E0,2.531930140E0
2.676482649E0,-1.294600248E0,4.832315445E0,-1.769874811E0,5.306573208E0
2.695830793E0,-3.510150909E0,1.148122692E1,-3.607452154E0,1.253608560E1
2.715209455E0,-6.169369698E0,8.284946442E0,-5.078201294E0,1.151041217E1
2.734588117E0,-4.420111656E0,-1.861509323E0,9.058041573E-1,4.880889794E0
2.753966780E0,-4.236421585E0,-8.228483200E-1,-5.698745251E-1,4.353056877E0
2.773314924E0,-3.667511702E0,3.292109489E0,-5.512641907E0,7.394447090E0
2.792693586E0,-2.170001268E0,5.417779922E0,-4.471032143E0,7.351963902E0
2.812072248E0,1.095633507E-1,3.910711288E0,-2.702366352E0,4.754834467E0
2.831420393E0,4.021425247E-1,8.000631332E-1,-2.021816730E0,2.211235519E0
2.850799055E0,-4.147455692E-1,-1.571300507E0,-1.035154104E0,1.926796094E0
2.870177717E0,-1.707172155E0,-2.631465912E0,-8.167192936E-1,3.241308381E0
2.889525862E0,-2.494945288E0,-3.287715912E0,-1.179455876E0,4.292428691E0
2.908904524E0,-2.570998192E0,-4.274167061E0,-1.846234083E0,5.318563345E0
2.928283186E0,-2.538262129E0,-4.849933624E0,-2.832241058E0,6.163296213E0
2.947661848E0,-2.020087719E0,-4.413038254E0,-1.884764552E0,5.206534206E0
2.967040510E0,-1.516833544E0,-4.147987366E0,-9.215995073E-1,4.511754519E0
2.986419172E0,-1.399737716E0,-3.653168678E0,-3.828966618E-1,3.930841757E0
3.005797834E0,-9.702137709E-1,-2.939722061E0,-3.617703915E-1,3.116754462E0
3.025145979E0,-7.916429043E-1,-2.036646843E0,-1.078193426E0,2.436622645E0
3.044524641E0,-8.259019852E-1,-6.431655884E-1,-6.612855792E-1,1.238173930E0
3.063903303E0,-4.520453215E-1,1.131762505E0,6.044357419E-1,1.360358006E0
3.083251447E0,8.912650347E-1,1.320452690E0,1.059669137E0,1.913334092E0
3.102630110E0,1.927394867E0,1.924313545E0,5.071029663E-1,2.770376691E0
3.122008772E0,2.554501057E0,2.224326134E0,5.852863193E-2,3.387702466E0
3.141356916E0,3.334975719E0,2.875958443E0,9.317548275E-1,4.501262831E0
3.160735578E0,2.076179028E0,4.192445755E0,9.987174273E-1,4.783780645E0
3.180114240E0,-1.968880653E0,4.970046997E0,-1.440214157E0,5.536431612E0
3.199462385E0,-3.491724014E0,5.246018410E0,-4.116595268E0,7.527230722E0
3.218871565E0,-1.850057244E0,4.387881279E0,-2.493129253E0,5.375119292E0
3.238250227E0,-2.321811199E0,4.497100830E0,8.915790319E-1,5.139030676E0
3.257628889E0,-3.533738136E0,4.919430733E0,-6.830564737E-1,6.095463075E0
3.276977033E0,-2.868141413E0,4.747700691E0,-4.073397160E0,6.881821084E0
3.296355696E0,-3.102781773E-1,2.474784851E0,-2.212859154E0,3.334303262E0
3.315734358E0,-8.888576031E-1,2.113848686E0,2.094627619E-1,2.302672090E0
3.335082502E0,-2.251857758E0,8.164110184E-1,-2.886743546E-1,2.412617499E0
3.354461164E0,-2.558492899E0,-1.402652740E0,-1.339224577E0,3.210427244E0
3.373839826E0,-2.073170900E0,-3.081328392E0,-2.680119038E0,4.579919246E0
3.393187971E0,-1.609917402E0,-3.417933464E0,-1.932076216E0,4.243468123E0
3.412566633E0,-2.356819630E0,-4.736825943E0,-1.939743280E0,5.635132898E0
3.431945295E0,-2.998179913E0,-4.707185745E0,-2.075110197E0,5.954222263E0
3.451293440E0,-3.061501503E0,-4.419550896E0,-1.822767496E0,5.676944858E0
3.470672102E0,-2.551885843E0,-4.402540207E0,-1.803311825E0,5.398741999E0
3.490050764E0,-2.046314240E0,-4.682793617E0,-1.240029812E0,5.258672072E0
3.509459944E0,-1.043017864E0,-4.731762886E0,-2.071371078E-1,4.849780619E0
3.528808088E0,1.281430721E-1,-4.376527786E0,1.585650682E0,4.656683820E0
3.548186750E0,7.784950733E-1,-3.182031631E0,1.232233524E0,3.499968477E0
3.567565412E0,1.055536032E0,-2.430419922E-1,7.247092724E-1,1.303237988E0
3.586913557E0,9.794008732E-1,3.916349411E0,6.054115295E-2,4.037410558E0
3.606292219E0,2.735328674E-1,7.799066544E0,2.592807055E0,8.223314879E0
3.625670881E0,2.105598927E0,6.100631714E0,6.748096466E0,9.337454689E0
3.645019026E0,3.861485243E0,4.079780579E-1,3.837148190E0,5.459049423E0
3.664397688E0,1.735952854E0,2.655447960E0,-7.971520424E-1,3.271144686E0
3.683776350E0,-1.579900980E0,1.081613827E1,-3.640840292E0,1.152131295E1
3.703124494E0,-5.591246605E0,1.084920883E1,-7.599482536E0,1.437774341E1
3.722503156E0,-6.548655510E0,5.063896179E-1,-4.050208569E0,7.716573649E0
3.741881819E0,-5.840355873E0,-2.724825859E0,7.515816689E0,9.900602668E0
3.761229963E0,-4.824659348E0,-8.665103912E-1,-3.354829073E0,5.939954224E0
3.780608625E0,-3.074422836E0,3.760568619E0,-6.115152359E0,7.809548033E0
3.800017805E0,-5.680596828E-1,4.712000847E0,-4.201004028E0,6.338302504E0
3.819396467E0,8.521885872E-1,1.541109085E0,-1.800508022E0,2.518545560E0
3.838744612E0,4.996507168E-1,-1.498767853E0,-7.203991413E-1,1.736355620E0
3.858123274E0,-5.017123222E-1,-3.333519936E0,-6.502716541E-1,3.433208942E0
3.877501936E0,-2.473104239E0,-3.451910019E0,-1.385889292E0,4.466835175E0
3.896850080E0,-3.101070881E0,-3.835104942E0,-2.422654390E0,5.494899892E0
3.916228742E0,-3.017883301E0,-4.224339485E0,-2.796432018E0,5.896837774E0
3.935607405E0,-2.746266842E0,-4.464832306E0,-1.745901227E0,5.524932595E0
3.954955549E0,-1.868806362E0,-3.567085266E0,-2.245906591E-1,4.033233874E0
3.974334211E0,-3.949143887E-1,-2.925030708E0,8.918824196E-1,3.083377413E0
3.993712873E0,4.528347254E-1,-2.508810043E0,-1.931154728E-2,2.549423476E0
4.013061018E0,-6.837129593E-2,-2.264128685E0,-9.945882559E-1,2.473895538E0
4.032439680E0,-7.424981594E-1,-2.196635246E0,-4.834661484E-1,2.368596512E0
4.051818342E0,-6.630859375E-1,-4.830121994E-1,6.700636148E-1,1.059230378E0
4.071197004E0,1.332462430E0,1.444311142E0,3.178595603E-1,1.990609329E0
4.090575666E0,2.696392536E0,2.508675575E0,-9.414521456E-1,3.801357388E0
4.109954328E0,3.205107689E0,2.650883675E0,-7.330480814E-1,4.223417934E0
4.129332990E0,3.487780094E0,3.173250198E0,1.504570842E0,4.949531314E0
4.148681135E0,2.567848682E0,3.682617188E0,3.077088594E0,5.442792521E0
4.168059797E0,-2.201404572E-1,4.104247093E0,5.971872211E-1,4.153304540E0
4.187438459E0,-1.910892248E0,2.489629745E0,-1.738950491E0,3.587995856E0
4.206786604E0,-2.893486023E0,3.412227631E0,-4.212154388E0,6.144737859E0
4.226165266E0,-2.220852613E0,3.701524734E0,-4.284799576E0,6.082185388E0
4.245543928E0,-1.456136942E0,4.139986038E0,4.733977914E-1,4.414059884E0
4.264892072E0,-2.966640949E0,5.231889725E0,-1.043279767E0,6.104265827E0
4.284270735E0,-3.993253469E0,7.247781754E0,-1.661941528E0,8.440288103E0
4.303649397E0,-1.945476532E0,4.600826263E0,-1.506782174E0,5.217554385E0
4.322997541E0,-1.539065599E0,1.953428268E0,-7.025754452E-2,2.487878824E0
4.342376203E0,-2.070111513E0,1.964035034E-1,5.586364269E-1,2.153139724E0
4.361785383E0,-2.332408190E0,-9.176540375E-1,-1.370059371E0,2.856445269E0
4.381164045E0,-1.684470892E0,-2.521262169E0,-2.174842358E0,3.731506987E0
4.400512190E0,-1.517548084E0,-4.351045609E0,-2.355938673E0,5.175422409E0
4.419890852E0,-2.385657549E0,-5.770041466E0,-3.079106331E0,6.961726528E0
4.439269514E0,-3.333886623E0,-6.156675339E0,-2.426635742E0,7.409994080E0
4.458617658E0,-3.340634823E0,-6.456606865E0,-1.972552299E0,7.532501298E0
4.477996321E0,-2.992559433E0,-5.956968307E0,-1.123400927E0,6.760392963E0
4.497374983E0,-2.384375572E0,-5.033494949E0,4.321074486E-2,5.569846088E0
4.516723127E0,-8.521175385E-1,-3.740592957E0,1.613291502E0,4.161832461E0
4.536101789E0,1.555502892E0,-3.089644432E0,2.626345634E0,4.343176643E0
4.555480451E0,3.278024673E0,-1.662577629E0,1.841738701E0,4.111156963E0
4.574828596E0,3.260975838E0,1.521314621E0,3.635308743E-1,3.616699640E0
4.594207258E0,7.052996159E-1,6.505792618E0,2.740471363E-1,6.549647851E0
4.613585920E0,7.612204552E-1,6.965889931E0,5.016667366E0,8.618006183E0
4.632964582E0,3.195669651E0,2.562781334E0,5.711608410E0,7.028699973E0
4.652343244E0,4.460029602E0,-1.123137474E0,2.214186430E0,5.104500307E0
4.671721906E0,7.346332073E-1,3.025817871E0,-2.757535458E0,4.159238096E0
4.691100569E0,-4.001870155E0,1.046993637E1,-7.587188721E0,1.353513816E1
4.710448713E0,-1.105755711E1,1.443608665E1,-6.754863739E0,1.939841105E1
4.729827375E0,-2.931573153E0,-1.303757668E0,-1.195894718E0,3.424042842E0
4.749206037E0,-3.184227228E0,-5.406000137E0,7.968055725E0,1.014169870E1
4.768554182E0,-2.335962057E0,-5.855789185E-1,-6.046541214E0,6.508477706E0
4.787932844E0,-1.064897537E0,7.183367729E0,-7.668708324E0,1.056143295E1
4.807311506E0,-2.034080029E-1,6.514231682E0,-2.723543644E0,7.063588267E0
4.826659651E0,6.218771935E-1,2.019708633E0,-2.542073727E-1,2.128514880E0
4.846038313E0,-2.248499393E-1,-1.711805344E0,-4.107429981E-1,1.774695704E0
4.865416975E0,-1.798188925E0,-4.152675629E0,-1.476353407E0,4.760022864E0
4.884826155E0,-3.078845501E0,-5.234028816E0,-2.273651838E0,6.484122142E0
4.904143781E0,-3.358085632E0,-4.926051140E0,-3.209214926E0,6.770655757E0
4.923522444E0,-2.738588095E0,-4.405060768E0,-3.045116425E0,6.014745145E0
4.942931623E0,-2.046979427E0,-3.464613914E0,-1.390446186E0,4.257583229E0
4.962279768E0,-1.106412888E0,-4.002178192E0,4.163024426E-1,4.173114842E0
4.981658430E0,-1.253112078E0,-4.076477051E0,8.425498009E-2,4.265566073E0
5.001037092E0,-1.427576423E0,-3.359706879E0,-1.399332762E0,3.909442023E0
5.020385237E0,-1.520225167E0,-1.888749123E0,-1.254500389E0,2.729877110E0
5.039763899E0,-8.562358618E-1,6.129293442E-1,5.894141197E-1,1.206744064E0
5.059142561E0,-3.574931622E-1,2.202214241E0,1.275730848E0,2.570026872E0
5.078490705E0,5.732482672E-1,1.676453590E0,4.878001809E-1,1.837677674E0
5.097869367E0,7.997962236E-1,1.557659149E0,-5.592289567E-1,1.838127594E0
5.117248030E0,1.082325697E0,2.391721725E0,5.291514397E-1,2.678014745E0
5.136626692E0,1.331742883E0,3.034854889E0,3.252952576E0,4.643875942E0
5.155974836E0,1.138235450E0,3.452975273E0,3.075026751E0,4.761765187E0
5.175353498E0,1.429646730E0,4.333084106E0,-1.819880605E0,4.912379572E0
5.194732160E0,9.443536997E-1,4.256456375E0,-7.086606979E0,8.320410042E0
5.214110822E0,-1.987671852E-1,2.827740669E0,-7.683778286E0,8.189998439E0
5.233489485E0,-1.518401861E0,3.287842751E0,-8.127615452E-1,3.711608209E0
5.252868147E0,-4.087666035E0,5.825110435E0,4.136435032E0,8.231100775E0
5.272216291E0,-5.271645546E0,7.923265457E0,-2.415612698E0,9.818531813E0
5.291594953E0,-2.639763355E0,4.069983482E0,-3.606402874E0,6.044771113E0
5.310973615E0,-1.257979155E0,4.892683029E-1,-6.337971687E-1,1.491171981E0
5.330321760E0,-1.719103813E0,-7.094888687E-1,-3.896322250E-1,1.900133060E0
5.349700422E0,-1.587119818E0,-1.658780098E0,-1.870341063E0,2.961195100E0
5.369079084E0,-3.706147671E-1,-1.668646812E0,-1.388367653E0,2.202113128E0
5.388427229E0,-8.904256821E-1,-3.500909805E0,-1.307546854E0,3.841732179E0
5.407805891E0,-2.379800081E0,-4.802847862E0,-1.258493662E0,5.505869805E0
5.427184553E0,-3.002114534E0,-5.246845245E0,-1.709844112E0,6.282168702E0
5.446563215E0,-2.453994274E0,-5.049432755E0,-1.788401127E0,5.892133538E0
5.465911360E0,-2.034760952E0,-5.182397842E0,-1.585091114E0,5.788783410E0
5.485290022E0,-1.969812155E0,-5.071423531E0,-1.295718193E0,5.592707948E0
5.504668684E0,-1.516419888E0,-4.288184166E0,-2.507505417E-1,4.555318710E0
5.524047346E0,-5.276584625E-1,-3.580492973E0,1.722506523E0,4.008164431E0
5.543426008E0,7.080876827E-1,-2.766845703E0,2.093905210E0,3.541364475E0
5.562804670E0,1.538666964E0,-9.993324280E-1,8.341922760E-1,2.015449846E0
5.582152815E0,1.216668963E0,2.676052094E0,-6.780877113E-1,3.016842906E0
5.601531477E0,-1.342497587E0,6.288314819E0,7.107808590E-1,6.469189475E0
5.620910139E0,4.735732079E-2,6.578694344E0,6.722850323E0,9.406283987E0
5.640258283E0,3.416524649E0,3.718624115E0,6.501531601E0,8.232297319E0
5.659636946E0,4.641646862E0,2.370200157E0,2.409040928E-1,5.217352696E0
5.679015608E0,2.064611435E0,7.473229408E0,-2.348339081E0,8.101016887E0
5.698394270E0,-4.073007584E0,9.327301025E0,-7.217934608E0,1.247744025E1
5.717742414E0,-6.660922050E0,2.118777275E0,-3.049600363E0,7.626084321E0
5.737121076E0,-6.659039021E0,-5.737730980E0,-2.374546528E-1,8.793221377E0
5.756499738E0,-6.328724384E0,-2.996454239E0,4.970026970E0,8.586772293E0
5.775847883E0,-3.309609652E0,4.344791412E0,-6.434003353E0,8.439616556E0
5.795257063E0,-4.402561188E-1,8.723903656E0,-4.956739426E0,1.004338520E1
5.814635725E0,1.344390869E0,3.210168839E0,-1.601035595E0,3.830911870E0
5.833983869E0,7.293586731E-1,-7.108860016E-1,-1.334972620E0,1.679129202E0
5.853362531E0,-2.528538704E-1,-2.665326118E0,-1.072429895E0,2.884095054E0
5.872741194E0,-1.754057646E0,-4.038355827E0,-2.068126202E0,4.864378891E0
5.892089338E0,-2.611117840E0,-4.449099541E0,-2.358521461E0,5.672305226E0
5.911468000E0,-2.454191923E0,-4.422185898E0,-3.016674995E0,5.888897532E0
5.930846662E0,-1.949786425E0,-4.201249123E0,-2.441391468E0,5.235699914E0
5.950194807E0,-1.618192911E0,-3.975104332E0,-1.316961288E0,4.489364073E0
5.969573469E0,-1.018906116E0,-3.854755402E0,-3.317564130E-1,4.000921294E0
5.988952131E0,-2.837153673E-1,-3.572967529E0,-1.171249747E-1,3.586127387E0
6.008330793E0,-5.036036968E-1,-2.811805725E0,-7.950723171E-1,2.965132056E0
6.027678938E0,-1.322714448E0,-8.556518555E-1,-7.125000358E-1,1.728979442E0
6.047057600E0,-1.740238309E0,1.970792770E0,1.074028730E0,2.840068878E0
6.066466780E0,1.452528238E-1,2.703502655E0,3.219968557E0,4.206925540E0
6.085814924E0,2.905591011E0,1.101822853E0,1.400214076E0,3.408382634E0
6.105193586E0,3.492798805E0,7.741956711E-1,-3.228591084E-1,3.592110861E0
6.124572248E0,3.015846968E0,2.708324432E0,-6.085704565E-1,4.098867181E0
6.143920393E0,1.262276411E0,5.432022095E0,3.057841063E-1,5.585132917E0
6.163299055E0,-1.620235205E0,6.987840652E0,-4.464678466E-1,7.187100433E0
6.182677717E0,-1.256133080E0,7.044566154E0,-3.282628059E0,7.872701544E0
6.202025862E0,-4.861526489E-1,5.450969696E0,-1.618273020E0,5.706857506E0
6.221404524E0,-2.553132534E0,3.131969452E0,-8.062232733E-1,4.120402207E0
6.240783186E0,-5.236105442E0,2.140996933E0,1.490773797E0,5.850049109E0
6.260161848E0,-3.970533371E0,1.499804497E0,-8.580324054E-1,4.330215744E0
6.279509992E0,-1.380997181E0,1.877453804E0,-4.103372574E0,4.719073265E0
6.298888655E0,-2.990412712E-1,2.295964241E0,-1.463456392E0,2.739084170E0
6.318267317E0,-9.857559204E-1,2.437369347E0,7.743250132E-1,2.740814348E0
6.337615461E0,-2.461543322E0,5.130491257E-1,-7.609610558E-1,2.627066169E0
6.356994123E0,-2.835543394E0,-1.517617226E0,-2.803171873E0,4.266291239E0
6.376403303E0,-2.043860435E0,-3.485670090E0,-1.848945141E0,4.443631351E0
6.395751447E0,-2.654747725E0,-4.886836052E0,-2.222455263E0,5.989003212E0
6.415130110E0,-2.793728352E0,-5.182147980E0,-1.600756645E0,6.100983333E0
6.434508772E0,-2.413008690E0,-4.464740753E0,-1.930068254E0,5.429703896E0
6.453856916E0,-1.472407341E0,-3.736754417E0,-1.405780077E0,4.255294887E0
6.473235578E0,-9.453675747E-1,-3.900034904E0,-5.443401337E-1,4.049728175E0
6.492614240E0,-8.588829041E-1,-5.174294472E0,-6.114730835E-1,5.280615727E0
6.511962385E0,-5.183315277E-1,-5.366481781E0,3.278148174E-1,5.401412485E0
6.531341047E0,4.739651680E-1,-4.218683243E0,1.775010824E0,4.601368787E0
6.550719709E0,1.674113274E0,-2.080216408E0,2.349295378E0,3.556563556E0
6.570098371E0,2.379905701E0,1.275778770E0,1.159199953E0,2.938589312E0
6.589446516E0,1.331288576E0,5.304328918E0,-5.488500595E-1,5.496314305E0
6.608825178E0,-8.673572540E-1,7.631530762E0,3.036735058E0,8.259196703E0
6.628203840E0,1.380455494E0,7.164899826E0,6.619255066E0,9.851699575E0
6.647582502E0,4.116659164E0,5.502431870E0,1.388795376E0,7.010876675E0
6.666961164E0,1.070199966E0,8.211371422E0,1.849753857E-1,8.282883827E0
6.686339826E0,-4.944693565E0,5.675107002E0,-3.905796528E0,8.480099083E0
6.705687971E0,-5.214558125E0,-2.994131088E0,-3.142852545E0,6.784833051E0
6.725066633E0,-5.559739113E0,-4.785925865E0,-1.805261135E0,7.554783462E0
6.744445295E0,-4.344916344E0,-1.488676071E-1,5.207495689E-1,4.378543104E0
6.763793440E0,-2.190769911E0,5.280712128E0,-5.319941044E0,7.809428026E0
6.783172102E0,-1.087496281E-1,6.522772789E0,-2.825626373E0,7.109328783E0
6.802550764E0,1.412444115E-1,1.829731941E0,-1.187299252E0,2.185760388E0
6.821929426E0,-6.159842014E-1,-1.113787651E0,-1.500851154E0,1.967870335E0
6.841277571E0,-1.133040905E0,-2.894001007E0,-1.355263948E0,3.390540354E0
6.860656233E0,-1.764795542E0,-4.057130814E0,-1.736559629E0,4.752941520E0
6.880034895E0,-2.063073874E0,-4.358499527E0,-1.831353426E0,5.158163172E0
6.899383039E0,-1.951103449E0,-4.289524078E0,-2.572876930E0,5.369033170E0
6.918761701E0,-1.860717058E0,-3.126285553E0,-2.637629986E0,4.493664570E0
6.938140363E0,-1.414248705E0,-2.960184097E0,-1.521468401E0,3.616304106E0
6.957519026E0,-1.269279003E0,-2.921684265E0,-7.505210638E-1,3.272703775E0
6.976897688E0,-8.423948288E-1,-2.748417854E0,1.528319120E-1,2.878678055E0
6.996276350E0,-4.797751904E-1,-2.125965118E0,1.963819861E-1,2.188259080E0
7.015624494E0,-9.744180441E-1,-2.029847145E0,-8.319245577E-1,2.400389224E0
7.035003156E0,-1.955908537E0,-5.414419174E-1,-3.525449634E-1,2.059860555E0
7.054381819E0,-1.021119952E0,1.550794601E0,1.432590008E0,2.345200201E0
7.073729963E0,1.960933805E0,1.720757484E0,2.209899664E0,3.419053119E0
7.093108625E0,3.672231197E0,1.625438690E0,3.969272673E-1,4.035453402E0
7.112470497E0,4.241803169E0,2.332441330E0,-9.982882142E-1,4.942646664E0
7.131849159E0,3.333536148E0,2.968259811E0,-1.758981049E-1,4.466986647E0
7.151197304E0,-6.468868256E-2,4.091619492E0,2.509248495E0,4.800194027E0
7.170575966E0,-2.442506552E0,5.098609924E0,1.060739279E0,5.752115196E0
7.189954628E0,-1.166343451E0,4.353813171E0,-2.021606922E0,4.939933271E0
7.209302773E0,-4.199171066E-2,3.432215691E0,-3.887097836E0,5.185691606E0
7.228711952E0,-7.449368238E-1,2.536222458E0,-2.290095091E0,3.497412008E0
7.248090615E0,-3.483978748E0,2.403535843E0,4.851130247E-1,4.260331808E0
7.267438759E0,-4.295173645E0,4.064527512E0,3.617662787E-1,5.924506340E0
7.286817421E0,-2.372215271E0,4.141456604E0,-3.323285818E0,5.815779976E0
7.306196083E0,-1.381985664E0,2.860227585E0,-1.926594734E0,3.715178796E0
7.325544228E0,-1.551943541E0,2.954104424E0,9.040482044E-1,3.457248162E0
7.344922890E0,-2.336324692E0,1.561596870E0,1.666747332E-1,2.815098279E0
7.364301552E0,-1.971796274E0,-9.582977295E-1,-1.938156605E0,2.926220448E0
7.383680214E0,-8.770475388E-1,-2.607045174E0,-2.432691097E0,3.672040699E0
7.403028359E0,-1.562156677E0,-4.816717148E0,-2.043537140E0,5.460507450E0
7.422407021E0,-2.755196810E0,-5.344113350E0,-1.493711710E0,6.195307226E0
7.441785683E0,-3.145179749E0,-5.105408669E0,-1.261104822E0,6.127620965E0
7.461133827E0,-2.876747131E0,-4.786360741E0,-1.626239300E0,5.816319924E0
7.480512490E0,-2.120652676E0,-5.543956757E0,-1.551569462E0,6.135144015E0
7.499891152E0,-1.319123745E0,-5.677030563E0,-1.190405369E0,5.948598861E0
7.519269814E0,-8.509221077E-1,-4.710326195E0,-7.199242115E-1,4.840406198E0
7.538648476E0,-2.663033009E-1,-3.803042412E0,1.047991991E0,3.953774936E0
7.558027138E0,9.967319965E-1,-2.742630005E0,2.559075356E0,3.881283382E0
7.577375282E0,1.994448900E0,-5.435371399E-1,2.298672676E0,3.091464881E0
7.596753945E0,2.117645502E0,2.839040756E0,-1.396248341E-1,3.544583189E0
7.616132607E0,-6.772565842E-1,5.844338417E0,3.534102440E-2,5.883554793E0
7.635480751E0,-9.233117104E-2,5.248042107E0,6.440515518E0,8.308472251E0
7.654859413E0,3.301937819E0,2.949878693E0,6.056028843E0,7.502003933E0
7.674238075E0,5.129005432E0,5.003213882E-1,1.804924965E0,5.460290500E0
7.693616738E0,1.939144611E0,3.273166656E0,-1.203301668E0,3.990217624E0
7.712964882E0,-3.374587297E0,8.358234406E0,-2.380856037E0,9.322896399E0
7.732343544E0,-7.487171173E0,7.496496201E0,-4.563187599E0,1.153593813E1
7.751722206E0,-5.033012867E0,5.337009430E-1,-2.017796755E0,5.448629090E0
7.771070351E0,-4.119646072E0,-3.949548721E0,1.073549271E0,5.807144470E0
7.790449013E0,-3.336991549E0,-1.180032730E0,5.103986263E-1,3.576100753E0
7.809858193E0,-1.075024605E0,5.011189461E0,-6.164504528E0,8.016783257E0
7.829206337E0,9.671906233E-1,5.200729370E0,-3.089908123E0,6.126220359E0
7.848584999E0,6.994829178E-1,1.474842072E0,-1.540756702E0,2.244630639E0
7.867963661E0,-1.248154640E-1,-1.046711922E0,-6.647481918E-1,1.246224260E0
7.887311806E0,-1.086667895E0,-2.376717567E0,-4.135090113E-1,2.645869085E0
7.906690468E0,-2.253651381E0,-2.882393837E0,-7.961143255E-1,3.744454139E0
7.926069130E0,-2.757304192E0,-3.993179321E0,-1.356650710E0,5.038720934E0
7.945447792E0,-2.787199974E0,-4.817147255E0,-2.250986099E0,6.003359875E0
7.964795937E0,-2.044641972E0,-4.580356598E0,-2.478643894E0,5.594989089E0
7.984174599E0,-5.933308601E-1,-3.985241890E0,-1.767094135E0,4.399638180E0
8.003553261E0,3.817470074E-1,-2.718445778E0,-6.816325188E-1,2.828480354E0
8.022901406E0,6.469391584E-1,-1.880194664E0,1.406936049E-1,1.993353190E0
8.042280068E0,9.819829464E-2,-2.462754250E0,-1.803223193E-1,2.471298755E0
8.061658730E0,-8.452801704E-1,-2.364772797E0,-5.310947299E-1,2.566848371E0
8.081037392E0,-1.353070259E0,-2.439918518E-1,1.388385892E-3,1.374893842E0
8.100416054E0,-7.394173145E-1,2.213994980E0,2.016212940E0,3.084416696E0
8.119794716E0,1.848265886E0,1.857916832E0,1.861913919E0,3.214757407E0
8.139142861E0,3.061449528E0,2.515664101E0,-7.018715143E-1,4.024135025E0
8.158521523E0,2.133803129E0,3.426600456E0,1.246992946E-1,4.038595844E0
8.177900185E0,5.302385092E-1,3.154409409E0,2.297850370E0,3.938472790E0
8.197248329E0,-3.160080910E-1,3.183188438E0,3.268814802E0,4.573587209E0
8.216626991E0,-8.539283276E-1,3.639516830E0,-5.652230978E-2,3.738779362E0
8.236005654E0,-1.029131174E0,3.953407288E0,-3.272144318E0,5.234068073E0
8.255384316E0,-1.987386942E-1,3.670566559E0,-5.629012108E0,6.722970567E0
8.274732460E0,8.383792639E-1,2.188462257E0,-2.786612034E0,3.641078613E0
8.294111122E0,-1.263754964E0,2.535280228E0,4.079143047E0,4.966299472E0
8.313489784E0,-3.552839756E0,4.411940575E0,-2.017844439E0,6.013284140E0
8.332837929E0,-2.038983822E0,3.235876083E0,-4.276877880E0,5.737598230E0
8.352216591E0,-1.960576773E-1,2.113916397E0,4.296429157E-1,2.166027281E0
8.371625771E0,-9.721974134E-1,2.779601097E0,1.179652095E0,3.172212025E0
8.390973915E0,-2.329043150E0,7.721958160E-1,-1.075754642E0,2.679174579E0
8.410352577E0,-2.226485729E0,-1.405794144E0,-1.876321673E0,3.233276805E0
8.429731240E0,-2.249391079E0,-3.761579514E0,-1.859537601E0,4.760999974E0
8.449079384E0,-2.925570250E0,-5.453072548E0,-1.914170027E0,6.477577355E0
8.468458046E0,-2.710980654E0,-5.644506454E0,-1.985502958E0,6.569025134E0
8.487836708E0,-2.037146807E0,-4.762118340E0,-1.450011969E0,5.378686912E0
8.507215370E0,-1.340369463E0,-3.985346794E0,-1.553525448E0,4.482523919E0
8.526563515E0,-1.650587797E0,-4.339607239E0,-1.360342264E0,4.838094887E0
8.545942177E0,-1.468361855E0,-5.173222542E0,-6.264712811E-1,5.413943504E0
8.565320839E0,-2.209351063E-1,-4.836977959E0,8.306374550E-1,4.912751436E0
8.584668984E0,1.394223094E0,-3.833409309E0,2.040221453E0,4.560853927E0
8.604047646E0,2.549393177E0,-1.116188049E0,2.132692337E0,3.506231301E0
8.623426308E0,2.703722715E0,3.413833618E0,1.022013426E0,4.473129546E0
8.642774452E0,1.284145117E-1,6.043398857E0,1.049914360E-1,6.045674754E0
8.662183632E0,-2.629697323E-1,5.578014374E0,7.053488731E0,8.996393762E0
8.681562294E0,3.705156088E0,2.192609787E0,6.329794884E0,7.655195790E0
8.700910439E0,6.209015846E0,1.739149094E0,3.807795048E-1,6.459219022E0
8.720289101E0,2.369367838E0,5.976181984E0,-3.252923489E0,7.204871011E0
8.739667763E0,-5.061810970E0,7.875853539E0,-6.997093678E0,1.168804172E1
8.759015907E0,-5.758112907E0,3.071057320E0,-1.572968245E0,6.712785295E0
8.778394570E0,-4.827114105E0,-4.490471840E0,-6.192197800E-1,6.621842724E0
8.797773232E0,-4.705099583E0,-2.155677795E0,2.962941170E0,5.963550051E0
8.817151894E0,-2.073868990E0,3.984528542E0,-6.100372791E0,7.575747387E0
8.836500038E0,-6.453357935E-1,6.875038147E0,-3.845871449E0,7.904007528E0
8.855878700E0,5.799076557E-1,2.930937767E0,-1.231091022E0,3.231450787E0
8.875257363E0,7.409753799E-1,-1.978778839E-2,-3.748998642E-1,8.306539463E-1
8.894605507E0,-1.655697823E-3,-1.156186104E0,-1.903820038E-1,1.171756952E0
8.913984169E0,-1.168438435E0,-2.768237114E0,-8.716285229E-1,3.128597350E0
8.933362831E0,-1.387956977E0,-4.152278900E0,-1.106506705E0,4.515772550E0
8.952741493E0,-1.622700572E0,-4.832446098E0,-2.640651703E0,5.740969766E0
8.972120156E0,-2.200885773E0,-5.129560471E0,-3.981594086E0,6.856338693E0
8.991498818E0,-2.125912189E0,-4.415695190E0,-2.172565937E0,5.360775075E0
9.010846962E0,-1.269028902E0,-3.037872314E0,-8.441290855E-1,3.398772788E0
9.030225624E0,-4.737794399E-1,-2.023194313E0,8.223004937E-1,2.234717049E0
9.049604286E0,-5.281062126E-1,-2.417429924E0,5.445744991E-1,2.533658421E0
9.068952431E0,-6.458950043E-1,-2.646797180E0,2.206099033E-2,2.724555442E0
9.088331093E0,-4.642019272E-1,-8.381586075E-1,7.080343962E-1,1.191346292E0
9.107709755E0,6.410434246E-1,5.117645264E-1,1.766155005E0,1.947342575E0
9.127088417E0,1.983451128E0,1.203243256E0,9.718623161E-1,2.515231415E0
9.146436562E0,3.040605068E0,2.078599930E0,-1.212941289E0,3.877767840E0
9.165815224E0,2.274202824E0,3.545170784E0,-1.799737573E0,4.580315459E0
9.185193886E0,1.009698153E0,3.250142097E0,1.417117715E0,3.686615878E0
9.204542031E0,-5.280351043E-1,3.097336769E0,3.801536798E0,4.931936553E0
9.223951210E0,-7.076751590E-1,2.545839310E0,2.381925344E0,3.557480888E0
9.243329872E0,-1.034892440E0,3.704550743E0,-2.352939367E0,4.508993484E0
9.262678017E0,-7.151700258E-1,3.721911430E0,-5.677275181E0,6.826093051E0
9.282056679E0,4.314332008E-1,3.974904060E0,-3.642099619E0,5.408408872E0
9.301435341E0,-1.023840070E0,4.639324188E0,8.494666815E-1,4.826299934E0
9.320783486E0,-3.162945271E0,5.606854439E0,-1.978418112E0,6.734625283E0
9.340162148E0,-2.314241171E0,3.547632217E0,-3.865093708E0,5.734139510E0
9.359540810E0,-1.267247081E0,2.679574966E0,-1.806841612E0,3.471413801E0
9.378949990E0,-1.666639686E0,1.872938156E0,4.004093409E-1,2.538880229E0
9.398267616E0,-1.760124803E0,1.353874207E-1,-6.619715691E-2,1.766564785E0
9.417646279E0,-1.328133464E0,-1.454509735E0,-1.238215923E0,2.326524391E0
9.437024941E0,-8.223798275E-1,-2.947262764E0,-2.658424854E0,4.053379958E0
9.456373085E0,-8.843774796E-1,-4.167580605E0,-1.970692396E0,4.694089916E0
9.475751747E0,-1.562307119E0,-5.138484001E0,-1.843532085E0,5.678330029E0
9.495130409E0,-2.083627224E0,-5.728214264E0,-1.713529348E0,6.331676231E0
9.514509072E0,-1.795276761E0,-5.989829063E0,-1.794866800E0,6.505583578E0
9.533887734E0,-2.088555098E0,-5.225573540E0,-1.072447062E0,5.728771589E0
9.553266396E0,-1.728662729E0,-4.841649055E0,-3.672163486E-1,5.154094320E0
9.572614540E0,-4.610190392E-1,-4.308309555E0,3.805840015E-1,4.349587792E0
9.591993202E0,1.070811987E0,-3.837544441E0,1.466593742E0,4.245501484E0
9.611371865E0,2.241338730E0,-2.481752396E0,1.748860121E0,3.773752241E0
9.630720009E0,2.526106358E0,1.270546913E0,1.256986618E0,3.094433413E0
9.650098671E0,9.716916084E-1,4.653942108E0,-5.483098030E-1,4.785812927E0
9.669477333E0,9.781563282E-2,4.797585487E0,3.607080936E0,6.003118130E0
9.688855995E0,2.928987026E0,3.457086563E0,6.069991589E0,7.574642592E0
9.708204140E0,5.621257305E0,2.972042084E0,3.268425465E0,7.149417659E0
9.727582802E0,5.549866676E0,7.121364594E0,-1.355369091E-1,9.029574965E0
9.746961464E0,4.543128014E-1,8.943586349E0,-5.663983822E0,1.059598271E1
9.766309609E0,-6.177605629E0,5.942949295E0,-7.902727127E0,1.165909746E1
9.785688271E0,-6.203584671E0,-2.023703575E0,-3.301481485E0,7.312976065E0
9.805097450E0,-5.894459724E0,-3.922341347E0,9.044255257E0,1.148599017E1
9.824445595E0,-4.190846443E0,-9.367303848E-1,-4.208718777E0,6.012817265E0
9.843824257E0,-1.478933573E0,5.306815147E0,-6.078467369E0,8.203492980E0
9.863202919E0,3.314265013E-1,4.633208275E0,-3.612875223E0,5.884669049E0
9.882551064E0,5.302219391E-1,5.647058487E-1,-1.508498430E0,1.695758094E0
9.901929726E0,5.177761316E-1,-1.624373436E0,-2.929143906E-1,1.729878615E0
9.921308388E0,-3.616648912E-1,-2.641152382E0,-4.408861399E-1,2.702011841E0
9.940687050E0,-1.749286413E0,-3.467242241E0,-1.538130760E0,4.177034588E0
9.960035195E0,-2.341251850E0,-4.112836838E0,-2.328850508E0,5.274507727E0
9.979413857E0,-2.419181347E0,-3.898574829E0,-2.756767035E0,5.352671162E0
9.998792519E0,-1.803263068E0,-3.386433601E0,-1.697121620E0,4.195224907E0
1.001814066E1,-1.128955245E0,-3.099469185E0,-8.262279034E-1,3.400573734E0
1.003751932E1,-1.372319460E-1,-2.360383034E0,1.689237952E-1,2.370395731E0
1.005689799E1,9.164508581E-1,-1.733183861E0,1.217253447E0,2.307707612E0
1.007624613E1,7.923043966E-1,-1.484433174E0,5.350912809E-1,1.765675730E0
1.009565531E1,8.344578743E-2,-1.388456345E0,6.382967234E-1,1.530423774E0
1.011503397E1,-1.011594534E-1,-5.424356461E-1,1.235638142E0,1.353244724E0
1.013438212E1,7.907822728E-1,1.656017303E-1,1.051471353E0,1.326028861E0
1.015376078E1,2.425095320E0,3.503437042E-1,-6.741961837E-1,2.541332036E0
1.017313944E1,2.768633366E0,1.680554390E0,-1.309684515E0,3.493546522E0
1.019248759E1,2.264757156E0,2.230726242E0,1.196423292E0,3.396570806E0
1.021186625E1,6.163133383E-1,3.173917770E0,3.462606907E0,4.737429972E0
1.023124491E1,-1.466949463E0,3.761516571E0,1.854901910E0,4.443153017E0
1.025062357E1,-1.115116954E0,3.902490616E0,-5.493112206E-1,4.095688177E0
1.026997172E1,-1.132115126E-1,4.164441109E0,-4.776619434E0,6.338097492E0
1.028935038E1,6.002801657E-1,3.319046021E0,-4.842198849E0,5.901126372E0
1.030872904E1,-1.100794435E0,3.498387337E0,-1.287118495E-1,3.669745098E0
1.032807719E1,-4.137987614E0,4.963028908E0,2.512479305E0,6.933047648E0
1.034745585E1,-3.536485195E0,4.802212715E0,-3.140879631E0,6.740407952E0
1.036683451E1,-6.875772476E-1,2.549865723E0,-1.634943843E0,3.106061661E0
1.038621317E1,-4.222157001E-1,2.610678673E0,9.301377535E-1,2.803402481E0
1.040559184E1,-1.370516181E0,1.588093758E0,-3.303391933E-1,2.123553712E0
1.042497050E1,-1.722251415E0,-4.444818497E-1,-1.391001344E0,2.258007704E0
1.044431864E1,-1.330625415E0,-2.281050682E0,-2.429233313E0,3.588165366E0
1.046369730E1,-1.087444901E0,-3.894950867E0,-2.038521767E0,4.528658704E0
1.048307597E1,-1.673262000E0,-4.663290024E0,-1.592135668E0,5.203938465E0
1.050242411E1,-2.059544086E0,-4.442787170E0,-1.134747982E0,5.026701967E0
1.052180277E1,-2.065616608E0,-4.226287842E0,-1.381865501E0,4.902839295E0
1.054118144E1,-1.658558726E0,-4.481197357E0,-1.361008406E0,4.968328762E0
1.056059062E1,-1.733153224E0,-5.198330879E0,-1.029199839E0,5.575456603E0
1.057990824E1,-1.239526033E0,-5.558952332E0,-2.417972088E-1,5.700600118E0
1.059928690E1,-2.043832541E-1,-4.808238029E0,6.717677116E-1,4.859238348E0
1.061866557E1,1.254397631E0,-3.887545586E0,1.987081528E0,4.542578243E0
1.063801371E1,2.570102692E0,-2.024996758E0,1.816055775E0,3.742205004E0
1.065742289E1,3.366420746E0,2.385798454E0,9.603774548E-1,4.236407412E0
1.067680155E1,1.331374645E0,6.353035927E0,-3.822324276E-1,6.502286180E0
1.069614970E1,1.101031423E0,6.407795906E0,5.652782917E0,8.615455489E0
1.071552836E1,3.504636049E0,3.463067055E0,6.258348942E0,7.965063637E0
1.073490702E1,4.011888027E0,1.416306496E0,1.468830109E0,4.500958956E0
1.075425516E1,-1.006131172E0,6.834913254E0,-2.368371487E0,7.303254249E0
1.077363383E1,-5.088196754E0,7.630198479E0,-4.778627396E0,1.034141938E1
1.079301249E1,-3.808481932E0,1.763174057E0,-1.627245903E0,4.501249450E0
1.081239115E1,-3.989908457E0,-2.495154381E0,-1.220664263E0,4.861603246E0
1.083173930E1,-2.878429890E0,-8.498258591E-1,1.039412022E-1,3.003059506E0
1.085111796E1,-2.375906229E0,3.752182007E0,-4.323586464E0,6.198161028E0
1.087049662E1,-9.553461075E-1,5.337634087E0,-2.888776541E0,6.143944476E0
1.088984477E1,3.159642220E-1,2.112406731E0,-1.539576769E0,2.632943640E0
1.090922343E1,4.243850708E-2,-4.514007568E-1,-6.712336540E-1,8.100112891E-1
1.092860209E1,-5.752888918E-1,-2.036953926E0,-5.569825172E-1,2.188690963E0
1.094798075E1,-1.352239251E0,-2.963101387E0,-8.926031590E-1,3.377167633E0
1.096735941E1,-1.804185629E0,-3.832359314E0,-1.189947248E0,4.399777056E0
1.098673808E1,-1.676001072E0,-4.568233490E0,-1.902853847E0,5.224805219E0
1.100608622E1,-1.661979318E0,-4.698178291E0,-2.545207500E0,5.595814126E0
1.102546488E1,-1.278590322E0,-4.393986702E0,-1.654649973E0,4.866187304E0
1.104484354E1,-4.806236029E-1,-3.758781433E0,-3.157619238E-1,3.802517916E0
1.106419169E1,-3.351092339E-2,-3.046996117E0,4.456309080E-1,3.079593354E0
1.108357035E1,-4.311835766E-2,-2.286688805E0,7.545188665E-1,2.408340425E0
1.110294901E1,-5.495589972E-1,-2.353637695E0,-4.120093584E-2,2.417296632E0
1.112232768E1,-1.071700096E0,-5.289726257E-1,3.506860137E-1,1.245525518E0
1.114167582E1,6.252408028E-3,1.923975945E0,1.958017468E0,2.745096526E0
1.116105448E1,2.991852522E0,1.912471771E0,1.573854446E0,3.884037539E0
1.118043314E1,3.881911755E0,2.631574631E0,-1.274139404E0,4.859820483E0
1.119978129E1,3.891136169E0,3.234990120E0,-1.517748713E0,5.282959675E0
1.121915995E1,2.508981705E0,3.075697899E0,1.690505505E0,4.314245661E0
1.123856913E1,-6.591057777E-1,3.631311417E0,3.249361515E0,4.917234313E0
1.125791728E1,-1.717910767E0,3.081327438E0,1.801632494E-1,3.532457357E0
1.127729594E1,-1.294155598E0,2.470354080E0,-2.120642185E0,3.503514132E0
1.129667460E1,-1.933896542E-2,2.708348274E0,-4.218347549E0,5.012981191E0
1.131602274E1,2.894568443E-2,2.328681946E0,-3.037444353E0,3.827488165E0
1.133540141E1,-2.110621929E0,3.913733482E0,3.675472975E0,5.768980524E0
1.135478007E1,-3.617312193E0,5.659113884E0,-1.200486183E0,6.822879490E0
1.137412821E1,-1.252995372E0,3.645026207E0,-3.356106281E0,5.110739949E0
1.139350687E1,1.029944420E-2,2.567568779E0,3.940552473E-1,2.597651834E0
1.141288554E1,-2.015219927E-1,2.497878075E0,1.439110398E0,2.889817421E0
1.143226420E1,-8.338783979E-1,7.889184952E-1,-9.898062944E-1,1.515738129E0
1.145161234E1,-1.082781076E0,-1.975605011E0,-2.772575855E0,3.572479096E0
1.147099100E1,-8.771247864E-1,-3.644247055E0,-2.399867535E0,4.450758213E0
1.149036967E1,-1.476602793E0,-5.121260643E0,-1.795440912E0,5.624168779E0
1.150974833E1,-2.356140137E0,-5.210313797E0,-1.311154366E0,5.866676400E0
1.152912699E1,-2.516872406E0,-5.603995323E0,-2.140425205E0,6.505446207E0
1.154850565E1,-2.220066071E0,-5.184356689E0,-1.526202440E0,5.842562925E0
1.156785380E1,-1.653428555E0,-4.848516464E0,-9.292128086E-1,5.206282199E0
1.158723246E1,-1.332546949E0,-4.767145157E0,-5.240607262E-1,4.977548992E0
1.160661112E1,-5.806450844E-1,-4.578714371E0,6.065831184E-1,4.655074337E0
1.162595927E1,7.102696896E-1,-4.139921188E0,1.403661251E0,4.428735190E0
1.164533793E1,1.847294807E0,-2.239985466E0,1.101598978E0,3.105407107E0
1.166471659E1,2.131189585E0,1.745124817E0,8.335492611E-1,2.877887080E0
1.168409525E1,2.289764881E-1,5.935153961E0,7.461786270E-3,5.939573929E0
1.170344340E1,-7.814333439E-1,6.995439529E0,5.687983513E0,9.049860149E0
1.172282206E1,2.819168568E0,4.865407944E0,8.657158852E0,1.032309572E1
1.174223124E1,6.757494926E0,-2.660083771E-2,4.287016869E0,8.002684482E0
1.176154887E1,6.468089104E0,6.140508652E-1,-1.087825060E0,6.587609466E0
1.178092753E1,8.758420944E-1,7.002206802E0,-4.063851357E0,8.143272519E0
1.180030619E1,-7.234073639E0,7.587825775E0,-8.267167091E0,1.335114127E1
1.181968485E1,-9.228043556E0,4.468470573E0,-3.326297760E0,1.077906647E1
1.183906352E1,-5.346127033E0,-3.371228218E0,2.182201147E0,6.686423244E0
1.185844218E1,-3.934379101E0,-4.227356911E0,6.463325977E0,8.667437225E0
1.187779032E1,-9.766663313E-1,3.129639626E0,-7.578567982E0,8.257312757E0
1.189716898E1,5.903698206E-1,6.900726318E0,-5.086404800E0,8.593024732E0
1.191654765E1,1.009067535E0,2.768856049E0,-1.741613150E0,3.423156069E0
1.193589579E1,2.846833467E-1,-1.191930771E-1,-1.170272589E0,1.210284896E0
1.195527445E1,-7.719695568E-1,-1.274558067E0,-2.420250177E-1,1.509639484E0
1.197465312E1,-2.188807726E0,-2.560708046E0,-4.687244892E-1,3.401147983E0
1.199403178E1,-2.766175032E0,-4.233734131E0,-7.757985592E-1,5.116453107E0
1.201337992E1,-2.607243061E0,-4.782636642E0,-2.270874262E0,5.901542133E0
1.203275858E1,-1.864770412E0,-3.926486969E0,-2.317622662E0,4.926057593E0
1.205213724E1,-6.739996672E-1,-3.423271179E0,-1.096705317E0,3.657297318E0
1.207148539E1,1.582254171E-1,-2.946155548E0,-1.567862630E-1,2.954564220E0
1.209089457E1,6.452950239E-1,-3.163786888E0,4.505923390E-1,3.260212661E0
1.211027323E1,4.489799738E-1,-3.369761467E0,-1.900746524E-1,3.404850031E0
1.212962138E1,-2.310817242E-1,-3.131830215E0,-1.367860436E-1,3.143321441E0
1.214900004E1,-7.705733776E-1,-1.677797318E0,9.336820245E-1,2.068948837E0
1.216837870E1,-1.823374033E-1,1.543264389E0,2.191171646E0,2.686288347E0
1.218772684E1,1.753013492E0,1.906161308E0,9.565823078E-1,2.760716745E0
1.220710551E1,2.847835064E0,1.599107742E0,-2.074939758E-1,3.272669228E0
1.222648417E1,3.144460678E0,2.233407021E0,-7.148246765E-1,3.922590240E0
1.224583231E1,3.158529520E0,3.236779213E0,8.235414624E-1,4.596875998E0
1.226521098E1,9.477899075E-1,4.157686234E0,3.044764042E0,5.239775625E0
1.228458964E1,-1.684968710E0,3.829723358E0,2.943864763E-1,4.194349050E0
1.230396830E1,-1.693717122E0,3.566271782E0,-1.750610352E0,4.318750828E0
1.232331645E1,-2.723789215E-1,3.697867393E0,-4.021790504E0,5.470211367E0
1.234269511E1,6.566587687E-1,2.949157715E0,-2.306204319E0,3.800961763E0
1.236207377E1,-1.636805058E0,4.262289047E0,4.173757076E0,6.185991178E0
1.238145243E1,-4.109892368E0,5.844693184E0,-2.905590534E0,7.713242512E0
1.240083109E1,-1.535262823E0,3.316151619E0,-2.829534531E0,4.621705222E0
1.242020976E1,-4.049618244E-1,2.810030937E0,1.661851168E0,3.289683458E0
1.243955790E1,-1.596833348E0,1.762692451E0,4.644001722E-1,2.423350767E0
1.245893656E1,-1.921926856E0,-4.187660217E-1,-1.232977629E0,2.321508487E0
1.247831522E1,-1.669564605E0,-2.572357178E0,-2.253698826E0,3.805735910E0
1.249766337E1,-8.265630007E-1,-3.611041069E0,-2.166827202E0,4.291615560E0
1.251704203E1,-9.379900694E-1,-4.904016495E0,-1.382773399E0,5.180855665E0
1.253642069E1,-1.833432555E0,-5.381851196E0,-9.106934071E-1,5.758051729E0
1.255576884E1,-1.897162676E0,-4.956192017E0,-5.394473076E-1,5.334235552E0
1.257514750E1,-1.274304628E0,-5.055698395E0,-1.712751627E0,5.487937379E0
1.259452616E1,-1.163864017E0,-4.860365868E0,-1.437119007E0,5.200292959E0
1.261390482E1,-6.771266460E-1,-4.992442131E0,1.310184002E-1,5.039855628E0
1.263325297E1,2.901294231E-1,-4.677922249E0,1.639501333E0,4.965389841E0
1.265263163E1,1.459030867E0,-3.593659401E0,1.607681513E0,4.198547226E0
1.267204081E1,2.125056267E0,-1.604984283E0,9.513182640E-1,2.827869362E0
1.269138895E1,1.708121061E0,1.743912697E0,5.001640320E-1,2.491801179E0
1.271076762E1,1.977509260E-1,4.958581924E0,3.427424431E-1,4.974345436E0
1.273014628E1,2.757927179E-1,5.064558029E0,5.801105499E0,7.705753348E0
1.274949442E1,3.521950245E0,3.280824661E0,6.745503902E0,8.286722324E0
1.276887309E1,6.172077179E0,2.224632263E0,2.459579468E0,7.006643745E0
1.278825175E1,4.674506187E0,5.535822868E0,-1.430335760E0,7.385269346E0
1.280759989E1,-1.564245224E0,7.850822449E0,-6.035489559E0,1.002543817E1
1.282697855E1,-5.701803207E0,5.009638786E0,-4.879567146E0,9.023148903E0
1.284635722E1,-6.957954884E0,-2.601832390E0,-2.123839378E0,7.726147918E0
1.286573588E1,-7.236835480E0,-3.483106613E0,6.178437233E0,1.013296137E1
1.288508402E1,-3.988455772E0,1.196380615E0,-4.197259903E0,5.912368114E0
1.290446268E1,-8.962527514E-1,7.226973534E0,-5.186965942E0,8.940751151E0
1.292387186E1,2.281954288E0,6.281162262E0,-2.761715651E0,7.231001872E0
1.294322001E1,2.450219393E0,1.597325325E0,-7.850699425E-1,3.028425017E0
1.296259867E1,3.126467466E-1,-1.031626701E0,6.335473061E-2,1.079821958E0
1.298197733E1,-1.492466092E0,-2.469613075E0,-5.415848494E-1,2.935942426E0
1.300132548E1,-2.211145639E0,-3.790146828E0,-9.779130220E-1,4.495630311E0
1.302070414E1,-2.285224438E0,-5.109787941E0,-1.625557065E0,5.828775112E0
1.304008280E1,-2.116648674E0,-5.497753143E0,-2.526143074E0,6.409905621E0
1.305943095E1,-1.403191447E0,-4.926087379E0,-2.262175560E0,5.599350085E0
1.307880961E1,-8.170535564E-1,-4.101959229E0,-1.151617408E0,4.338187257E0
1.309818827E1,-2.517282963E-2,-3.054128647E0,6.379125118E-1,3.120139073E0
1.311753642E1,5.166488886E-1,-2.740379333E0,1.307692766E0,3.080043074E0
1.313691508E1,6.629960537E-1,-2.729743958E0,1.057894468E0,3.001700609E0
1.315629374E1,4.211840630E-1,-2.839431763E0,1.188195467E0,3.106698765E0
1.317567240E1,6.874889135E-1,-9.678277969E-1,1.674681067E0,2.052775762E0
1.319502055E1,1.853796005E0,1.469248772E0,2.680736482E-1,2.380570323E0
1.321439921E1,3.077970266E0,2.565635681E0,-6.667532921E-1,4.062135813E0
1.323377787E1,3.333835840E0,3.255463600E0,-8.546869159E-1,4.737403760E0
1.325315653E1,2.778856516E0,3.033155441E0,8.417775035E-1,4.198888523E0
1.327253520E1,5.470867753E-1,3.222419739E0,3.621995449E0,4.878744095E0
1.329191386E1,-1.608250737E0,3.385880470E0,2.729319334E0,4.636792104E0
1.331126200E1,-1.218352556E0,4.168343544E0,-1.722676516E0,4.671946621E0
1.333064066E1,1.569316387E-1,3.599798203E0,-6.442007542E0,7.381235385E0
1.335001933E1,9.662172198E-1,3.496305466E0,-4.064893246E0,5.448034942E0
1.336936747E1,-1.567071676E0,3.703704834E0,-2.725565135E-1,4.030810116E0
1.338874613E1,-4.780650139E0,4.963384628E0,2.309483528E0,7.267978872E0
1.340812479E1,-4.029795170E0,4.730369568E0,-3.296134472E0,7.034212665E0
1.342747294E1,-1.682763100E0,2.450560570E0,-2.525566578E0,3.900695489E0
1.344685160E1,-6.384599209E-1,2.583638191E0,1.371713400E0,2.994063297E0
1.346623026E1,-1.423655868E0,1.122888565E0,8.137275577E-1,1.987417243E0
1.348560893E1,-1.592752457E0,-9.988241196E-1,-1.586175799E0,2.459769029E0
1.350495707E1,-4.355920553E-1,-2.546483040E0,-2.232331753E0,3.414325902E0
1.352436625E1,4.437267780E-2,-3.762230873E0,-1.508661866E0,4.053690998E0
1.354374491E1,-9.590650797E-1,-4.962419510E0,-1.350174904E0,5.231480239E0
1.356309306E1,-1.455196381E0,-5.172839165E0,-1.255814075E0,5.518417393E0
1.358247172E1,-1.488718987E0,-5.468893051E0,-1.510677338E0,5.865766910E0
1.360185038E1,-1.966359615E0,-5.895221710E0,-1.585841656E0,6.413665325E0
1.362119852E1,-1.960736871E0,-6.283642769E0,-1.058342934E0,6.666989222E0
1.364057719E1,-1.267079473E0,-5.754099846E0,1.188421249E-1,5.893155256E0
1.365995585E1,3.742015362E-2,-4.582691193E0,1.463037729E0,4.810710782E0
1.367930399E1,1.158261418E0,-3.084601402E0,1.811337948E0,3.759957511E0
1.369868266E1,1.902124405E0,-7.352828979E-3,1.643511772E0,2.513814285E0
1.371806132E1,1.757361174E0,3.525481224E0,1.169285536E0,4.109083209E0
1.373740946E1,1.310527563E0,5.659658432E0,1.530007362E0,6.007506853E0
1.375678812E1,2.867746830E0,4.928130150E0,6.443962574E0,8.604364724E0
1.377616679E1,5.065055847E0,3.147441864E0,5.899452686E0,8.388368317E0
1.379554545E1,4.853577614E0,4.271890640E0,9.993593693E-1,6.542551830E0
1.381492411E1,9.501173496E-1,8.753785133E0,-2.204549074E0,9.076977127E0
1.383430277E1,-4.515616894E0,9.985307693E0,-5.195397377E0,1.212803857E1
1.385368144E1,-4.951715469E0,1.383946419E0,-2.530300379E0,5.730376409E0
1.387302958E1,-5.620205879E0,-7.302644730E0,5.187988281E-2,9.215097704E0
1.389240824E1,-4.605621338E0,-4.429765701E0,3.336097956E0,7.208614405E0
1.391178690E1,-2.027705193E0,3.532494545E0,-6.892036915E0,8.005640442E0
1.393113505E1,1.302046776E-1,8.876073837E0,-4.626612186E0,1.001035366E1
1.395051371E1,2.242052555E0,4.253378868E0,-4.138646126E-1,4.825900473E0
1.396989237E1,1.169141650E0,-1.593561172E-1,-6.266131401E-1,1.336012948E0
1.398924052E1,-7.196360826E-1,-2.267392159E0,-5.816679001E-1,2.448934633E0
1.400861918E1,-1.617016673E0,-3.465272903E0,-1.501374841E0,4.108160857E0
1.402799784E1,-2.120210171E0,-4.436299324E0,-1.960581183E0,5.293384686E0
1.404737650E1,-2.423062086E0,-4.430304527E0,-2.682629585E0,5.717982998E0
1.406672465E1,-2.238601208E0,-4.010510445E0,-2.175047874E0,5.081964448E0
1.408610331E1,-1.742328644E0,-3.825478554E0,-1.086805582E0,4.341790143E0
1.410551249E1,-3.582991362E-1,-3.488486290E0,5.952000618E-1,3.556990017E0
1.412486063E1,5.491114259E-1,-3.579388618E0,1.018909454E0,3.761877552E0
1.414423930E1,3.090909123E-1,-3.504037857E0,7.255715132E-2,3.518392109E0
1.416361796E1,2.545964122E-1,-2.550779343E0,7.283711433E-2,2.564488221E0
1.418296610E1,2.239855528E-1,-6.888446808E-1,1.284669518E0,1.474805850E0
1.420234477E1,7.788570523E-1,4.646825790E-1,2.919224739E0,3.056864617E0
1.422172343E1,2.296708107E0,9.673261642E-1,5.127921104E-1,2.544315976E0
1.424107157E1,3.722647429E0,2.723354340E0,-2.679089308E0,5.334068077E0
1.426045023E1,4.703808784E0,3.210504532E0,-6.391406655E-1,5.730764104E0
1.427982890E1,3.264272451E0,3.268013000E0,3.658846855E0,5.892583807E0
1.429917704E1,-5.977306366E-1,3.243360519E0,4.358607292E0,5.465722907E0
1.431855570E1,-2.399995327E0,4.775648117E0,3.533232808E-1,5.356456837E0
1.433793436E1,-1.260363579E0,3.986978531E0,-5.780099392E0,7.134007509E0
1.435731303E1,1.423959255E0,3.483561516E0,-4.360138893E0,5.759659014E0
1.437669169E1,2.278417349E-1,3.020236015E0,-6.567589641E-1,3.099204701E0
1.439607035E1,-3.518678188E0,4.119029999E0,-6.651204824E-1,5.458011504E0
1.441544901E1,-4.890529633E0,6.603267670E0,-9.159120917E-1,8.267969458E0
1.443479716E1,-1.603374362E0,3.529643059E0,-6.301151514E-1,3.927624546E0
1.445417582E1,-5.906677246E-1,1.127562523E0,4.765490294E-1,1.359185264E0
1.447355448E1,-9.049373865E-1,3.635921478E-1,7.140882015E-1,1.208731932E0
1.449290263E1,-1.192117333E0,-1.072336197E0,-1.823992372E0,2.428579179E0
1.451228129E1,5.687046051E-2,-2.571042061E0,-3.033360720E0,3.976778694E0
1.453165995E1,5.311889648E-1,-4.008535385E0,-1.862415552E0,4.451865827E0
1.455100810E1,-1.034525037E0,-5.627485275E0,-2.039351940E0,6.074355020E0
1.457038676E1,-2.412015438E0,-6.489545822E0,-1.916348934E0,7.183621419E0
1.458976542E1,-2.555924416E0,-6.294025421E0,-1.296305895E0,6.915772885E0
1.460911356E1,-1.876822710E0,-5.155864716E0,-8.652987480E-1,5.554650878E0
1.462849223E1,-7.709563971E-1,-4.444599152E0,-2.693057060E-2,4.511048730E0
1.464787089E1,-4.220902920E-2,-4.242423058E0,1.101237535E0,4.383224739E0
1.466728007E1,4.199125767E-1,-4.081568718E0,2.098617554E0,4.608657658E0
1.468662821E1,1.738927603E0,-2.991372108E0,2.336900949E0,4.175318233E0
1.470600687E1,3.032701015E0,6.256818771E-1,6.391720772E-1,3.161849807E0
1.472538554E1,2.041376591E0,4.917194366E0,-1.312288761E0,5.483440582E0
1.474473368E1,6.695830822E-1,6.162905693E0,5.681788921E0,8.409070902E0
1.476411234E1,3.320391178E0,4.903373718E0,9.395551682E0,1.110605523E1
1.478349100E1,5.749929905E0,1.220607758E0,3.436630964E0,6.808965384E0
1.480283915E1,3.067319393E0,2.786480904E0,-3.754160881E0,5.591658788E0
1.482221781E1,-1.301804781E0,8.852865219E0,-5.538434029E0,1.052341056E1
1.484159647E1,-5.069658756E0,9.693840027E0,-5.439442635E0,1.221718096E1
1.486094462E1,-5.383686543E0,-6.644563675E-1,-2.599773645E0,6.015347543E0
1.488032328E1,-5.633315086E0,-4.735783577E0,7.408045292E0,1.044227083E1
1.489970194E1,-3.269744396E0,-8.976821899E-1,-3.771381378E0,5.071526322E0
1.491905009E1,-2.119887829E0,6.351667404E0,-5.991467953E0,8.985281935E0
1.493842875E1,1.211045027E0,5.561985016E0,-2.735424280E0,6.315445619E0
1.495783793E1,1.835276008E0,1.619584084E0,-9.375948906E-1,2.621139982E0
1.497721659E1,1.181454539E0,-1.031667709E0,-5.470130444E-1,1.661143089E0
1.499656474E1,-6.133816242E-1,-2.307318687E0,-1.056456566E0,2.610757939E0
1.501594340E1,-2.158765793E0,-3.886532784E0,-1.228459477E0,4.612430977E0
1.503532206E1,-2.875852823E0,-4.961523056E0,-2.109418869E0,6.110391842E0
1.505467020E1,-2.716738701E0,-4.565359116E0,-2.214555740E0,5.755643331E0
1.507404887E1,-1.438378334E0,-3.973512650E0,-8.780281544E-1,4.316094119E0
1.509342753E1,-4.105051756E-1,-3.727656364E0,-1.857209206E-1,3.754787442E0
1.511277567E1,2.938020229E-1,-3.769297600E0,8.752508759E-1,3.880720052E0
1.513215434E1,4.493129849E-1,-3.864673615E0,4.080904722E-1,3.912048330E0
1.515153300E1,4.572242498E-1,-2.900674820E0,-4.388376474E-1,2.969098669E0
1.517088114E1,3.609896302E-1,-1.160610199E0,-8.739074469E-1,1.497011614E0
1.519025980E1,7.846501470E-1,8.600158691E-1,8.014466166E-1,1.413371794E0
1.520963847E1,1.218397021E0,2.156070709E0,2.132020712E0,3.267819536E0
1.522901713E1,2.168766975E0,1.408362389E0,1.560479641E0,3.020286662E0
1.524839579E1,2.880440235E0,6.810655594E-1,-9.815965295E-1,3.118383875E0
1.526777445E1,2.952562571E0,1.186723709E0,-1.030985236E0,3.344976749E0
1.528715312E1,2.878268719E0,2.707354546E0,1.516113043E0,4.232351381E0
1.530650126E1,9.183445573E-1,4.600811005E0,2.933518410E0,5.533204215E0
1.532587992E1,-6.302942038E-1,5.799068451E0,-9.098641872E-1,5.903754612E0
1.534525858E1,-4.578207135E-1,4.955454826E0,-3.842610359E0,6.287430852E0
1.536460673E1,3.460395336E-1,3.073200226E0,-3.735147476E0,4.849291665E0
1.538398539E1,-9.570000172E-1,1.775617599E0,-9.030764103E-1,2.210025768E0
1.540336405E1,-5.281131744E0,2.567470551E0,3.546165228E0,6.859850243E0
1.542271220E1,-5.020881653E0,4.408221245E0,-1.738823771E0,6.903997047E0
1.544209086E1,-3.272728920E-1,4.215582848E0,-4.827897072E0,6.417697128E0
1.546146952E1,1.077674389E0,3.707102776E0,-1.085425138E0,4.010254457E0
1.548081767E1,-2.334120274E-1,3.542369843E0,2.955201626E0,4.619099688E0
1.550019633E1,-1.639293313E0,1.158330917E0,-4.464988708E-1,2.056301126E0
1.551960551E1,-9.377638102E-1,-1.541024208E0,-2.478492498E0,3.065465974E0
1.553898417E1,-1.408439875E-1,-3.689031601E0,-2.187354088E0,4.291073186E0
1.555833231E1,-1.703045368E-1,-4.844529152E0,-1.512251496E0,5.077929788E0
1.557771098E1,-1.266901851E0,-6.193514824E0,-1.381460190E0,6.470942623E0
1.559708964E1,-2.151958942E0,-6.686775208E0,-1.290080309E0,7.142002322E0
1.561643778E1,-2.296597004E0,-6.372178078E0,-1.372685909E0,6.911098166E0
1.563581645E1,-2.051931381E0,-5.730935097E0,-9.657049179E-1,6.163329089E0
1.565519511E1,-1.590732336E0,-5.128910065E0,-6.154499054E-1,5.405083385E0
1.567454325E1,-6.781053543E-1,-4.653602600E0,8.788321018E-1,4.784160312E0
1.569392191E1,2.054187059E-1,-4.086153030E0,2.124403477E0,4.609981948E0
1.571330058E1,1.414138317E0,-2.531477928E0,1.791411877E0,3.408419603E0
1.573264872E1,2.428943634E0,1.344628334E0,1.580960751E0,3.194875495E0
1.575202738E1,2.169763803E0,6.725678444E0,1.041812897E-1,7.067777532E0
1.577140604E1,2.592998028E0,8.060956955E0,4.710788727E0,9.689901766E0
1.579075419E1,4.875197411E0,4.953430176E0,7.097881794E0,9.933979377E0
1.581016337E1,6.600269794E0,-2.265386581E-1,3.702316046E0,7.571131040E0
1.582954203E1,4.700019836E0,4.268636703E-1,-1.665859222E-1,4.722303455E0
1.584892069E1,-1.636636138E0,6.410707474E0,-2.643074989E0,7.124717086E0
1.586826884E1,-6.998309135E0,8.644220352E0,-6.080351830E0,1.267554948E1
1.588764750E1,-7.372383118E0,4.777298927E0,-2.850733280E0,9.235870187E0
1.590702616E1,-4.242543221E0,-2.682148933E0,1.483102560E0,5.233802545E0
1.592637431E1,-3.511717796E0,-3.858551979E0,4.232299328E0,6.718105600E0
1.594575297E1,-1.747456431E0,2.022107124E0,-6.611411095E0,7.131148425E0
1.596513163E1,3.660237789E-2,5.873229027E0,-5.018557549E0,7.725417711E0
1.598447978E1,1.987701297E0,2.920793533E0,-1.240356445E0,3.744392530E0
1.600385844E1,1.974375010E0,-2.912216187E-1,-3.739123344E-1,2.030462298E0
1.602323710E1,6.044510603E-1,-1.590612411E0,3.399519920E-1,1.735216495E0
1.604258524E1,-1.206917405E0,-3.148665428E0,-4.344264269E-1,3.399922046E0
1.606196391E1,-2.469530582E0,-5.540892601E0,-1.270321488E0,6.197885833E0
1.608134257E1,-3.442476749E0,-6.740542412E0,-3.388227940E0,8.292505457E0
1.610072123E1,-2.998486996E0,-6.026092529E0,-2.556285381E0,7.199952110E0
1.612009989E1,-1.826395273E0,-4.908481598E0,-7.800400853E-1,5.295032939E0
1.613947855E1,-9.389322996E-2,-2.798333168E0,-1.084340811E-1,2.802006854E0
1.615885722E1,1.482254982E0,-9.004583359E-1,-1.584987044E-1,1.741558752E0
1.617820536E1,2.382303238E0,1.123619080E-2,5.318892598E-1,2.440983645E0
1.619758402E1,2.351126194E0,-1.069850922E-1,1.503621459E0,2.792869077E0
1.621696269E1,1.635080814E0,-6.966838837E-1,2.262199402E0,2.876873970E0
1.623631083E1,1.025849700E0,-1.183380127E0,2.176913261E0,2.681735908E0
1.625568949E1,1.592106462E0,-1.029296875E0,3.835862279E-1,1.934268191E0
1.627506815E1,2.705013037E0,8.939037323E-1,-1.715530515E0,3.325538206E0
1.629441630E1,2.649453878E0,3.033505440E0,-9.695473909E-1,4.142678270E0
1.631379496E1,2.130928516E0,3.731537819E0,1.829062939E0,4.670192937E0
1.633317362E1,3.398283720E-1,4.483691216E0,3.552727699E0,5.730693182E0
1.635252177E1,-1.427886486E0,4.575924873E0,1.534845352E0,5.033259234E0
1.637190043E1,-1.052130461E0,3.940700531E0,-1.756676078E0,4.440946974E0
1.639130961E1,1.448394537E0,3.498014450E0,-5.233656883E0,6.459498138E0
1.641065775E1,7.528179884E-1,2.079998016E0,-3.251363277E0,3.932491555E0
1.643003642E1,-2.101087570E0,1.717889786E0,-7.257746458E-1,2.809352796E0
1.644941508E1,-5.087676048E0,3.747716904E0,2.673787832E0,6.861411730E0
1.646879374E1,-3.851862431E0,4.458783150E0,-2.580802679E0,6.432583760E0
1.648814188E1,-1.403635740E0,2.726243973E0,-1.657383680E0,3.485616180E0
1.650752055E1,-4.616261721E-1,3.137377739E0,2.764103889E0,4.206721777E0
1.652689921E1,-1.187424183E0,1.473639488E0,7.377616167E-1,2.031226658E0
1.654624735E1,-7.447471619E-1,-4.356946945E-1,-2.574292421E0,2.715043217E0
1.656562602E1,2.526346445E-1,-1.767414093E0,-2.339153767E0,2.942654785E0
1.658500468E1,-1.774883270E-2,-3.812215805E0,-1.398943067E0,4.060830712E0
1.660435282E1,-1.347065449E0,-4.727345467E0,-1.118088007E0,5.041081360E0
1.662373148E1,-2.112488270E0,-5.418881416E0,-1.148738861E0,5.928446969E0
1.664311015E1,-2.285042286E0,-6.027365685E0,-1.482012033E0,6.614145070E0
1.666248881E1,-1.934109449E0,-6.159447670E0,-8.370394707E-1,6.510008451E0
1.668186747E1,-1.478542089E0,-5.741405487E0,-5.606536865E-1,5.955178942E0
1.670124613E1,-5.470618010E-1,-4.769453049E0,5.984282494E-2,4.801097808E0
1.672059428E1,9.861081839E-1,-3.719655991E0,1.724000692E0,4.216684530E0
1.673997294E1,2.504692554E0,-2.732203484E0,2.828129053E0,4.662267110E0
1.675935160E1,3.410500050E0,-6.931467056E-1,2.222308874E0,4.129239600E0
1.677873026E1,2.123571634E0,3.862647057E0,-6.871271133E-2,4.408437388E0
1.679807841E1,-9.087641239E-1,7.541798592E0,2.737545252E0,8.074573192E0
1.681745707E1,1.090146661E0,6.723625183E0,8.618652344E0,1.098529579E1
1.683683573E1,5.143445015E0,1.976377487E0,6.986187935E0,8.897635442E0
1.685618388E1,5.140430927E0,-7.468509674E-1,-5.604028702E-2,5.194704708E0
1.687556254E1,-7.951583862E-1,4.551343918E0,-4.058542252E0,6.149697027E0
1.689494120E1,-6.230841160E0,8.025486946E0,-6.316000462E0,1.196343112E1
1.691428934E1,-5.127534866E0,7.497161865E0,-1.647993088E0,9.231193371E0
1.693366801E1,-1.840850472E0,-1.566822052E0,-4.443416595E-1,2.457865195E0
1.695304667E1,-2.230895281E0,-3.924822807E0,2.510699272E0,5.165727312E0
1.697242533E1,-1.778572917E0,-1.224317551E-1,-3.579939127E0,3.999284350E0
1.699180399E1,-6.975467205E-1,3.916579247E0,-5.711471081E0,6.960392685E0
1.701118266E1,-3.773689270E-3,1.477954865E0,-2.068998814E0,2.542660204E0
1.703053080E1,-1.976315975E-1,-4.914226532E-1,-9.914863110E-1,1.124099452E0
1.704990946E1,-4.820125103E-1,-1.495718956E0,-4.075191021E-1,1.623447897E0
1.706928812E1,-9.626828432E-1,-2.573231697E0,3.461456299E-2,2.747631306E0
1.708866679E1,-2.122564316E0,-3.852485657E0,-1.093486309E0,4.532398627E0
1.710805521E1,-2.696124792E0,-4.397727966E0,-2.244123936E0,5.625405976E0
1.712743388E1,-2.177160501E0,-4.107178688E0,-1.738389611E0,4.962957089E0
1.714681254E1,-1.174708843E0,-4.058622360E0,-6.545280218E-1,4.275600924E0
1.716616068E1,4.299671650E-1,-3.215363503E0,-2.193130255E-1,3.251389306E0
1.718553935E1,1.531326175E0,-2.158813477E0,-3.509517908E-1,2.669944314E0
1.720491801E1,1.745984793E0,-1.966454506E0,-5.683370829E-1,2.690429940E0
1.722426615E1,1.584459305E0,-2.247865677E0,3.453749716E-1,2.771767534E0
1.724367533E1,1.449364901E0,-1.981089592E0,1.032322764E0,2.662905345E0
1.726305399E1,9.802756906E-1,2.837562561E-2,1.018204808E0,1.413678407E0
1.728240214E1,1.474218845E0,1.639132500E0,1.153598309E0,2.488145014E0
1.730178080E1,2.571000576E0,2.063192368E0,-4.133244976E-2,3.296743102E0
1.732115946E1,2.190548897E0,3.125668526E0,-1.608160019E0,4.141797538E0
1.734053812E1,1.385494709E0,3.160868645E0,1.509964705E0,3.767051843E0
1.735988627E1,-4.816488326E-1,4.260898590E0,3.515820742E0,5.545109366E0
1.737926493E1,-1.051277876E0,5.264799118E0,-1.861911416E-1,5.371960728E0
1.739864359E1,8.678784966E-2,4.580133438E0,-2.255207539E0,5.105988199E0
1.741799174E1,1.314330220E0,3.919853210E0,-3.480030298E0,5.404009992E0
1.743737040E1,6.669474840E-1,2.768550873E0,-1.772382617E0,3.354255957E0
1.745674906E1,-2.944398403E0,2.561255455E0,2.968823195E0,4.903409286E0
1.747609721E1,-3.165089369E0,3.901838303E0,-2.567991734E0,5.642403246E0
1.749547587E1,1.676695347E-1,2.845990181E0,-4.251219749E0,5.118656322E0
1.751485453E1,9.166021347E-1,3.282538414E0,2.041188478E-1,3.414217687E0
1.753423319E1,-4.937564135E-1,2.773109436E0,1.790919423E0,3.337862148E0
1.755361186E1,-1.918378234E0,2.342967987E-1,-1.138464332E0,2.243027212E0
1.757299052E1,-1.323628664E0,-2.335607529E0,-2.529284239E0,3.688405364E0
1.759233866E1,-5.821911097E-1,-4.219483376E0,-1.488841653E0,4.512165324E0
1.761171732E1,-1.161516905E0,-5.439716339E0,-1.166024923E0,5.683242868E0
1.763109598E1,-1.600772619E0,-5.590421677E0,-1.452083826E0,5.993649551E0
1.765047465E1,-2.065856457E0,-5.027217865E0,-1.875554085E0,5.749642205E0
1.766982279E1,-1.980276346E0,-4.870517731E0,-1.499377251E0,5.467318311E0
1.768920145E1,-1.827964902E0,-4.967684746E0,-9.769403934E-1,5.382727928E0
1.770858012E1,-1.085099101E0,-5.147072792E0,-8.308181763E-1,5.325416155E0
1.772792826E1,2.207790613E-1,-4.641421318E0,-2.728199959E-2,4.646749353E0
1.774730692E1,1.339433432E0,-3.906712532E0,2.047838926E0,4.609786220E0
1.776668558E1,2.534297228E0,-2.606026649E0,2.464000940E0,4.391507483E0
1.778603373E1,3.358955860E0,2.444448471E-1,1.630702972E0,3.741861828E0
1.780541239E1,2.672338963E0,4.097010612E0,7.290124893E-2,4.892055405E0
1.782482157E1,2.019197941E-1,5.981213570E0,2.421511412E0,6.455958866E0
1.784416972E1,1.361089230E0,5.201043129E0,6.786433220E0,8.657891739E0
1.786354838E1,5.657748222E0,1.806664467E0,6.558337688E0,8.847934487E0
1.788292704E1,6.952818394E0,-7.332105637E-1,6.973466873E-1,7.026063887E0
1.790227518E1,1.942183733E0,4.307219505E0,-2.029608488E0,5.142327113E0
1.792165385E1,-3.490040779E0,9.442963600E0,-3.408642292E0,1.062867764E1
1.794103251E1,-5.828624249E0,8.767765045E0,-3.969880581E0,1.125195611E1
1.796041117E1,-3.978254318E0,-1.999358177E0,-3.238543272E0,5.505642839E0
1.797975932E1,-5.001162052E0,-5.176622391E0,4.247853756E0,8.357828832E0
1.799913798E1,-3.089158535E0,-1.208523750E0,-3.505025387E0,4.825829781E0
1.801851664E1,-1.551278353E0,5.993760109E0,-6.453319073E0,8.942983385E0
1.803786478E1,4.198232889E-1,5.532967567E0,-2.283226013E0,6.000258555E0
1.805724345E1,1.430988669E0,1.174142838E0,-9.956755638E-1,2.101834866E0
1.807662211E1,1.051466346E0,-1.146342278E0,-5.252335072E-1,1.641813732E0
1.809600077E1,-4.042137861E-1,-2.670845032E0,2.689300776E-1,2.714613298E0
1.811537943E1,-1.633026600E0,-3.648360252E0,-6.486825943E-1,4.049456447E0
1.813475810E1,-1.792905331E0,-4.203171730E0,-1.290096283E0,4.748211299E0
1.815410624E1,-1.445339441E0,-4.772696495E0,-2.291251659E0,5.487938784E0
1.817348490E1,-1.206010103E0,-5.398349762E0,-2.469472408E0,6.057634398E0
1.819286356E1,-6.411033869E-1,-4.598495483E0,-1.525651217E0,4.887206349E0
1.821221171E1,3.532555699E-1,-3.338865280E0,4.791235924E-2,3.357842529E0
1.823159037E1,1.188095808E0,-1.728352547E0,7.936570644E-1,2.242468664E0
1.825096903E1,1.610148191E0,-1.579284668E0,7.295156717E-1,2.370424092E0
1.827034769E1,1.232297182E0,-2.001512527E0,6.400876641E-1,2.436046174E0
1.828969584E1,8.726621866E-1,-1.502537727E0,8.381858468E-1,1.929174546E0
1.830907450E1,5.280140638E-1,3.684129715E-1,9.653080702E-1,1.160321783E0
1.832845316E1,1.761793852E0,1.431478500E0,1.025339484E0,2.490857148E0
1.834780131E1,3.000344038E0,2.246229172E0,-4.483623505E-1,3.774736896E0
1.836717997E1,3.145968914E0,3.092805862E0,4.977377653E-1,4.439629646E0
1.838658915E1,2.533871174E0,3.701747894E0,2.828743219E0,5.303322430E0
1.840593729E1,1.030870795E0,4.177347183E0,3.098278284E0,5.302098868E0
1.842531596E1,4.035055041E-1,3.350218773E0,3.452557623E-1,3.392047178E0
1.844469462E1,-4.480429590E-1,3.141095161E0,-3.616592646E0,4.811129147E0
1.846404276E1,6.726363301E-1,2.276488304E0,-5.200878143E0,5.716989775E0
1.848342142E1,1.532226801E0,2.356942177E0,-2.378818989E0,3.682617979E0
1.850280009E1,-1.198590636E0,4.405351639E0,1.144153714E0,4.706679328E0
1.852217875E1,-3.610022545E0,5.830806732E0,-2.059334755E0,7.160407080E0
1.854152689E1,-2.230148315E0,4.246122360E0,-2.934925079E0,5.622890878E0
1.856090556E1,-8.954861164E-1,3.169005394E0,1.310105920E-1,3.295702406E0
1.858028422E1,-7.307721376E-1,1.993780136E0,1.663113475E0,2.697245554E0
1.859963236E1,-1.120020151E0,2.550878525E-1,-2.243876457E-2,1.148920558E0
1.861901102E1,-5.945152044E-1,-1.281336784E0,-2.036236048E0,2.478210953E0
1.863838969E1,8.892440796E-2,-2.872106552E0,-2.318020105E0,3.691899349E0
1.865773783E1,-1.285358667E-1,-4.752395630E0,-1.699403763E0,5.048738342E0
1.867714701E1,-1.049949884E0,-5.920340538E0,-2.029050827E0,6.345854876E0
1.869652567E1,-1.810012221E0,-6.400137901E0,-1.702760458E0,6.865661117E0
1.871587382E1,-2.538987637E0,-6.290693283E0,-1.268312693E0,6.901296783E0
1.873525248E1,-2.457630634E0,-5.705774307E0,-1.203679323E0,6.328084441E0
1.875463114E1,-1.002849340E0,-4.743756294E0,-3.996953964E-1,4.865047481E0
1.877397929E1,3.962440491E-1,-3.854045868E0,3.041081429E-1,3.886278510E0
1.879335795E1,1.377332211E0,-3.242212296E0,1.084265471E0,3.685731433E0
1.881273661E1,2.915016651E0,-2.127673149E0,2.024141312E0,4.137808980E0
1.883211527E1,3.983720064E0,-3.424835205E-2,1.679216146E0,4.323304912E0
1.885146342E1,2.694636345E0,3.056359291E0,2.301349640E-1,4.081097800E0
1.887084208E1,6.166716814E-1,5.498403549E0,3.394977570E0,6.491424978E0
1.889022074E1,7.042771578E-1,4.677699089E0,6.538358688E0,8.070130694E0
1.890956889E1,2.399955750E0,2.746329308E0,3.139260054E0,4.812178919E0
1.892894755E1,3.408057690E0,6.350518227E0,-1.236124039E-1,7.208274342E0
1.894832621E1,2.202543736E0,1.083388805E1,-6.700081825E-1,1.107579524E1
1.896770487E1,-2.009576797E0,8.852591515E0,-3.048561096E0,9.576037812E0
1.898708353E1,-3.361091137E0,-4.478492737E0,-5.269985199E0,7.689380653E0
1.900646220E1,-5.703769684E0,-7.938088417E0,1.380770922E0,9.871816685E0
1.902581034E1,-4.340010166E0,-1.790486336E0,-4.463269711E-1,4.716008622E0
1.904518900E1,-1.824852943E0,5.876413345E0,-6.936704636E0,9.272550527E0
1.906456767E1,7.477437258E-1,7.405364037E0,-2.320911646E0,7.796484340E0
1.908391581E1,2.070555687E0,2.179021835E0,-6.068618298E-1,3.066531965E0
1.910329447E1,1.287849188E0,-1.114842415E0,-1.162624359E0,2.062310486E0
1.912267313E1,5.951213837E-2,-2.954319954E0,-7.550506592E-1,3.049860584E0
1.914205180E1,-1.138893366E0,-3.857052803E0,-1.235612869E0,4.207216846E0
1.916139994E1,-1.639488220E0,-4.277683258E0,-1.372445941E0,4.782269706E0
1.918077860E1,-1.690612316E0,-4.916282654E0,-2.198999882E0,5.644785701E0
1.920015726E1,-1.705251217E0,-4.590691566E0,-2.086974621E0,5.323325449E0
1.921950541E1,-6.859467030E-1,-3.623589516E0,-1.572576046E0,4.009229262E0
1.923891459E1,3.286402225E-1,-3.273395538E0,-7.426559925E-1,3.372634085E0
1.925829325E1,9.386218190E-1,-2.803960800E0,-1.069433689E-1,2.958824762E0
1.927764140E1,1.180140615E0,-2.400932312E0,4.494207501E-1,2.712782123E0
1.929702006E1,1.277549982E0,-1.994518280E0,1.097898960E0,2.610674099E0
1.931639872E1,1.213738918E0,-1.480969429E0,1.468194604E0,2.412887898E0
1.933574686E1,1.178055048E0,-6.885614395E-1,1.801802754E0,2.260182231E0
1.935512553E1,1.815310955E0,1.961164474E-1,1.699572206E-1,1.833766883E0
1.937450419E1,3.437794685E0,1.557137489E0,-2.037947655E0,4.289095488E0
1.939385233E1,5.339847565E0,3.509581566E0,-5.413171649E-1,6.412812102E0
1.941323100E1,5.785653591E0,3.606116295E0,2.759800434E0,7.354886855E0
1.943260966E1,3.494442225E0,3.520956993E0,2.638048887E0,5.618502162E0
1.945198832E1,-1.596084833E-1,3.391696930E0,-2.224466205E-1,3.402729115E0
1.947133646E1,-1.671702623E0,3.663234711E0,-2.899565458E0,4.961991340E0
1.949071513E1,-1.963276982E0,4.499247551E0,-4.560436249E0,6.700392810E0
1.951009379E1,-2.139128447E0,3.597080231E0,-2.533217669E0,4.892039294E0
1.952947245E1,-3.365348339E0,3.812909126E0,3.198069572E0,6.007619698E0
1.954885111E1,-4.168219090E0,5.911790848E0,-1.438419968E-1,7.234916166E0
1.956822977E1,-3.104178190E0,5.232244492E0,-3.894915581E0,7.223757474E0
1.958757792E1,-1.697961092E-1,2.581280708E0,-1.671612859E0,3.079956228E0
1.960695658E1,2.962672710E-2,1.962821007E0,1.861696005E0,2.705449327E0
1.962633524E1,-9.138145447E-1,5.917863846E-1,-1.310729980E-1,1.096562026E0
1.964568339E1,-8.591916561E-1,-1.369333267E0,-1.936651945E0,2.522678072E0
1.966506205E1,1.436171532E-1,-2.577276230E0,-1.019868612E0,2.775447827E0
1.968444071E1,-3.227256536E-1,-4.399764061E0,-5.938473940E-1,4.451373986E0
1.970381937E1,-1.533256173E0,-5.366151810E0,-2.198445797E-1,5.585229751E0
1.972316752E1,-1.626070619E0,-6.182327271E0,-6.930651665E-1,6.430055634E0
1.974254618E1,-1.292885184E0,-6.142220497E0,-6.684584618E-1,6.312310310E0
1.976192484E1,-9.076493979E-1,-5.624411583E0,-4.756028652E-1,5.716994942E0
1.978127299E1,-7.222230434E-1,-6.120409012E0,-1.299760342E-1,6.164244185E0
1.980065165E1,-2.067327499E-2,-6.680071831E0,8.278481960E-1,6.731204921E0
1.982006083E1,1.125069141E0,-6.148192406E0,1.025917172E0,6.333921098E0
1.983940897E1,2.461353302E0,-3.673302650E0,9.637515545E-1,4.525508756E0
1.985878764E1,3.274086475E0,1.753470421E0,8.129441738E-1,3.801996712E0
1.987816630E1,9.688972235E-1,6.684606552E0,-1.478970051E-2,6.754475947E0
1.989751444E1,-6.889724731E-2,7.653685570E0,5.423580647E0,9.380771645E0
1.991689310E1,3.555998802E0,4.824451447E0,9.663423538E0,1.137111313E1
1.993627177E1,7.023471832E0,-1.996273994E0,4.245620251E0,8.446274786E0
1.995561991E1,2.304263353E0,2.756786346E-2,-4.677790642E0,5.214605918E0
1.997499857E1,-4.682691574E0,7.565511703E0,-8.996272087E0,1.265296326E1
1.999437724E1,-9.265287399E0,1.295669079E1,-5.809033394E0,1.695482986E1
2.001375590E1,-6.135140419E0,3.525535583E0,1.167590618E0,7.171653712E0
2.003310404E1,-4.507956505E0,-2.816721916E0,9.979286194E0,1.130671248E1
2.005248270E1,-2.948467016E0,-3.427953720E-1,-3.015856504E0,4.231590347E0
2.007186137E1,-5.920075178E-1,4.534096718E0,-5.531841278E0,7.177030993E0
2.009120951E1,8.922898769E-1,4.242362022E0,-2.052497387E0,4.796515639E0
2.011061869E1,1.354088306E0,1.496588707E0,-7.112597227E-1,2.139911982E0
2.012999735E1,4.079660177E-1,-7.422676086E-1,2.513265610E-1,8.834944905E-1
2.014934550E1,-1.163436651E0,-3.802493095E0,-1.196340799E0,4.152561847E0
2.016872416E1,-2.699157953E0,-6.484078407E0,-2.278608799E0,7.383819100E0
2.018810282E1,-3.620856762E0,-6.280373573E0,-2.520607471E0,7.675099865E0
2.020745097E1,-3.254019022E0,-5.984077454E0,-2.480502605E0,7.249187261E0
2.022682963E1,-2.406720877E0,-4.880208969E0,-1.056347370E0,5.542978868E0
2.024620829E1,-1.082940578E0,-2.774823189E0,6.084932685E-1,3.040175667E0
2.026555644E1,-2.486014366E-1,-1.084899902E0,4.293685257E-1,1.192965969E0
2.028493510E1,3.242368102E-1,-1.414947510E-1,6.528006792E-1,7.424951181E-1
2.030431376E1,1.162159920E0,1.074186325E0,1.434533834E0,2.135972674E0
2.032369242E1,1.820899725E0,1.442971230E0,1.103453517E0,2.572051990E0
2.034304057E1,1.822206736E0,5.883512497E-1,1.716752768E0,2.571737670E0
2.036241923E1,1.908367872E0,-4.023237228E-1,2.661115408E0,3.299282881E0
2.038179789E1,1.964600563E0,1.679503441E0,1.016832352E0,2.777469210E0
2.040117655E1,8.369136453E-1,3.514765739E0,2.480985403E0,4.382840543E0
2.042055521E1,-2.893441021E-1,3.953395844E0,3.482898712E0,5.276707510E0
2.043993388E1,-4.749653339E-1,4.970063210E0,1.597611785E0,5.242087732E0
2.045928202E1,-2.820206881E-1,4.963044167E0,-1.729982138E0,5.263476158E0
2.047866068E1,4.445509315E-1,2.648829460E0,-4.384859085E0,5.142072757E0
2.049803935E1,-4.724680185E-1,1.343323708E0,-3.110521793E0,3.420977995E0
2.051738749E1,-2.801280022E0,2.319074631E0,9.138078690E-1,3.749709552E0
2.053676615E1,-3.443979502E0,3.592234612E0,1.675161600E0,5.250839047E0
2.055614481E1,-4.886671305E-1,3.104936600E0,-4.762052536E0,5.705836591E0
2.057549296E1,1.247413635E0,2.394154549E0,-5.466958880E-1,2.754431552E0
2.059487162E1,4.343922138E-1,4.478334427E0,3.049168587E0,5.435218938E0
2.061425028E1,-1.295833707E0,1.829610825E0,2.382996082E-1,2.254650188E0
2.063362894E1,-1.549388528E0,-1.512758255E0,-2.185299158E0,3.076454901E0
2.065297709E1,-6.724854708E-1,-3.258297920E0,-2.375130177E0,4.087784901E0
2.067238627E1,-2.935477495E-1,-4.554478645E0,-1.060646176E0,4.685554004E0
2.069176493E1,-9.954279661E-1,-5.018034935E0,-1.235539198E0,5.262899254E0
2.071111308E1,-1.660174966E0,-5.211403847E0,-1.521540880E0,5.677146961E0
2.073049174E1,-1.446378469E0,-5.308744431E0,-1.693778038E0,5.757053252E0
2.074987040E1,-9.774332047E-1,-5.551244736E0,-1.328041077E0,5.790974606E0
2.076921854E1,-8.274006844E-1,-5.091202736E0,-4.718415737E-1,5.179533923E0
2.078859721E1,-2.630642653E-1,-4.649299622E0,6.181404591E-1,4.697583145E0
2.080797587E1,1.100797534E0,-3.755530357E0,1.742430449E0,4.283903284E0
2.082732401E1,2.805358887E0,-2.465768814E0,2.386004925E0,4.432050748E0
2.084670268E1,3.477406979E0,6.231880188E-2,1.153322697E0,3.664204712E0
2.086608134E1,1.661015749E0,3.329480171E0,-6.882469654E-1,3.783925926E0
2.088542948E1,-1.548155904E0,6.439758301E0,4.076275349E0,7.777100642E0
2.090480814E1,4.074804783E-1,5.444092751E0,9.689342499E0,1.112149020E1
2.092418681E1,4.316823959E0,-5.521965027E-2,5.491062641E0,6.984968664E0
2.094356547E1,5.192975044E0,-9.499092102E-1,-1.086893082E-1,5.280258581E0
2.096297465E1,1.693295240E0,5.340367317E0,-2.677981853E0,6.209537717E0
2.098232279E1,-4.138876915E0,8.752511978E0,-7.602492332E0,1.230994142E1
2.100170145E1,-3.414512396E0,5.743046761E0,-2.818308353E0,7.251506255E0
2.102104960E1,-2.889135838E0,-2.265719414E0,-3.718302250E-1,3.690372348E0
2.104042826E1,-2.772546291E0,-3.616057396E0,4.093307972E0,6.125198297E0
2.105980692E1,-1.346642256E0,1.658525467E0,-6.398019791E0,6.745280523E0
2.107915507E1,-4.355432987E-1,4.039922714E0,-3.531174898E0,5.383295428E0
2.109853373E1,3.922039270E-1,1.641493797E0,-2.089803696E0,2.686187874E0
2.111791239E1,1.002883792E0,-7.426738739E-2,-8.731248379E-1,1.331780210E0
2.113726054E1,8.148861527E-1,-8.402452469E-1,3.749761581E-1,1.229088539E0
2.115663920E1,-2.473567724E-1,-2.561707497E0,-3.625001907E-1,2.599026175E0
2.117601786E1,-1.532515764E0,-4.617183685E0,-9.811288118E-1,4.962822130E0
2.119539652E1,-2.066858292E0,-5.167491913E0,-2.473436356E0,6.090382851E0
2.121474467E1,-1.733269215E0,-4.272900581E0,-2.183594704E0,5.101959171E0
2.123412333E1,-8.595342636E-1,-3.445377350E0,-1.041260719E0,3.700492956E0
2.125353251E1,-2.218946815E-1,-2.829587936E0,-3.778859377E-1,2.863320262E0
2.127288065E1,2.266629338E-1,-2.479914665E0,-1.059441268E-1,2.492504161E0
2.129225932E1,3.386648893E-1,-2.394325256E0,2.129477113E-1,2.427516028E0
2.131163798E1,-1.548483968E-2,-1.947174072E0,6.136767864E-1,2.041647826E0
2.133098612E1,-1.701420844E-1,-6.602668762E-2,1.721069455E0,1.730718903E0
2.135036478E1,9.017605186E-1,7.650985718E-1,2.588862896E0,2.846183225E0
2.136974345E1,2.677818060E0,8.965072632E-1,2.057825565E0,3.494149523E0
2.138909159E1,3.640752554E0,1.518770218E0,1.639904976E-1,3.948244549E0
2.140847025E1,4.081133366E0,2.444682121E0,-2.414657354E0,5.335043614E0
2.142784892E1,3.267182589E0,3.341744423E0,1.272936344E0,4.843769688E0
2.144719706E1,-7.322478890E-1,4.948842049E0,3.276329279E0,5.980096833E0
2.146657572E1,-2.492374420E0,5.045658112E0,1.685302138E0,5.874592695E0
2.148595438E1,-1.357616663E0,4.120776176E0,-3.073765278E0,5.317137602E0
2.150530253E1,1.605052948E-1,2.744331360E0,-4.773326874E0,5.508336047E0
2.152471171E1,-2.058229446E-1,2.428732872E0,-1.758107901E0,3.005336893E0
2.154409037E1,-9.657208920E-1,2.557847023E0,3.123694420E0,4.151224526E0
2.156346903E1,-2.390006065E0,4.356762886E0,-2.846094131E0,5.726583942E0
2.158281718E1,-1.145575047E-1,2.312424660E0,-2.643818855E0,3.514286466E0
2.160219584E1,6.978108883E-1,2.671510696E0,2.299863815E0,3.593505671E0
2.162157450E1,-3.450123072E-1,2.325469017E0,1.132400870E0,2.609438900E0
2.164092265E1,-9.996957779E-1,5.318174362E-1,-2.127292395E0,2.409895094E0
2.166030131E1,-6.123710871E-1,-1.662055969E0,-2.485990047E0,3.052470296E0
2.167967997E1,-5.791879892E-1,-3.766930580E0,-1.895960808E0,4.256746658E0
2.169902811E1,-1.351921201E0,-5.150715828E0,-1.849219799E0,5.637125006E0
2.171840678E1,-1.748239875E0,-5.254570961E0,-1.714935541E0,5.797228869E0
2.173778544E1,-1.788913250E0,-4.640094757E0,-1.568713903E0,5.214552069E0
2.175713358E1,-1.707666159E0,-4.908243179E0,-1.644880056E0,5.450927005E0
2.177651225E1,-1.331590772E0,-5.725946426E0,-7.404620647E-1,5.925190337E0
2.179589091E1,-9.688670635E-1,-5.471243858E0,-1.922974586E-1,5.559693432E0
2.181526957E1,3.829500675E-1,-5.050346375E0,8.112173080E-1,5.129397896E0
2.183464823E1,2.201924324E0,-4.411363602E0,1.880910158E0,5.276970966E0
2.185402689E1,3.363350630E0,-1.901340485E0,2.063344002E0,4.380024151E0
2.187340556E1,3.472394943E0,1.992980957E0,5.391573906E-1,4.039825544E0
2.189275370E1,1.694615960E0,5.624860764E0,1.992316246E-1,5.877965218E0
2.191213236E1,1.203147888E0,6.411404610E0,6.752182007E0,9.388590723E0
2.193151102E1,4.035653114E0,2.379557610E0,6.103778839E0,7.694472470E0
2.195085917E1,6.211584091E0,3.384113312E-1,2.660264015E0,6.765744880E0
2.197023783E1,2.669425964E0,4.150202751E0,-2.195036411E-1,4.939453381E0
2.198961649E1,-2.702737808E0,8.672195435E0,-4.575605392E0,1.017093555E1
2.200896464E1,-6.305292130E0,8.976116180E0,-6.474010468E0,1.273735381E1
2.202834330E1,-3.844321251E0,1.494794846E0,-3.803624868E0,5.610773534E0
2.204772196E1,-2.918294907E0,-4.946053505E0,5.742938995E0,8.121652464E0
2.206707011E1,-2.631858349E0,-3.750340462E0,-3.953957558E-2,4.581844097E0
2.208644877E1,-3.122688532E-1,2.500803947E0,-6.023318291E0,6.529310488E0
2.210585795E1,1.428095937E0,5.449525833E0,-3.665788889E0,6.721219978E0
2.212523661E1,1.698126793E0,2.090442657E0,-4.572713375E-1,2.731791021E0
2.214461527E1,1.167383790E0,-1.211962700E0,2.824447155E-1,1.706286470E0
2.216396342E1,3.205066919E-2,-3.209532738E0,-1.578754187E-1,3.213573134E0
2.218334208E1,-1.283594608E0,-4.051486015E0,-1.205645442E0,4.417661710E0
2.220269022E1,-1.978835583E0,-4.933385849E0,-1.261508703E0,5.463102636E0
2.222206889E1,-2.818046808E0,-4.411130905E0,-1.931091547E0,5.579299081E0
2.224144755E1,-2.109790325E0,-4.543544769E0,-1.340592504E0,5.185769234E0
2.226079569E1,-4.561700821E-1,-3.492280960E0,-1.116693616E-1,3.523717851E0
2.228017436E1,1.395037770E0,-1.905880928E0,5.999034047E-1,2.436882555E0
2.229955302E1,2.230266333E0,-1.862383842E0,6.191039085E-2,2.906268120E0
2.231890116E1,1.906302452E0,-1.911406517E0,-2.002033144E-1,2.706943900E0
2.233827982E1,9.971468449E-1,-1.913132668E0,4.853502512E-1,2.211321618E0
2.235765848E1,-5.679792166E-2,-1.448955536E-1,1.459353566E0,1.467628549E0
2.237703715E1,-4.363423586E-2,1.404750824E0,2.094996929E0,2.522744727E0
2.239641581E1,2.499993563E0,1.092213631E0,9.340630770E-1,2.883638719E0
2.241579447E1,3.544489145E0,2.443288803E0,-6.971602440E-1,4.361088841E0
2.243517313E1,3.302713633E0,3.636878967E0,1.098171473E0,5.033963304E0
2.245452128E1,1.885617495E0,4.874605179E0,2.453414679E0,5.773783211E0
2.247389994E1,-6.234838963E-1,5.196032524E0,7.344222069E-2,5.233820776E0
2.249327860E1,-9.640519619E-1,4.207944870E0,-2.965000391E0,5.237119775E0
2.251262675E1,-2.702813148E-1,3.514632225E0,-3.976747274E0,5.314151913E0
2.253200541E1,-5.423012376E-1,2.871541023E0,-1.697115779E0,3.379355034E0
2.255138407E1,-2.339749098E0,3.171034813E0,3.660566807E0,5.378627796E0
2.257073222E1,-2.823137283E0,4.192255020E0,-2.767089605E0,5.762108222E0
2.259011088E1,2.890300751E-2,2.341695786E0,-4.058139801E0,4.685389331E0
2.260948954E1,8.596284389E-1,1.508676529E0,-3.487406969E-1,1.771069167E0
2.262883768E1,1.263375282E-1,2.442758560E0,2.003753424E0,3.161970641E0
2.264821635E1,-1.288827062E0,9.428739548E-1,-8.978208303E-1,1.831984916E0
2.266759501E1,-8.875428438E-1,-1.154902458E0,-1.919992208E0,2.409958935E0
2.268697367E1,-1.211915970E0,-4.215022087E0,-1.784205794E0,4.734822260E0
2.270635233E1,-2.119256496E0,-6.859243393E0,-1.201945782E0,7.279089344E0
2.272573100E1,-2.465652943E0,-6.336294174E0,-1.219477415E0,6.907618509E0
2.274510966E1,-1.916062236E0,-4.893635750E0,-1.659034491E0,5.511021755E0
2.276445780E1,-1.122866988E0,-3.740887642E0,-9.781000614E-1,4.026381794E0
2.278383646E1,-7.169523239E-1,-4.038981438E0,-9.009692669E-1,4.199897297E0
2.280321513E1,-5.599768162E-1,-5.271964073E0,-2.317442894E-1,5.306683017E0
2.282256327E1,2.033481598E-1,-5.668189049E0,7.583494186E-1,5.722308224E0
2.284194193E1,1.392104626E0,-4.519907951E0,1.198132753E0,4.878836467E0
2.286132060E1,2.677163363E0,-1.847577095E0,1.761958838E0,3.699357206E0
2.288066874E1,3.293688059E0,2.391632080E0,5.714969635E-1,4.110339866E0
2.290004740E1,1.072071195E0,6.186955452E0,3.900341988E-1,6.291254333E0
2.291942606E1,-3.984218836E-1,7.156982422E0,7.488496780E0,1.036622986E1
2.293877421E1,2.950446844E0,3.566843033E0,8.231779099E0,9.444029486E0
2.295818339E1,6.829983711E0,-1.590099335E-1,2.830534458E0,7.394990668E0
2.297756205E1,5.692848682E0,2.144869804E0,-1.847521544E0,6.357855649E0
2.299694071E1,-1.051896691E0,6.912012100E0,-5.380143166E0,8.822037089E0
2.301628886E1,-5.817571163E0,6.901381493E0,-6.760396481E0,1.127724086E1
2.303566752E1,-5.725110054E0,2.638847351E0,-2.521664143E0,6.789638468E0
2.305504618E1,-5.297749519E0,-2.982101440E0,6.420250893E0,8.841872002E0
2.307439432E1,-3.737088680E0,-2.814476013E0,2.440371513E-1,4.684726370E0
2.309377299E1,-9.661222696E-1,3.192888260E0,-6.438264847E0,7.251150386E0
2.311315165E1,1.154936075E0,4.670987129E0,-3.317689657E0,5.844575499E0
2.313249979E1,2.054529190E0,9.568204880E-1,-6.606240273E-1,2.360724411E0
2.315187846E1,1.574088097E0,-1.183225632E0,2.239391804E-1,1.981899339E0
2.317125712E1,7.191199064E-2,-2.005030632E0,8.359386921E-1,2.173502396E0
2.319060526E1,-1.315114021E0,-3.879877090E0,2.164329290E-1,4.102415671E0
2.320998393E1,-1.802442193E0,-4.949167252E0,-8.183467388E-1,5.330360750E0
2.322936259E1,-2.177639484E0,-4.946105957E0,-2.836229801E0,6.103300529E0
2.324874125E1,-1.374731302E0,-5.501883507E0,-1.707528830E0,5.922521674E0
2.326811991E1,-2.992274761E-1,-4.275245667E0,-1.453373432E0,4.525434446E0
2.328749857E1,8.920410275E-1,-2.315465927E0,-3.492341638E-1,2.505810080E0
2.330687724E1,1.243524671E0,-2.094737053E0,6.128342748E-1,2.511940042E0
2.332625590E1,1.049257994E0,-2.466828346E0,1.346407413E0,2.999832887E0
2.334560404E1,4.811944962E-1,-8.507938385E-1,1.208286285E0,1.554140935E0
2.336498270E1,7.504709959E-1,1.476523399E0,1.782377839E0,2.433145870E0
2.338433085E1,1.720461369E0,9.854030609E-1,1.803984165E0,2.680553186E0
2.340370951E1,3.195734262E0,1.409579277E0,4.745253325E-1,3.524883758E0
2.342308817E1,3.563243866E0,3.731867790E0,-1.518502831E0,5.378605293E0
2.344243632E1,2.195551872E0,4.733066559E0,7.531237602E-2,5.218049351E0
2.346181498E1,-1.216486573E0,4.718766212E0,3.194720030E0,5.826905716E0
2.348119364E1,-2.643870115E0,4.337795258E0,1.716875553E0,5.362292285E0
2.350054179E1,-1.120574474E0,3.796876907E0,-2.547413349E0,4.707576465E0
2.351992045E1,8.510066867E-1,2.667078972E0,-5.007217884E0,5.736702325E0
2.353932963E1,1.061020851E0,3.259737015E0,-1.517030239E0,3.748737307E0
2.355867777E1,-5.043870807E-1,4.354367256E0,2.407120228E0,5.000914748E0
2.357805644E1,-1.619347453E0,4.357883453E0,-4.522362709E0,6.485768947E0
2.359743510E1,9.336973429E-1,1.966442108E0,-2.472659349E0,3.294348122E0
2.361681376E1,1.082164407E0,2.326181412E0,2.431286335E0,3.534593754E0
2.363616190E1,-6.089297533E-1,1.075626373E0,2.277644873E-1,1.256838972E0
2.365554057E1,-1.328075767E0,-4.696674347E-1,-1.683129191E0,2.194834075E0
2.367491923E1,-1.002942681E0,-2.493875504E0,-1.748301625E0,3.206535143E0
2.369426737E1,-1.376271963E0,-4.784358025E0,-1.435500979E0,5.181203459E0
2.371364603E1,-1.867337823E0,-6.132126808E0,-1.097737789E0,6.503457387E0
2.373302470E1,-1.489906549E0,-5.923109055E0,-1.551218271E0,6.301533188E0
2.375237284E1,-7.300081253E-1,-5.393849373E0,-1.872989655E0,5.756267295E0
2.377175150E1,-6.373752356E-1,-4.743407249E0,-1.600020170E0,5.046407046E0
2.379113017E1,-1.133358359E0,-4.963924408E0,-5.735509396E-1,5.123866448E0
2.381047831E1,-5.519063473E-1,-4.433940887E0,6.036543846E-1,4.508750495E0
2.382988749E1,1.009531021E0,-3.648651123E0,1.736854315E0,4.165149554E0
2.384926615E1,2.764418602E0,-2.795284271E0,2.455919027E0,4.635424752E0
2.386861430E1,3.344369411E0,-1.817893982E-2,2.412120819E0,4.123525686E0
2.388799296E1,2.562459707E0,3.705443382E0,1.498224258E0,4.747755927E0
2.390737162E1,4.092757702E-1,5.659451485E0,2.922478199E0,6.382615184E0
2.392675028E1,2.392010450E0,4.056427956E0,6.996182919E0,8.433439226E0
2.394609843E1,6.543992043E0,1.203038216E0,4.600031376E0,8.088969122E0
2.396547709E1,8.330697060E0,2.962384224E0,-3.495671749E-1,8.848640065E0
2.398485575E1,1.244027972E0,9.573563576E0,-3.638277292E0,1.031686904E1
2.400420390E1,-7.032672882E0,1.143314552E1,-7.804268360E0,1.552681259E1
2.402358256E1,-7.105275154E0,2.368046761E0,-3.461447001E0,8.250708807E0
2.404296122E1,-6.787525654E0,-7.055672646E0,2.235216618E0,1.004237095E1
2.406230936E1,-5.512419701E0,-3.862322807E0,5.778893471E0,8.871297434E0
2.408168803E1,-1.733999252E0,4.131153107E0,-8.543461800E0,9.646964233E0
2.410106669E1,4.401158094E-1,8.595168114E0,-4.719129562E0,9.815334974E0
2.412044535E1,2.170847893E0,3.240914345E0,7.937297821E-1,3.980717690E0
2.413982401E1,9.562853575E-1,-5.234432220E-1,4.122004509E-1,1.165497191E0
2.415920268E1,-1.957774162E-3,-3.229698181E0,-6.148025990E-1,3.287694695E0
2.417855082E1,-6.990715265E-1,-5.127361298E0,-1.627439976E0,5.424674714E0
2.419792948E1,-6.393961906E-1,-6.701096535E0,-1.337604403E0,6.863141248E0
2.421730814E1,-4.917771220E-1,-6.536391258E0,-2.904525757E0,7.169555446E0
2.423668681E1,-1.610895395E-1,-5.020093918E0,-3.386155128E0,6.057502731E0
2.425603495E1,4.584478140E-1,-3.766897202E0,-1.783554912E0,4.192941336E0
2.427541361E1,6.166014075E-1,-2.026178360E0,-6.556433439E-1,2.217084626E0
2.429479227E1,1.288783789E0,-8.963260651E-1,1.002843022E0,1.862809222E0
2.431414042E1,1.197944522E0,-4.583148956E-1,1.318256617E0,1.839272717E0
2.433351908E1,8.608168364E-1,-1.083189011E0,5.930517912E-1,1.505328697E0
2.435289774E1,1.229551136E-1,-9.009809494E-1,6.468628645E-1,1.115937362E0
2.437224589E1,7.400774956E-2,-2.872724533E-1,2.684239388E0,2.700582104E0
2.439165507E1,1.887666106E0,4.273891449E-1,1.652794600E0,2.545127658E0
2.441103373E1,3.262595892E0,1.711371422E0,-1.090520620E0,3.842207610E0
2.443038187E1,2.912239075E0,3.570972443E0,5.080530047E-1,4.635849272E0
2.444976054E1,4.681098759E-1,4.312754631E0,3.019220114E0,5.285325861E0
2.446913920E1,-7.378947735E-1,4.996302605E0,2.572529078E0,5.667930334E0
2.448851786E1,-2.836770415E-1,5.494987488E0,-1.859349608E0,5.807972204E0
2.450789652E1,1.257050753E0,4.092267990E0,-5.237764835E0,6.764688786E0
2.452724467E1,1.428715110E0,3.647561073E0,-8.638622165E-1,4.011506771E0
2.454662333E1,-2.179111719E0,2.576217651E0,-3.683602214E-1,3.394276731E0
2.456597147E1,-5.135582447E0,2.613265991E0,2.044059753E0,6.114045018E0
2.458535014E1,-3.447061062E0,2.877587318E0,-2.452548027E0,5.116417747E0
2.460472880E1,5.198574066E-2,2.150293350E0,-3.354084015E0,3.984512968E0
2.462407694E1,6.369876862E-2,3.707425117E0,1.399263740E-1,3.710611530E0
2.464345560E1,-1.203933477E0,2.667120934E0,2.389602423E0,3.777987511E0
2.466283427E1,-1.660417676E0,8.877468109E-2,-4.102002382E-1,1.712638911E0
2.468221293E1,-5.000844002E-1,-2.444226265E0,-2.565331936E0,3.578443011E0
2.470159159E1,-7.990566492E-1,-4.731608391E0,-2.289911032E0,5.316982417E0
2.472097025E1,-1.798187137E0,-6.359455109E0,-1.087541461E0,6.697678156E0
2.474031840E1,-2.242257595E0,-6.500477791E0,-9.900085926E-1,6.947233093E0
2.475969706E1,-2.026688099E0,-5.890754700E0,-1.510485888E0,6.410150014E0
2.477907572E1,-1.571259499E0,-5.001070976E0,-1.642118216E0,5.493279490E0
2.479842387E1,-1.080054045E0,-5.046059608E0,-8.181405067E-1,5.224805087E0
2.481780253E1,-1.831370592E-1,-5.142867088E0,-1.555809975E-1,5.148478078E0
2.483718119E1,1.111425996E0,-4.461791039E0,1.230144978E0,4.759842821E0
2.485655985E1,2.705325603E0,-3.592480659E0,2.281716824E0,5.042909435E0
2.487590800E1,3.971275330E0,-1.672697067E0,2.675246954E0,5.072069547E0
2.489528666E1,4.359781265E0,2.282999992E0,2.476534367E0,5.509356053E0
2.491466532E1,2.748089552E0,5.532897949E0,5.717489719E-1,6.204180267E0
2.493401347E1,-8.267449141E-1,7.784236908E0,3.229408979E0,8.467994671E0
2.495339213E1,-1.974492550E0,9.102544785E0,3.981995583E0,1.012972019E1
2.497280131E1,4.312288761E-1,1.276195812E1,2.089311600E0,1.293904001E1
2.499214945E1,2.782675028E0,9.096732140E0,1.957142353E-1,9.514836835E0
2.501152811E1,-9.699126482E-1,1.423394203E0,4.470989704E-1,1.779516533E0
2.503090678E1,-4.276659966E0,-9.857682228E0,-7.204808712E0,1.293727127E1
2.505025492E1,-7.182280064E0,-7.371235847E0,-1.624414206E0,1.041916438E1
2.506963358E1,-4.223220348E0,1.036825180E0,-2.088432312E-1,4.353643538E0
2.508901225E1,-1.504935980E0,7.145384789E0,-6.236144543E0,9.602648324E0
2.510839091E1,9.347593784E-1,5.432137489E0,-8.136060238E-1,5.571700599E0
2.512773905E1,1.108126640E-1,-5.650615692E-1,3.013348579E-2,5.766125653E-1
2.514711771E1,-2.940177917E-1,-2.444274902E0,-1.142638206E0,2.714138598E0
2.516649638E1,2.399063110E-2,-3.147604942E0,-4.166435003E-1,3.175151056E0
2.518584452E1,3.033374548E-1,-3.207007408E0,-1.292207122E0,3.470836985E0
2.520522318E1,2.077124119E-1,-3.064639091E0,-1.282585382E0,3.328690804E0
2.522460185E1,-2.723913193E-1,-3.183404922E0,-1.173781633E0,3.403825385E0
2.524398051E1,-1.248494387E0,-3.336150169E0,-9.353364706E-1,3.682864442E0
2.526335917E1,-1.900092602E0,-3.189730644E0,-3.409845829E-1,3.728405016E0
2.528273783E1,-1.305841923E0,-2.993438721E0,2.526513338E-1,3.275626841E0
2.530208598E1,2.497007847E-1,-3.078310966E0,1.115614414E0,3.283739394E0
2.532146464E1,1.736614466E0,-2.953527451E0,7.469754815E-1,3.506725905E0
2.534084330E1,2.670493603E0,-2.287568092E0,2.350415885E-1,3.524166342E0
2.536019144E1,2.635583401E0,-1.253050804E0,1.099171400E0,3.118431328E0
2.537957011E1,3.105264187E0,-1.147423744E0,3.043144941E0,4.496662991E0
2.539894877E1,3.808334827E0,-3.105001450E-1,9.523971677E-1,3.937878218E0
2.541832743E1,3.697070599E0,1.157565117E0,-3.908303976E0,5.503010810E0
2.543767558E1,3.471515656E0,2.947312355E0,-1.735321522E0,4.873336829E0
2.545705424E1,1.648427486E0,4.297000885E0,2.574762583E0,5.273607128E0
2.547643290E1,-1.026806951E0,4.516757965E0,4.510738850E0,6.465462087E0
2.549578104E1,-1.448195219E0,3.344984055E0,2.825344086E0,4.611806254E0
2.551515971E1,-8.752044439E-1,4.035327911E0,-1.455782294E0,4.378259501E0
2.553453837E1,-4.384368658E-1,4.705797195E0,-4.420706272E0,6.471429369E0
2.555391703E1,1.281767488E-1,2.744033813E0,-2.759654760E0,3.893821419E0
2.557329569E1,-1.591904998E0,2.231647491E0,2.167983055E0,3.494933844E0
2.559267436E1,-4.111104012E0,4.068379402E0,5.530993342E-1,5.810232872E0
2.561202250E1,-3.287892342E0,4.030372620E0,-3.662667990E0,6.361546691E0
2.563140116E1,7.297933102E-2,1.766420364E0,-1.437153578E0,2.278371632E0
2.565077982E1,6.439042091E-2,1.957531929E0,2.169142485E0,2.922542814E0
2.567015848E1,-1.189955235E0,1.396345139E0,3.754251003E-1,1.872623083E0
2.568953715E1,-1.156805396E0,-5.019683838E-1,-1.753642797E0,2.159961584E0
2.570888529E1,-6.693124771E-1,-2.865099907E0,-2.178781986E0,3.661129281E0
2.572826395E1,-4.986705780E-1,-4.120967865E0,-2.029214382E0,4.620471783E0
2.574761210E1,-1.006192446E0,-5.283683777E0,-1.616718292E0,5.616361414E0
2.576699076E1,-1.727444530E0,-5.580561638E0,-1.633779526E0,6.065968046E0
2.578636942E1,-2.084875584E0,-5.700520515E0,-1.349036455E0,6.217920851E0
2.580571757E1,-1.841683745E0,-5.409881592E0,-6.171340942E-1,5.747997246E0
2.582512675E1,-9.008977413E-1,-5.020799637E0,-2.834100723E-1,5.108851828E0
2.584450541E1,9.016323090E-2,-5.047636986E0,-1.697549820E-1,5.051295408E0
2.586385355E1,1.477512360E0,-5.129314423E0,1.132289648E0,5.456646320E0
2.588323222E1,3.015145779E0,-4.176888466E0,2.103173733E0,5.564246676E0
2.590261088E1,4.112624645E0,-1.531173706E0,2.328057289E0,4.967698172E0
2.592195902E1,3.970271111E0,3.209344864E0,8.113019466E-1,5.169251203E0
2.594133768E1,6.111397743E-1,6.490234375E0,1.281146526E0,6.643641358E0
2.596071635E1,1.767297983E-1,6.230845451E0,7.813464165E0,9.995243404E0
2.598006449E1,3.177771568E0,3.909857750E0,5.555698395E0,7.500066961E0
2.599944315E1,4.120512009E0,4.078612328E0,-5.622127056E-1,5.824927541E0
2.601882182E1,1.224026322E0,6.786325455E0,-1.299772501E0,7.017254603E0
2.603820048E1,-4.437618732E0,7.643117905E0,-3.905659914E0,9.662499194E0
2.605754862E1,-3.834834576E0,2.473340988E0,-2.540681601E0,5.222876110E0
2.607692728E1,-3.737029076E0,-3.358122826E0,-1.608598471E0,5.275411289E0
2.609630595E1,-2.700016022E0,-2.532194138E0,1.919725418E0,4.169824858E0
2.611568461E1,-9.930063486E-1,2.768906593E0,-5.458966732E0,6.201066288E0
2.613506327E1,2.880160809E-1,5.048640251E0,-2.948422432E0,5.853624218E0
2.615444193E1,7.740288973E-1,1.933184624E0,-1.092826843E0,2.351721504E0
2.617379008E1,7.790210247E-1,-7.472972870E-1,-7.753348351E-1,1.329086565E0
2.619316874E1,4.856551886E-1,-2.756942749E0,-2.880662680E-1,2.814174205E0
2.621254740E1,-8.144513369E-1,-3.473265648E0,-1.047910929E0,3.718201522E0
2.623189555E1,-1.692839026E0,-4.909538269E0,-1.316803098E0,5.357540516E0
2.625127421E1,-2.533855915E0,-5.116858482E0,-2.281749487E0,6.148906183E0
2.627065287E1,-2.727912903E0,-4.250149727E0,-2.065226316E0,5.456229581E0
2.629003153E1,-1.410704613E0,-3.863583565E0,-5.725077987E-1,4.152725689E0
2.630937968E1,7.051157951E-2,-3.557456970E0,2.929832339E-1,3.570197635E0
2.632875834E1,1.087004781E0,-2.469956398E0,4.648268819E-1,2.738307512E0
2.634813700E1,1.400433302E0,-1.696012497E0,3.690471649E-1,2.230216947E0
2.636748515E1,8.714431524E-1,-1.575613976E0,3.263647556E-1,1.829887024E0
2.638686381E1,7.272193432E-1,-3.968896866E-1,1.720233560E0,1.909338340E0
2.640627299E1,1.989084721E0,7.284383774E-1,1.953193069E0,2.881326718E0
2.642562113E1,3.794916391E0,1.475497246E0,-1.895307899E-1,4.076077092E0
2.644499979E1,4.327731609E0,2.583211899E0,-2.005340815E0,5.424355849E0
2.646437846E1,4.497521400E0,3.138339043E0,-1.830605865E-1,5.487292764E0
2.648372660E1,1.825922966E0,3.986927032E0,2.633356094E0,5.115090044E0
2.650310526E1,-6.843593121E-1,4.285524368E0,2.273474932E0,4.899260663E0
2.652248393E1,-8.538726568E-1,3.807703018E0,3.618676662E-1,3.919011227E0
2.654183207E1,-4.928467572E-1,3.647848129E0,-3.960907221E0,5.407261776E0
2.656121073E1,-9.065842628E-2,1.785262108E0,-3.969808340E0,4.353706237E0
2.658058939E1,-1.017098188E0,2.310235977E0,1.370800614E0,2.872415938E0
2.659996806E1,-2.557598829E0,5.473556519E0,2.213262081E0,6.434256894E0
2.661931620E1,-2.510457277E0,6.180407524E0,-3.834444046E0,7.694335192E0
2.663869486E1,-1.754363775E-1,2.825531960E0,-1.722791195E0,3.313973186E0
2.665807352E1,1.347612143E-1,2.325970650E0,2.450311184E0,3.381172126E0
2.667745219E1,-9.491388798E-1,1.212065697E0,6.218137741E-1,1.660307272E0
2.669683085E1,-1.184464931E0,-6.787881851E-1,-2.235060215E0,2.619008350E0
2.671620951E1,-2.257642746E-1,-2.562142372E0,-2.458198309E0,3.557847941E0
2.673555766E1,-2.337404490E-1,-4.096976280E0,-1.577219844E0,4.396302045E0
2.675493632E1,-1.075823784E0,-5.278126717E0,-1.629659653E0,5.627771232E0
2.677431498E1,-2.150887251E0,-6.107021332E0,-1.871335506E0,6.739727153E0
2.679366312E1,-2.123247862E0,-5.681994438E0,-1.612694502E0,6.276466031E0
2.681304179E1,-1.771078229E0,-5.574555397E0,-1.361817837E0,6.005575225E0
2.683242045E1,-1.523670316E0,-5.894578934E0,-9.266171455E-1,6.158429294E0
2.685176859E1,-8.463029861E-1,-5.441222191E0,5.974602699E-2,5.506968064E0
2.687117777E1,5.800178051E-1,-5.195327759E0,1.425175905E0,5.418392523E0
2.689052592E1,2.002534389E0,-3.869652748E0,1.693796396E0,4.674751609E0
2.690990458E1,3.272349119E0,3.098773956E-2,1.850347996E0,3.759390470E0
2.692925272E1,3.832012177E0,4.729731560E0,1.552907467E0,6.282212950E0
2.694863139E1,1.091804624E0,7.504470825E0,1.094321251E0,7.662027062E0
2.696801005E1,-1.335712671E-1,6.342949867E0,7.478810787E0,9.807316916E0
2.698738871E1,2.799640179E0,2.324210167E0,6.979825020E0,7.871333771E0
2.700676737E1,5.586042881E0,1.101358414E0,9.382426739E-1,5.770369550E0
2.702614603E1,4.517289162E0,5.698106766E0,-2.286429882E0,7.622472282E0
2.704549418E1,-2.320323467E0,7.567458153E0,-5.956822395E0,9.906263520E0
2.706487284E1,-5.812339306E0,3.497715950E0,-4.739598274E0,8.275330620E0
2.708425150E1,-5.843282700E0,-2.643343925E0,-2.298255682E0,6.812723317E0
2.710359965E1,-5.477984428E0,-3.478792191E0,6.874505997E0,9.453525332E0
2.712297880E1,-2.322665930E0,6.685056686E-1,-4.226768970E0,4.869009425E0
2.714235746E1,-2.919583321E-1,6.078267097E0,-5.105368614E0,7.943258731E0
2.716170561E1,1.923231244E0,2.967818260E0,-1.702704430E0,3.925043442E0
2.718108427E1,1.896331906E0,-2.083587646E-2,-4.228584766E-1,1.943017788E0
2.720046293E1,3.885822296E-1,-1.184441566E0,9.717822075E-1,1.580588065E0
2.721984159E1,-1.254818201E0,-2.861581802E0,1.532777548E-1,3.128372292E0
2.723918974E1,-2.214921951E0,-4.738137245E0,-4.692722559E-1,5.251289390E0
2.725859892E1,-2.275388718E0,-4.964206696E0,-1.532995105E0,5.671932292E0
2.727797758E1,-1.755172253E0,-5.276040077E0,-2.136906624E0,5.956811098E0
2.729732572E1,-1.315185189E0,-4.480597496E0,-1.630530834E0,4.946119368E0
2.731670439E1,3.915798664E-2,-3.380500793E0,-3.824244738E-1,3.402288559E0
2.733608305E1,1.273284912E0,-2.177357674E0,3.553211689E-1,2.547232624E0
2.735543119E1,1.690408587E0,-2.082856178E0,3.985339999E-1,2.711936651E0
2.737480986E1,1.175532699E0,-1.916758537E0,1.042170286E0,2.478297666E0
2.739418852E1,9.272999167E-1,-1.082769394E0,2.417932510E0,2.806897276E0
2.741353666E1,1.241156101E0,-1.849241257E-1,2.142137051E0,2.482622916E0
2.743291532E1,2.953418493E0,9.265766144E-1,1.016891479E0,3.258111923E0
2.745229399E1,3.972955227E0,2.631981850E0,-1.423766613E0,4.973812729E0
2.747167265E1,3.265284300E0,3.231363297E0,-4.190410674E-1,4.612958457E0
2.749102079E1,1.409357786E0,4.028231621E0,2.694995642E0,5.047369698E0
2.751039946E1,-3.495336771E-1,5.169837952E0,3.209972620E0,6.095352530E0
2.752977812E1,-3.009591401E-1,4.261112213E0,-4.432578385E-1,4.294663108E0
2.754915678E1,1.552425921E-1,2.817210197E0,-3.774821997E0,4.712754467E0
2.756853544E1,1.532968044E0,2.960173607E0,-3.774401903E0,5.035745082E0
2.758791410E1,-1.480797529E-1,3.334613800E0,-7.097495794E-1,3.412524179E0
2.760726225E1,-3.287985325E0,3.950918198E0,2.677371502E0,5.795594901E0
2.762664091E1,-3.036612511E0,3.934498787E0,-3.505965233E0,6.082194379E0
2.764601957E1,-1.462892294E-1,2.724486351E0,-2.499841213E0,3.700463823E0
2.766536772E1,5.229929686E-1,3.052703857E0,2.084321499E0,3.733218263E0
2.768474638E1,-9.534853697E-1,1.388714790E0,8.703016043E-1,1.896071729E0
2.770412504E1,-1.458959341E0,-8.863477707E-1,-1.311143875E0,2.152503889E0
2.772347319E1,-1.026639581E0,-3.088046074E0,-2.250562191E0,3.956645999E0
2.774285185E1,-1.077915430E0,-4.925811768E0,-1.985163212E0,5.419077064E0
2.776223051E1,-1.183974624E0,-5.988595009E0,-1.337451816E0,6.249307438E0
2.778160917E1,-1.392443061E0,-5.158352852E0,-1.625558376E0,5.584795597E0
2.780095732E1,-1.454322696E0,-4.587766647E0,-1.646411180E0,5.086583047E0
2.782033598E1,-1.357470751E0,-4.567220688E0,-5.772943497E-1,4.799531271E0
2.783974516E1,-1.251568675E0,-5.253211975E0,-4.068176746E-1,5.415548063E0
2.785909330E1,-3.404031992E-1,-4.824128151E0,1.901934147E-1,4.839861598E0
2.787847197E1,1.002562284E0,-3.265602112E0,1.620003223E0,3.780700825E0
2.789785063E1,2.580317974E0,-1.550002098E0,3.371824265E0,4.519927679E0
2.791719877E1,3.052137852E0,8.638687134E-1,3.080933094E0,4.421986358E0
2.793657743E1,1.753826380E0,3.397049904E0,3.744719028E-1,3.841364891E0
2.795595610E1,1.339191198E0,4.643763542E0,3.587880135E0,6.019207320E0
2.797530424E1,3.621469975E0,3.698219299E0,5.730257034E0,7.721898500E0
2.799468290E1,5.713898182E0,2.990763664E0,3.622591496E0,7.397058123E0
2.801406156E1,4.818300247E0,5.957843781E0,-2.678456306E-1,7.667050350E0
2.803340971E1,-7.844002247E-1,8.325878143E0,-3.983286142E0,9.262942246E0
2.805281889E1,-6.557426453E0,4.109639168E0,-8.265722275E0,1.132303583E1
2.807216703E1,-3.880706310E0,-1.697271347E0,-3.343998432E0,5.396567150E0
2.809154570E1,-4.495526314E0,-3.387832642E0,1.094548798E1,1.230816290E1
2.811092436E1,-3.667372704E0,2.404680252E-1,-3.099168539E0,4.807524628E0
2.813030302E1,-5.228528976E-1,4.895170212E0,-5.195656776E0,7.157577516E0
2.814968168E1,9.535424709E-1,3.579157829E0,-2.157591343E0,4.286585403E0
2.816902983E1,1.352105618E0,1.277503014E0,1.900124550E-2,1.860259282E0
2.818840849E1,6.196435690E-1,-7.607870102E-1,-4.280045033E-1,1.070487217E0
2.820778715E1,-5.645239353E-1,-3.187420845E0,-1.263214946E0,3.474773506E0
2.822713530E1,-1.602466345E0,-5.071871758E0,-2.467646599E0,5.863536582E0
2.824651396E1,-2.189033985E0,-5.743297577E0,-3.747129917E0,7.198494250E0
2.826589262E1,-1.861404300E0,-4.499899864E0,-2.251805782E0,5.365123860E0
2.828524076E1,-1.667679429E0,-3.853334427E0,-8.636835814E-1,4.286640901E0
2.830461943E1,-1.020934701E0,-2.489292145E0,4.319113493E-1,2.724964304E0
2.832399809E1,1.446538568E-1,-2.903957367E0,8.724140525E-1,3.035621750E0
2.834337675E1,8.410314322E-1,-3.180422783E0,1.784718037E-2,3.289793530E0
2.836272489E1,9.599140882E-1,-2.576373100E0,-1.588894129E-1,2.753975173E0
2.838210356E1,7.938793898E-1,-1.325046539E0,1.432808399E0,2.106877482E0
2.840151274E1,3.481037617E-1,-2.126779556E-1,1.494104505E0,1.548791920E0
2.842086088E1,1.646876812E0,9.856748581E-1,1.409876347E-1,1.924483222E0
2.844023954E1,2.807898045E0,2.669994354E0,-3.323391378E-1,3.888908662E0
2.845961820E1,2.367857218E0,3.064684868E0,9.432454109E-1,3.986069875E0
2.847896635E1,1.651777983E0,3.000939369E0,3.226912260E0,4.706056771E0
2.849834501E1,9.897769690E-1,3.210633278E0,2.995355129E0,4.501108402E0
2.851772367E1,-6.651115417E-2,3.522747040E0,-1.978727579E-1,3.528926759E0
2.853707182E1,9.219539165E-2,3.538283348E0,-2.764080286E0,4.490889541E0
2.855645048E1,4.481821358E-1,4.448266983E0,-3.623372078E0,5.754717334E0
2.857582914E1,1.684904099E-1,4.124456406E0,-1.108917236E0,4.274251642E0
2.859517729E1,-1.819883347E0,3.065513611E0,5.694406629E-1,3.610209379E0
2.861455595E1,-2.645735741E0,2.496500015E0,4.895505309E-1,3.670434533E0
2.863393461E1,-8.884027004E-1,1.857983589E0,-3.164951086E0,3.776013474E0
2.865331327E1,-2.221057415E-1,2.834147453E0,-1.246537209E0,3.104122704E0
2.867266142E1,-3.514021635E-1,3.023132324E0,1.452204227E0,3.372196561E0
2.869207060E1,-1.148202658E0,1.002277374E0,3.914859295E-1,1.573591596E0
2.871144926E1,-1.540156364E0,-1.077153206E0,-1.874338746E0,2.654333512E0
2.873079740E1,-1.072996736E0,-3.108879089E0,-1.827643871E0,3.762543462E0
2.875017607E1,-5.082101822E-1,-4.109481812E0,-1.454455614E0,4.388799321E0
2.876955473E1,-5.493631363E-1,-4.831872940E0,-1.450642943E0,5.074757227E0
2.878890287E1,-7.371761799E-1,-5.510550499E0,-1.483738184E0,5.754222321E0
2.880828154E1,-1.079957366E0,-5.632501602E0,-9.840257168E-1,5.818907872E0
2.882766020E1,-1.387540936E0,-5.934954643E0,-1.376503229E0,6.248497228E0
2.884700834E1,-1.066333294E0,-4.881088257E0,-8.379919529E-1,5.065996425E0
2.886638700E1,1.715164185E-1,-3.534847260E0,9.189605713E-1,3.656371365E0
2.888576567E1,1.710278988E0,-2.723162651E0,2.540890455E0,4.098389116E0
2.890511381E1,2.700125217E0,-1.227414131E0,3.125683546E0,4.308958026E0
2.892449247E1,2.564306259E0,1.641991615E0,1.906316280E0,3.592470573E0
2.894387114E1,1.378330827E0,3.781070709E0,-1.900031567E-1,4.028944375E0
2.896324980E1,1.344012260E0,3.787591934E0,4.766148567E0,6.234452164E0
2.898262846E1,3.829557419E0,3.442232132E0,6.730772018E0,8.474536214E0
2.900203764E1,4.896526814E0,2.529994011E0,3.644717455E0,6.607632697E0
2.902138578E1,3.917321920E0,4.753952980E0,-6.391456127E-1,6.193059589E0
2.904073393E1,4.686329365E-1,7.269845009E0,-1.530668020E0,7.444004827E0
2.906011259E1,-5.753114223E0,5.515978813E0,-6.344675541E0,1.018721028E1
2.907949125E1,-3.976240635E0,-1.390661240E0,-3.687898636E0,5.598662753E0
2.909883940E1,-4.078103542E0,-3.018682480E0,5.205684662E0,7.269286431E0
2.911821806E1,-3.868196964E0,9.218692780E-2,7.548413277E-1,3.942236879E0
2.913759672E1,-1.193590403E0,4.900450706E0,-6.680393219E0,8.370587120E0
2.915694487E1,5.320067406E-1,3.993937492E0,-2.162141085E0,4.572682138E0
2.917632353E1,1.235764503E0,1.085567474E0,-1.330056429E0,2.115329940E0
2.919570219E1,1.333736420E0,-7.293272018E-1,-9.526145458E-2,1.523103985E0
2.921505033E1,4.971302748E-1,-2.083180428E0,-9.001424313E-1,2.323152083E0
2.923445951E1,-3.556858301E-1,-3.817319870E0,-1.332133293E0,4.058697144E0
2.925380766E1,-1.174411058E0,-5.879654884E0,-2.141979218E0,6.366919024E0
2.927321684E1,-1.721238732E0,-6.592513084E0,-3.465056896E0,7.643985272E0
2.929256498E1,-1.515880704E0,-5.890896797E0,-9.559868574E-1,6.157472717E0
2.931194364E1,-1.274286032E0,-4.305806160E0,-6.051528454E-2,4.490816594E0
2.933132231E1,4.439653158E-1,-2.372932434E0,5.581068993E-2,2.414752238E0
2.935067045E1,1.966405869E0,-6.985273361E-1,-1.217904687E-1,2.090340976E0
2.937004911E1,2.113831043E0,-7.954025269E-1,5.805141926E-1,2.331939876E0
2.938942778E1,1.557790756E0,-1.400507927E0,1.176529169E0,2.402572658E0
2.940877592E1,8.861741424E-1,-1.707363129E0,1.768425226E0,2.612990862E0
2.942815458E1,5.446293950E-1,-8.272151947E-1,2.183732510E0,2.397831068E0
2.944753324E1,1.388978362E0,3.806266785E-1,1.011263847E0,1.759770476E0
2.946688139E1,2.667163134E0,1.791641235E0,-1.155053258E0,3.414364586E0
2.948626005E1,2.785509109E0,3.365795135E0,-5.370143056E-1,4.401820335E0
2.950563871E1,2.180997849E0,4.505501747E0,2.610227585E0,5.645315372E0
2.952501738E1,1.529371262E0,4.920865059E0,3.103961945E0,6.015685259E0
2.954439604E1,1.373790205E-2,5.016519547E0,-3.568322062E-1,5.029213290E0
2.956377470E1,8.249208927E-1,4.541690826E0,-3.219851971E0,5.628045554E0
2.958315336E1,9.106148481E-1,5.004177094E0,-3.557754755E0,6.207143198E0
2.960250151E1,-7.565719485E-1,3.360162735E0,-7.835834026E-1,3.532293542E0
2.962188017E1,-3.685302019E0,2.332062721E0,2.016305447E0,4.804732580E0
2.964125883E1,-2.967311144E0,3.060886383E0,-1.565904021E-1,4.265967819E0
2.966060697E1,-9.002531767E-1,2.417534828E0,-3.030967236E0,3.980162410E0
2.967998564E1,-4.845520258E-1,2.377906799E0,1.708123088E-1,2.432777889E0
2.969936430E1,-1.296287060E0,1.384702682E0,1.135504246E0,2.210685765E0
2.971871244E1,-1.563760042E0,-4.056043625E-1,-7.969535589E-1,1.801387061E0
2.973809111E1,-1.040182948E0,-2.583305359E0,-1.129197121E0,3.005084571E0
2.975746977E1,-8.575531244E-1,-4.187628746E0,-1.358665824E0,4.485265287E0
2.977681791E1,-6.692667007E-1,-4.531099319E0,-9.925618172E-1,4.686572086E0
2.979619657E1,-1.171981812E0,-5.000531197E0,-1.351266026E0,5.310816650E0
2.981557524E1,-1.631610870E0,-5.458990097E0,-1.660527229E0,5.934650587E0
2.983498442E1,-1.449436069E0,-5.276541710E0,-1.262746572E0,5.615806820E0
2.985433256E1,-1.179093480E0,-5.025226593E0,-4.696540833E-1,5.183024089E0
2.987371122E1,-5.843183994E-1,-4.225589752E0,-7.754468918E-2,4.266503243E0
2.989308989E1,1.111866355E0,-3.059361458E0,1.105064631E0,3.437601949E0
2.991243803E1,2.708227634E0,-2.734047890E0,2.681371689E0,4.690337825E0
2.993181669E1,3.176538706E0,-1.512574196E0,2.193388462E0,4.145989845E0
2.995119535E1,2.334128380E0,1.265998840E0,9.268642664E-1,2.812469684E0
2.997054350E1,7.421516180E-1,4.705802917E0,8.188947439E-1,4.833834785E0
2.998992216E1,5.033487082E-1,4.423537254E0,5.856555462E0,7.356648941E0
3.000930082E1,2.991047859E0,3.093852997E0,7.396891117E0,8.557586801E0
