"Time (s)","Linear Acceleration x (m/s^2)","Linear Acceleration y (m/s^2)","Linear Acceleration z (m/s^2)","Absolute acceleration (m/s^2)"
1.628664150E-1,-1.040945053E-1,-2.387619019E-2,-1.411171854E-1,1.769740051E-1
1.822450770E-1,5.931415558E-1,5.026688576E-1,-2.237597853E-1,8.090496444E-1
2.015932210E-1,8.883848190E-1,6.611628532E-1,-3.718971014E-1,1.168191491E0
2.209718830E-1,1.368395805E0,1.430130959E0,-6.691673398E-1,2.089393828E0
2.403505450E-1,2.166284561E0,2.510584354E0,-8.501368761E-1,3.423237548E0
2.596986900E-1,3.296927452E0,4.105115891E0,-7.196500301E-1,5.314094774E0
2.790773520E-1,4.490123749E0,6.019410610E0,-6.846891046E-1,7.540776786E0
2.984560140E-1,4.114922523E0,5.487397194E0,-1.041576028E0,6.937506466E0
3.178041590E-1,2.821501732E0,4.494758606E0,-1.653387785E0,5.558544604E0
3.372133380E-1,2.485633850E0,5.040596962E0,-1.544773579E0,5.828577766E0
3.565920000E-1,2.562968254E0,6.015165329E0,-1.245248079E0,6.655949443E0
3.759401450E-1,2.026288986E0,6.030081749E0,-1.149423122E0,6.464433964E0
3.953188070E-1,8.153476715E-1,5.046566963E0,-1.253176928E0,5.263371766E0
4.146974690E-1,-7.478218079E-1,3.559307098E0,-1.483566403E0,3.927960508E0
4.340456140E-1,-2.307966232E0,2.098334312E0,-1.703483224E0,3.554092023E0
4.534242760E-1,-3.499847412E0,1.093193293E0,-1.825002551E0,4.095685266E0
4.728029380E-1,-4.274934769E0,4.606258869E-1,-1.886067390E0,4.695156407E0
4.921816000E-1,-4.647182465E0,1.183953285E-1,-1.949090838E0,5.040761590E0
5.115297450E-1,-4.657567024E0,1.124475002E-1,-2.072762012E0,5.099207525E0
5.309084070E-1,-4.678909302E0,5.316722393E-1,-2.085221291E0,5.150050044E0
5.502870690E-1,-4.787919998E0,1.253021002E0,-1.894220352E0,5.299274505E0
5.696352130E-1,-4.656283379E0,1.949079514E0,-1.796513200E0,5.357923621E0
5.890138750E-1,-4.444101334E0,2.590935469E0,-1.771301270E0,5.440633369E0
6.083925380E-1,-4.095013618E0,3.226146936E0,-1.866944075E0,5.537385734E0
6.277712000E-1,-3.638541222E0,3.845099449E0,-1.867960453E0,5.613648390E0
6.471498620E-1,-3.346272469E0,4.379280567E0,-1.804946899E0,5.799437130E0
6.665285240E-1,-3.079385757E0,4.890970230E0,-1.800000906E0,6.053446101E0
6.858766680E-1,-2.697605133E0,5.642733097E0,-1.777642488E0,6.502116815E0
7.052553310E-1,-2.362123489E0,6.272828102E0,-1.839469075E0,6.950657973E0
7.246339930E-1,-2.127087593E0,6.826963425E0,-1.829448819E0,7.380976508E0
7.439821370E-1,-2.265007973E0,6.587271690E0,-1.682505965E0,7.166117203E0
7.633607990E-1,-2.073082924E0,6.119568825E0,-1.345152378E0,6.599714413E0
7.827394610E-1,-8.477334976E-1,6.658153534E0,-6.654659510E-1,6.744813229E0
8.021181240E-1,1.096258163E-1,6.940404415E0,-5.435373783E-1,6.962518520E0
8.214662680E-1,-5.871677399E-1,5.804081917E0,-8.062726259E-1,5.889160246E0
8.408449300E-1,-7.982120514E-1,5.703448772E0,-1.207531810E0,5.884267452E0
8.601930750E-1,1.546993256E-1,7.027589321E0,-1.113759518E0,7.116979964E0
8.795717370E-1,1.557654381E0,7.740777016E0,-1.372848630E0,8.014401371E0
8.989503990E-1,1.922657013E0,6.861447334E0,-1.085397124E0,7.207923170E0
9.183290610E-1,9.357614517E-1,4.693982124E0,-1.108510971E0,4.913035136E0
9.377077230E-1,-5.290908813E-1,2.902393818E0,-8.179312944E-1,3.061509209E0
9.570863850E-1,-1.557994843E0,1.709288359E0,-6.344795227E-1,2.398244960E0
9.764345300E-1,-2.489756584E0,7.381219864E-1,-4.802274108E-1,2.640895735E0
9.958131920E-1,-3.406613350E0,9.568333626E-2,-3.762699962E-1,3.428665765E0
1.015191854E0,-3.911890030E0,-3.545868397E-1,-1.314875782E-1,3.930127786E0
1.034539999E0,-4.019057274E0,-6.716835499E-1,5.992498994E-2,4.075238786E0
1.053918661E0,-3.863223076E0,-9.402985573E-1,2.260132432E-1,3.982428392E0
1.073297323E0,-3.719573021E0,-1.234462500E0,2.848762870E-1,3.929411612E0
1.092645467E0,-3.579009056E0,-1.443475246E0,1.831157207E-1,3.863477446E0
1.112024129E0,-3.212292671E0,-1.284901857E0,7.649372518E-2,3.460584962E0
1.131402791E0,-2.364574432E0,-5.920720100E-1,6.903740764E-2,2.438550322E0
1.150750936E0,-1.296722412E0,9.024381638E-3,1.925131679E-1,1.310965970E0
1.170129598E0,-2.497177124E-1,4.163763523E-1,2.474217862E-1,5.449272822E-1
1.189538778E0,2.786741257E-1,4.235017300E-1,4.945523664E-2,5.093709886E-1
1.208917440E0,7.450313568E-1,6.375966072E-1,-1.090057939E-1,9.866526335E-1
1.228265584E0,1.627578735E0,1.511246204E0,-2.232681662E-1,2.232202120E0
1.247644247E0,2.571639061E0,2.414406300E0,-4.645520747E-1,3.557877720E0
1.267022909E0,3.277632713E0,2.838382244E0,-5.771670938E-1,4.374061250E0
1.286371053E0,4.149010658E0,4.001690388E0,-5.164945722E-1,5.787450392E0
1.305749715E0,4.322651863E0,4.210717678E0,-5.915193558E-1,6.063444371E0
1.325119236E0,3.324062347E0,3.158445835E0,-1.034344196E0,4.700535980E0
1.344467381E0,2.946988106E0,3.545209408E0,-1.348212481E0,4.803220329E0
1.363846043E0,3.729532242E0,5.216061592E0,-8.854922652E-1,6.473083178E0
1.383224705E0,3.869653702E0,6.115242958E0,-7.792820930E-1,7.278577937E0
1.402572850E0,2.799192429E0,5.548871040E0,-8.193050623E-1,6.268708708E0
1.421951512E0,9.949703217E-1,4.701916695E0,-1.080384731E0,4.925973783E0
1.441330174E0,-8.825683594E-1,3.571634054E0,-1.392106056E0,3.933631401E0
1.460678318E0,-2.664920807E0,2.586653471E0,-1.704560041E0,4.086331365E0
1.480087498E0,-3.887619972E0,2.018385172E0,-1.763396978E0,4.721973809E0
1.499466160E0,-4.763799667E0,1.613304377E0,-1.717571259E0,5.314752046E0
1.518814305E0,-5.447835922E0,1.315517426E0,-1.576471329E0,5.821921005E0
1.538192967E0,-5.949819565E0,1.285239458E0,-1.516095161E0,6.273016647E0
1.557571629E0,-5.874813080E0,1.506896973E0,-1.627556801E0,6.279578676E0
1.576919774E0,-5.364842415E0,2.104135513E0,-1.714640617E0,6.012396597E0
1.596298436E0,-4.887341499E0,2.649446964E0,-1.825916052E0,5.851465250E0
1.615677098E0,-4.575053215E0,3.269461155E0,-1.766375899E0,5.894113333E0
1.635025242E0,-4.568036079E0,3.677882910E0,-1.533847690E0,6.061886262E0
1.654403904E0,-4.384517670E0,4.182011604E0,-1.522195101E0,6.247423003E0
1.673782566E0,-3.915159225E0,4.973864555E0,-1.582707882E0,6.524780810E0
1.693130711E0,-3.364879608E0,5.819306374E0,-1.756440639E0,6.947792827E0
1.712509373E0,-2.369458199E0,6.579727173E0,-1.805786371E0,7.222742294E0
1.731888035E0,-1.766488075E0,6.896754742E0,-1.741814733E0,7.329367275E0
1.751236180E0,-1.472043037E0,6.892408371E0,-1.291549802E0,7.165214913E0
1.770645359E0,-1.437273026E0,6.738994122E0,-9.585026503E-1,6.956904689E0
1.790024022E0,-7.367429733E-1,7.388282776E0,-7.495446205E-1,7.462662375E0
1.809372166E0,-5.078601837E-2,7.615650177E0,-6.559731960E-1,7.644017770E0
1.828750828E0,-4.165964127E-1,6.035315990E0,-8.319264650E-1,6.106610624E0
1.848129490E0,-7.199001312E-1,4.562185764E0,-9.415282011E-1,4.713626046E0
1.867508152E0,3.287687302E-1,5.123501778E0,-5.432730913E-1,5.162703264E0
1.886856297E0,1.495492935E0,6.207075119E0,-1.614093781E-1,6.386731061E0
1.906234959E0,1.531219482E0,6.403757095E0,-1.415533423E-1,6.585801044E0
1.925613621E0,3.573675156E-1,5.021633148E0,-3.294782043E-1,5.045103260E0
1.944961766E0,-8.765001297E-1,3.624850512E0,-9.136455655E-1,3.839601793E0
1.964340428E0,-1.987447739E0,2.403697968E0,-1.130169392E0,3.317377773E0
1.983749608E0,-2.572081566E0,1.306841373E0,-1.071736336E0,3.077670666E0
2.003067234E0,-2.933124542E0,2.119588852E-1,-6.984690428E-1,3.022582530E0
2.022445897E0,-3.231625557E0,-5.527009964E-1,-3.718333542E-1,3.299566968E0
2.041824559E0,-3.453393936E0,-1.178691864E0,-1.122547537E-1,3.650732162E0
2.061203221E0,-3.463309288E0,-1.392882586E0,-4.959350824E-2,3.733241572E0
2.080581883E0,-3.268057823E0,-1.234892368E0,-7.309429348E-2,3.494353141E0
2.099960545E0,-2.860736847E0,-8.283493519E-1,-1.446972191E-1,2.981763780E0
2.119308690E0,-2.272237778E0,-4.812459946E-1,-1.628077626E-1,2.328340309E0
2.138687352E0,-1.729527473E0,-3.244853020E-1,-1.521232128E-1,1.766266533E0
2.158066014E0,-1.307126999E0,-4.047579765E-1,-2.080958337E-1,1.384093164E0
2.177414158E0,-8.879041672E-1,-2.645592690E-1,-1.825004071E-1,9.442837579E-1
2.196792820E0,-2.626972198E-1,3.513569832E-1,-1.577536464E-1,4.662057184E-1
2.216171483E0,3.679075241E-1,1.146299362E0,-1.836851984E-1,1.217825286E0
2.235519627E0,9.044103622E-1,1.624330521E0,-2.455996275E-1,1.875293822E0
2.254898289E0,1.597126961E0,2.161615372E0,-4.122236967E-1,2.719066737E0
2.274276951E0,2.246928215E0,2.220857143E0,-4.366563559E-1,3.189288577E0
2.293625096E0,3.156387329E0,2.960315704E0,-1.799262315E-1,4.331122659E0
2.313003758E0,3.980483055E0,3.818365574E0,-4.357518256E-2,5.515982216E0
2.332382420E0,3.485687256E0,2.939997196E0,-4.468437135E-1,4.581841165E0
2.351761082E0,2.639693260E0,2.212284565E0,-1.109024167E0,3.618303208E0
2.371139744E0,2.981066704E0,3.277885914E0,-1.033800125E0,4.549729383E0
2.390518406E0,3.741251945E0,4.885833740E0,-9.327719212E-1,6.224018068E0
2.409866551E0,3.682164192E0,5.767149448E0,-9.267694354E-1,6.904871287E0
2.429245213E0,2.678133965E0,5.520828724E0,-1.182245731E0,6.248972420E0
2.448623875E0,7.036809921E-1,4.305360794E0,-1.625409245E0,4.655454191E0
2.467972020E0,-1.560575485E0,2.526151180E0,-1.861467123E0,3.504553535E0
2.487350682E0,-3.589859962E0,1.109195471E0,-2.000475883E0,4.256678623E0
2.506729344E0,-4.875186920E0,3.721826077E-1,-1.921794891E0,5.253500072E0
2.526077488E0,-5.659783363E0,9.192228317E-2,-1.759715319E0,5.927747922E0
2.545456150E0,-5.839285851E0,6.760430336E-2,-1.698776484E0,6.081749019E0
2.564834813E0,-5.466544151E0,4.561960697E-1,-1.687634468E0,5.739279564E0
2.584213475E0,-4.834645271E0,1.208349228E0,-1.687888622E0,5.261451393E0
2.603561619E0,-4.083801270E0,2.107006311E0,-1.569235206E0,4.855863212E0
2.622970799E0,-3.581949234E0,2.812765598E0,-1.486467004E0,4.790782272E0
2.642349461E0,-3.320122719E0,3.276659250E0,-1.438335538E0,4.881446490E0
2.661697606E0,-3.259798050E0,3.766414881E0,-1.487327576E0,5.198490906E0
2.681076268E0,-3.257185936E0,4.650403500E0,-1.543285847E0,5.883642081E0
2.700454930E0,-3.339601517E0,5.601657867E0,-1.605628252E0,6.716364436E0
2.719803074E0,-3.518359184E0,6.048624039E0,-1.569090962E0,7.171244701E0
2.739181736E0,-3.679485321E0,6.174592972E0,-1.644956827E0,7.373607906E0
2.758560399E0,-3.267436028E0,6.764730453E0,-1.392613292E0,7.640490042E0
2.777908543E0,-2.977023125E0,6.748365402E0,-8.391929865E-1,7.423432303E0
2.797287205E0,-1.983784676E0,6.853924751E0,-5.484096408E-1,7.156286696E0
2.816665867E0,-7.168388367E-2,7.689124584E0,-3.120875359E-2,7.689522055E0
2.836014012E0,8.591089249E-1,7.086343288E0,-2.219709158E-1,7.141680505E0
2.855392674E0,1.024131775E-1,4.675740242E0,-5.702773333E-1,4.711502044E0
2.874771336E0,2.567901611E-1,4.181508064E0,-3.657474518E-1,4.205320687E0
2.894119481E0,1.587133408E0,6.325112343E0,-6.140774488E-2,6.521488290E0
2.913528660E0,2.368453979E0,7.808607101E0,-1.364430785E-1,8.161037669E0
2.932907322E0,1.571590424E0,7.185132027E0,-4.242724180E-1,7.367226465E0
2.952255467E0,-5.906867981E-2,5.291548252E0,-7.165853977E-1,5.340174777E0
2.971634129E0,-1.783139229E0,3.177657127E0,-6.709551811E-1,3.705033223E0
2.991012791E0,-3.130079269E0,1.593603134E0,-4.980962276E-1,3.547543803E0
3.010360936E0,-4.085078239E0,4.315450191E-1,-2.463055402E-1,4.115186721E0
3.029739598E0,-4.575583458E0,-3.586761951E-1,-3.949950635E-2,4.589790061E0
3.049118260E0,-4.859060287E0,-1.051353216E0,2.673478723E-1,4.978683094E0
3.068466404E0,-4.761166573E0,-1.368538380E0,3.723694682E-1,4.967923454E0
3.087845066E0,-4.482728004E0,-1.523586512E0,2.696238160E-1,4.742242426E0
3.107223729E0,-3.838731766E0,-1.404306173E0,2.543496490E-1,4.095440287E0
3.126571873E0,-3.068599701E0,-1.154642105E0,1.723293662E-1,3.283169189E0
3.145950535E0,-2.340942383E0,-9.880323410E-1,-8.813589811E-3,2.540924404E0
3.165329197E0,-1.439734459E0,-7.396030426E-1,-1.222729683E-1,1.623206287E0
3.184707859E0,-2.845945358E-1,-1.963219643E-1,-2.408130318E-1,4.213398625E-1
3.204086522E0,1.290918350E0,8.072366714E-1,-3.772294819E-1,1.568567280E0
3.223465184E0,2.568135262E0,1.367408276E0,-4.748269320E-1,2.947979771E0
3.242813328E0,3.129117966E0,1.476552963E0,-8.516811728E-1,3.563277805E0
3.262191990E0,4.126953125E0,2.210157394E0,-1.155698299E0,4.822051054E0
3.281570652E0,4.447832108E0,1.976627350E0,-1.072172642E0,4.983956291E0
3.300918797E0,4.611419678E0,2.319495678E0,-6.997067332E-1,5.209111360E0
3.320297459E0,4.996886253E0,3.898103714E0,-5.062462091E-1,6.357701630E0
3.339676121E0,3.977886200E0,3.518087387E0,-8.414086103E-1,5.376661225E0
3.359054783E0,2.202300072E0,2.327191830E0,-1.592989087E0,3.578206485E0
3.378402928E0,2.143988609E0,3.019682407E0,-1.763407230E0,4.101801319E0
3.397812108E0,2.769311905E0,4.331696510E0,-1.225201488E0,5.285243776E0
3.417160252E0,2.744905472E0,4.965249062E0,-1.116417170E0,5.782265265E0
3.436508397E0,1.875132561E0,4.654087543E0,-1.146395445E0,5.146928744E0
3.455887059E0,-1.190242767E-1,3.194344997E0,-1.496451378E0,3.529500456E0
3.475265721E0,-2.247739792E0,1.002433300E0,-1.785968542E0,3.040869995E0
3.494644383E0,-3.784909248E0,-5.048465729E-1,-1.956449986E0,4.290466714E0
3.514023045E0,-4.705691338E0,-1.077277660E0,-1.949391365E0,5.206167959E0
3.533401707E0,-5.083099365E0,-7.191386223E-1,-1.708488226E0,5.410544477E0
3.552749852E0,-5.140221596E0,3.432939053E-1,-1.504343271E0,5.366821912E0
3.572128514E0,-5.084729195E0,1.492515326E0,-1.326396585E0,5.462728337E0
3.591507176E0,-4.899437904E0,2.538298607E0,-1.087943554E0,5.624150849E0
3.610855320E0,-4.739067078E0,3.281015396E0,-1.129914045E0,5.873714714E0
3.630233983E0,-4.512119293E0,3.498136520E0,-1.412716627E0,5.881491979E0
3.649612645E0,-3.864855766E0,3.914059401E0,-1.564269662E0,5.718733309E0
3.668960789E0,-3.382222176E0,4.140328884E0,-1.794541359E0,5.639337621E0
3.688339451E0,-2.849567413E0,4.837705612E0,-1.859338403E0,5.914437364E0
3.707718113E0,-2.465175629E0,5.807151794E0,-1.901965618E0,6.589201473E0
3.727066258E0,-2.236226082E0,6.597562313E0,-1.918767333E0,7.225662851E0
3.746444920E0,-1.818402290E0,7.840358734E0,-1.922494531E0,8.274889558E0
3.765854100E0,-1.700566292E0,8.424118042E0,-1.731669068E0,8.766776389E0
3.785202244E0,-1.616147995E0,8.396744728E0,-1.468012691E0,8.675962058E0
3.804580906E0,-1.051264763E0,8.383846283E0,-1.270143509E0,8.544430972E0
3.823959568E0,-7.749338150E-1,7.472013950E0,-1.076264977E0,7.588798402E0
3.843307713E0,-1.340998650E0,5.581880569E0,-1.323532224E0,5.891299145E0
3.862686375E0,-1.389577866E0,4.648069859E0,-1.176539302E0,4.991966024E0
3.882065037E0,-5.254583359E-1,5.564570427E0,-7.772059441E-1,5.643101947E0
3.901413182E0,3.400068283E-1,6.553765297E0,-4.524588585E-1,6.578158042E0
3.920791844E0,3.227586746E-1,6.165898323E0,-3.640536666E-1,6.185063489E0
3.940170506E0,-5.720844269E-1,4.600577354E0,-4.165904522E-1,4.654690128E0
3.959518650E0,-1.661213875E0,2.914774418E0,-6.196869016E-1,3.411678956E0
3.978897313E0,-2.537261963E0,1.447122812E0,-8.415966630E-1,3.039761116E0
3.998275975E0,-3.013651848E0,3.726949692E-1,-6.781708598E-1,3.111416834E0
4.017654637E0,-3.448991776E0,-5.239536762E-1,-4.787760377E-1,3.521263724E0
4.037002781E0,-3.709789276E0,-1.163743496E0,-2.393220961E-1,3.895396060E0
4.056411961E0,-3.716964722E0,-1.479398966E0,-6.685340405E-2,4.001114522E0
4.075790623E0,-3.447501183E0,-1.546223640E0,8.205333352E-2,3.779259808E0
4.095138768E0,-2.964237213E0,-1.459665298E0,2.440874130E-1,3.313141063E0
4.114517430E0,-2.381167412E0,-1.098237038E0,3.089550734E-1,2.640366655E0
4.133896092E0,-1.680465698E0,-6.753287315E-1,2.514189482E-1,1.828454360E0
4.153244236E0,-1.003932953E0,-4.557876587E-1,1.909771562E-1,1.118970973E0
4.172622899E0,-1.505289078E-1,-4.746294022E-2,2.181974053E-1,2.692987012E-1
4.192001561E0,7.661085129E-1,5.530681610E-1,1.280367076E-1,9.535198177E-1
4.211349705E0,1.600552559E0,1.123673916E0,1.834693551E-2,1.955696340E0
4.230728367E0,2.452486992E0,1.935065269E0,-2.150545716E-1,3.131360489E0
4.250107029E0,3.666307449E0,2.973718643E0,-5.848548412E-1,4.756770760E0
4.269455174E0,4.627490044E0,3.556889534E0,-4.941965044E-1,5.857419009E0
4.288833836E0,5.346794128E0,4.154728413E0,-4.422152638E-1,6.785685667E0
4.308212498E0,4.901076317E0,3.571770668E0,-3.879268169E-1,6.076889170E0
4.327560643E0,3.232255936E0,1.888580799E0,-1.020100713E0,3.880054295E0
4.346969822E0,2.115266800E0,1.218952179E0,-1.526063204E0,2.879073975E0
4.366348484E0,2.395397186E0,2.278449535E0,-1.160470128E0,3.503705308E0
4.385696629E0,2.798704147E0,3.479523659E0,-8.637572527E-1,4.548176161E0
4.405075291E0,2.328094482E0,3.639247894E0,-9.591106772E-1,4.425386135E0
4.424453953E0,1.042671204E0,3.015555859E0,-1.535797358E0,3.541103486E0
4.443802098E0,-2.206153870E-1,2.348866463E0,-1.902426004E0,3.030687960E0
4.463180760E0,-1.463651657E0,1.504216671E0,-1.979823828E0,2.885246325E0
4.482559422E0,-2.571236610E0,6.391358376E-1,-1.895284414E0,3.257584279E0
4.501907566E0,-3.617663383E0,-5.561351776E-3,-1.785968423E0,4.034501517E0
4.521286229E0,-4.307705879E0,-1.861114502E-1,-1.713990331E0,4.639906278E0
4.540664891E0,-4.664956093E0,4.154801369E-2,-1.737533092E0,4.978208798E0
4.560013035E0,-4.717261314E0,7.327969074E-1,-1.652473927E0,5.051753725E0
4.579391697E0,-4.640960693E0,1.634242773E0,-1.493740559E0,5.142035244E0
4.598770359E0,-4.456252098E0,2.558797836E0,-1.382230043E0,5.321295803E0
4.618149022E0,-4.390430450E0,3.249714613E0,-1.311976552E0,5.617633584E0
4.637527684E0,-4.444345474E0,3.787919283E0,-1.195989966E0,5.960782766E0
4.656906346E0,-4.186633110E0,4.649816036E0,-1.016909480E0,6.338989735E0
4.676254490E0,-3.780366898E0,5.568208218E0,-1.009092093E0,6.805467176E0
4.695633152E0,-3.304434776E0,6.219513416E0,-1.000802875E0,7.113595625E0
4.715011815E0,-2.907615662E0,6.507825375E0,-1.023396492E0,7.200927740E0
4.734359959E0,-2.342880249E0,6.937393665E0,-9.839599133E-1,7.388145629E0
4.753738621E0,-1.791820526E0,7.292738914E0,-7.063544989E-1,7.542784522E0
4.773117283E0,-1.073299408E0,7.659914017E0,-1.590119600E-1,7.736377651E0
4.792495945E0,-2.425947189E-1,8.154441833E0,1.662203074E-1,8.159742827E0
4.811874608E0,5.090045929E-2,7.708606720E0,-1.468070149E-1,7.710172548E0
4.831222752E0,-6.721792221E-1,5.346634388E0,-6.057201624E-1,5.422658121E0
4.850601414E0,-7.370901108E-1,4.143919945E0,-6.488286853E-1,4.258679725E0
4.869949559E0,5.176258087E-2,4.557806015E0,-3.813786507E-1,4.574027187E0
4.889328221E0,5.171394348E-1,5.105032921E0,-1.331834793E-1,5.132887312E0
4.908706883E0,1.729507446E-1,5.118488312E0,-1.878009439E-1,5.124851583E0
4.928085545E0,-7.191295624E-1,4.348763466E0,-5.090445280E-1,4.437118135E0
4.947464207E0,-1.772399902E0,3.328559399E0,-9.176007509E-1,3.881069469E0
4.966842869E0,-2.858411789E0,2.147107601E0,-1.150259256E0,3.755487367E0
4.986191014E0,-3.606364250E0,1.140454292E0,-1.049556375E0,3.925311157E0
5.005569676E0,-4.105852127E0,2.348933220E-1,-8.513308167E-1,4.199757222E0
5.024948338E0,-4.267719269E0,-2.676181793E-1,-4.367826581E-1,4.298351584E0
5.044296483E0,-4.219315529E0,-6.462988853E-1,-2.022642195E-1,4.273316814E0
5.063675145E0,-3.982859612E0,-7.358610630E-1,-8.912619948E-2,4.051247421E0
5.083053807E0,-3.489649773E0,-5.126330853E-1,-1.318409443E-1,3.529565164E0
5.102401951E0,-2.827086449E0,-2.171080112E-1,-2.104511857E-1,2.843210048E0
5.121780613E0,-2.214980125E0,7.895469666E-3,-2.687250376E-1,2.231235631E0
5.141159275E0,-1.729394913E0,-4.806375504E-2,-3.282334507E-1,1.760924214E0
5.160507420E0,-1.237956047E0,-1.351571083E-1,-3.662436008E-1,1.298051229E0
5.179886082E0,-5.321855545E-1,5.525350571E-2,-2.646745741E-1,5.969313566E-1
5.199295262E0,4.343681335E-1,2.884654999E-1,1.093400121E-1,5.327694232E-1
5.218643406E0,1.399897575E0,3.310847282E-1,4.106556475E-1,1.495984084E0
5.238022068E0,2.481158257E0,9.095726013E-1,1.812347770E-1,2.648832697E0
5.257400731E0,3.563303947E0,1.690404415E0,-4.077516496E-1,3.964954415E0
5.276748875E0,4.716368675E0,2.239643574E0,-8.931078911E-1,5.296959366E0
5.296127537E0,6.171277046E0,3.394598484E0,-1.091405869E0,7.127350561E0
5.315506199E0,6.793329239E0,3.839026928E0,-1.060482383E0,7.874774459E0
5.334854344E0,5.273173809E0,2.244400978E0,-1.419095159E0,5.904026494E0
5.354233006E0,3.282319069E0,7.294683456E-1,-1.650594592E0,3.745691531E0
5.373611668E0,2.729802132E0,9.110336304E-1,-1.296726227E0,3.156469683E0
5.392959813E0,2.899506569E0,1.908887863E0,-6.785932779E-1,3.537157058E0
5.412338475E0,2.952334404E0,2.709476471E0,-3.582695723E-1,4.023170176E0
5.431717137E0,2.300689697E0,2.866677761E0,-4.652704000E-1,3.705062889E0
5.451065281E0,9.657154083E-1,2.299521446E0,-9.797954559E-1,2.679627636E0
5.470443943E0,-6.077117920E-1,1.172941685E0,-1.567095041E0,2.049607935E0
5.489853123E0,-2.039868355E0,3.023838997E-1,-1.921473980E0,2.818609796E0
5.509201268E0,-3.102345467E0,9.469985962E-4,-2.093818903E0,3.742809892E0
5.528579930E0,-3.857901573E0,7.648205757E-2,-2.012801409E0,4.352082670E0
5.547958592E0,-4.199420929E0,5.954494476E-1,-1.976919532E0,4.679519956E0
5.567337254E0,-4.233284950E0,1.371465921E0,-1.829339504E0,4.811247579E0
5.586685399E0,-4.158435822E0,2.058018923E0,-1.789041281E0,4.972795901E0
5.606064061E0,-4.065167427E0,2.734840631E0,-1.797155499E0,5.218688281E0
5.625442723E0,-4.058130264E0,3.194693565E0,-1.848125696E0,5.485440439E0
5.644790867E0,-3.948758125E0,3.722538233E0,-1.850458026E0,5.733600660E0
5.664169529E0,-3.827198029E0,4.259068966E0,-1.755120397E0,5.988953232E0
5.683548191E0,-3.655246735E0,4.860303879E0,-1.601934433E0,6.288845396E0
5.702896336E0,-3.576981544E0,5.464662552E0,-1.520195723E0,6.705842886E0
5.722274998E0,-3.525015831E0,5.837114334E0,-1.435948372E0,6.968471001E0
5.741653660E0,-3.456311226E0,6.017761230E0,-1.474045992E0,7.094529520E0
5.761032322E0,-3.221154213E0,6.408328056E0,-1.264376640E0,7.282935619E0
5.780410984E0,-3.103291512E0,6.455841541E0,-8.444187641E-1,7.212582843E0
5.799789647E0,-2.044098854E0,7.322837353E0,-5.264647007E-1,7.620987607E0
5.819137791E0,-4.869956970E-1,8.390438080E0,-3.123874664E-1,8.410362769E0
5.838516453E0,-2.149839401E-1,7.668059349E0,-4.743505120E-1,7.685724474E0
5.857895115E0,-1.244362831E0,5.303533554E0,-8.884564042E-1,5.519534563E0
5.877243260E0,-1.500097275E0,4.268775940E0,-8.124999404E-1,4.597052970E0
5.896621922E0,-5.105237961E-1,5.104308128E0,-4.471755624E-1,5.149229263E0
5.916000584E0,3.903627396E-1,5.827288628E0,1.632112265E-2,5.840371752E0
5.935348729E0,7.313804626E-1,5.432159424E0,-5.511230230E-2,5.481451519E0
5.954727391E0,5.908679962E-2,3.740554571E0,-2.821334004E-1,3.751644840E0
5.974106053E0,-7.567787170E-1,2.279564857E0,-3.846772909E-1,2.432510346E0
5.993454197E0,-1.200054169E0,1.199108124E0,-4.741471708E-1,1.761478311E0
6.012832859E0,-1.610390663E0,2.331008911E-1,-4.175487161E-1,1.679893164E0
6.032211522E0,-2.212178230E0,-5.262579918E-1,-4.244206548E-1,2.313182416E0
6.051590184E0,-2.580246925E0,-1.081793308E0,-3.962660730E-1,2.825770295E0
6.070968846E0,-2.538183212E0,-1.330015659E0,-3.059245646E-1,2.881823297E0
6.090347508E0,-2.255055428E0,-1.451248646E0,-1.988935769E-1,2.689043746E0
6.109695652E0,-1.811796188E0,-1.376237392E0,-5.412503332E-2,2.275865617E0
6.129074315E0,-1.496753693E0,-1.465141773E0,9.121824801E-2,2.096481052E0
6.148452977E0,-1.186656952E0,-1.470944881E0,1.612056643E-1,1.896792248E0
6.167801121E0,-8.757734299E-1,-1.495934963E0,1.898561120E-1,1.743802127E0
6.187179783E0,-3.825607300E-1,-1.438003063E0,1.768347025E-1,1.498491253E0
6.206558445E0,2.271299362E-1,-1.166733265E0,1.902721077E-1,1.203768248E0
6.225937108E0,9.329633713E-1,-7.111063004E-1,1.839413047E-1,1.187403565E0
6.245285252E0,1.455189705E0,-2.705731392E-1,-6.627573073E-2,1.481613773E0
6.264663914E0,2.282705307E0,8.425397873E-1,-6.670055985E-1,2.522996885E0
6.284012059E0,3.101412773E0,1.525497437E0,-1.058747172E0,3.614809704E0
6.303390721E0,4.466070175E0,2.839252949E0,-1.302587748E0,5.450126141E0
6.322769383E0,5.707334518E0,4.324573994E0,-1.516519785E0,7.319524560E0
6.342178563E0,4.826252937E0,3.423254967E0,-1.779929161E0,6.178959443E0
6.361526707E0,3.542690277E0,2.181197166E0,-2.297292709E0,4.752455078E0
6.380905369E0,3.229653358E0,1.956966877E0,-2.495842457E0,4.526545012E0
6.400284031E0,3.618532181E0,2.357108593E0,-1.981518865E0,4.751436948E0
6.419632176E0,3.605688095E0,2.402390480E0,-1.382946253E0,4.548077286E0
6.439010838E0,2.884330750E0,2.142219067E0,-1.066073060E0,3.747663028E0
6.458389500E0,1.452861786E0,1.424027443E0,-1.256489038E0,2.391114015E0
6.477737645E0,-1.796903610E-1,6.176891327E-1,-1.525470018E0,1.655562523E0
6.497116307E0,-1.676367760E0,1.955366135E-2,-1.739413738E0,2.415812775E0
6.516494969E0,-2.819272041E0,-2.097325325E-1,-1.817846060E0,3.361078231E0
6.535843113E0,-3.516574860E0,-5.014777184E-2,-1.731187105E0,3.919926318E0
6.555221775E0,-3.900810242E0,2.863690853E-1,-1.560365677E0,4.211065048E0
6.574600438E0,-4.291905403E0,5.969333649E-1,-1.486134887E0,4.580980063E0
6.593948582E0,-4.332537651E0,1.133561850E0,-1.534076095E0,4.733839291E0
6.613327244E0,-4.120299339E0,1.842292309E0,-1.489669800E0,4.752896349E0
6.632736424E0,-3.921280861E0,2.498776197E0,-1.453981638E0,4.871795221E0
6.652084568E0,-3.809379578E0,3.016696692E0,-1.434405208E0,5.066492869E0
6.671463231E0,-3.719291687E0,3.640427589E0,-1.408093572E0,5.391527724E0
6.690841893E0,-3.395452499E0,4.543712139E0,-1.464626789E0,5.858288940E0
6.710190037E0,-3.016322136E0,5.341689110E0,-1.459999681E0,6.305825944E0
6.729568699E0,-2.972615242E0,5.802706242E0,-1.562569618E0,6.704436212E0
6.748947361E0,-2.955636978E0,6.062944889E0,-1.599977970E0,6.932172832E0
6.768295506E0,-2.616029739E0,6.654943466E0,-1.334348202E0,7.274088895E0
6.787674168E0,-2.342421532E0,6.925293446E0,-8.454385996E-1,7.359442531E0
6.807052830E0,-1.524793625E0,7.415516853E0,-6.243579388E-1,7.596361539E0
6.826400975E0,-3.735523224E-1,8.006284714E0,-4.882085919E-1,8.029849556E0
6.845779637E0,-5.744867325E-1,6.371645927E0,-6.643953323E-1,6.431899252E0
6.865158299E0,-7.739753723E-1,4.869272232E0,-8.676891923E-1,5.006169642E0
6.884506443E0,1.355447769E-1,5.511420250E0,-6.036315560E-1,5.546034314E0
6.903885106E0,1.157443047E0,6.699111938E0,-2.861252427E-1,6.804384089E0
6.923294285E0,1.096387863E0,6.416108131E0,-3.863361478E-1,6.520564816E0
6.942642430E0,4.504051208E-1,5.101439476E0,-6.129912138E-1,5.157839444E0
6.962021092E0,-3.808422089E-1,3.694815159E0,-1.007046819E0,3.848485824E0
6.981399754E0,-1.220051765E0,2.640927076E0,-1.218301058E0,3.153930817E0
7.000747899E0,-2.119667053E0,1.702560663E0,-1.199548125E0,2.971635397E0
7.020126561E0,-2.909400940E0,7.837381363E-1,-1.090296268E0,3.204310417E0
7.039505223E0,-3.379079819E0,-1.094388962E-2,-7.613056898E-1,3.463796551E0
7.058853367E0,-3.534235001E0,-6.307497025E-1,-3.507081270E-1,3.607167645E0
7.078232029E0,-3.517375946E0,-1.121326447E0,-1.443649232E-1,3.694610639E0
7.097610691E0,-3.270819664E0,-1.496533394E0,-4.345358163E-2,3.597188025E0
7.116958836E0,-2.851778984E0,-1.640544891E0,-9.286960959E-2,3.291299998E0
7.136337498E0,-2.297244072E0,-1.578140259E0,-1.419162750E-1,2.790698341E0
7.155716160E0,-1.649751663E0,-1.569094658E0,-1.071968824E-1,2.279304668E0
7.175094822E0,-1.024780273E0,-1.717539787E0,-1.182505488E-1,2.003522079E0
7.194473484E0,-1.442642212E-1,-1.579684734E0,-1.474393606E-1,1.593095851E0
7.213852147E0,1.007302284E0,-1.022422314E0,-1.739135534E-1,1.445770107E0
7.233230809E0,2.209380150E0,-2.921214104E-1,-3.209599257E-1,2.251601838E0
7.252578953E0,3.214092255E0,3.568234444E-1,-7.068303823E-1,3.310184463E0
7.271957615E0,4.049987316E0,7.000017166E-1,-1.116361618E0,4.258950919E0
7.291336277E0,4.382120609E0,3.583979607E-1,-1.220300436E0,4.562955543E0
7.310684422E0,5.169492722E0,1.034808159E0,-8.413528204E-1,5.338759921E0
7.330063084E0,5.544437885E0,1.815686703E0,-4.477366507E-1,5.851322737E0
7.349441746E0,4.586084366E0,9.714069366E-1,-4.248018861E-1,4.707043434E0
7.368789891E0,3.801686764E0,6.461553574E-1,-9.117012024E-1,3.962516634E0
7.388168553E0,4.201762199E0,1.412840843E0,-9.851258397E-1,4.541078919E0
7.407577733E0,4.874215603E0,2.459301472E0,-1.030467749E0,5.555898240E0
7.426895359E0,4.979291439E0,3.011427879E0,-1.123761535E0,5.926624764E0
7.446274022E0,4.266726971E0,2.820972919E0,-1.305191517E0,5.278860876E0
7.465652684E0,2.541206360E0,1.950881004E0,-1.579700708E0,3.571991151E0
7.485031346E0,5.702981949E-1,7.388267517E-1,-1.845521927E0,2.068104490E0
7.504410008E0,-1.399370193E0,-1.728758812E-1,-1.908587694E0,2.372936998E0
7.523788670E0,-2.815330505E0,-5.498933792E-1,-1.792389631E0,3.382473824E0
7.543136815E0,-3.652282715E0,-5.064134598E-1,-1.629709959E0,4.031324618E0
7.562515477E0,-4.030690193E0,-1.110961437E-1,-1.501747489E0,4.302795755E0
7.581894139E0,-3.944702148E0,5.605196953E-1,-1.375370622E0,4.215032825E0
7.601242283E0,-3.768811226E0,1.178200483E0,-1.320589066E0,4.163658237E0
7.620620945E0,-3.729434967E0,1.671092987E0,-1.333928466E0,4.298907082E0
7.639999608E0,-3.709510803E0,2.225103140E0,-1.413815141E0,4.550871085E0
7.659347752E0,-3.478124619E0,3.031576157E0,-1.454149604E0,4.837598157E0
7.678726414E0,-3.367710114E0,3.801998615E0,-1.555703640E0,5.311956202E0
7.698105076E0,-3.359471321E0,4.705205441E0,-1.621762156E0,6.004591434E0
7.717453221E0,-3.457942009E0,5.489970684E0,-1.582129598E0,6.678343740E0
7.736831883E0,-3.739186287E0,5.932714939E0,-1.659281492E0,7.206374658E0
7.756210545E0,-3.800091743E0,6.274411201E0,-1.846497059E0,7.564290090E0
7.775589207E0,-3.381197929E0,6.857339382E0,-1.908454418E0,7.880215803E0
7.794967869E0,-2.658180237E0,7.422065735E0,-1.797329307E0,8.085998676E0
7.814346531E0,-1.625151634E0,7.872714996E0,-1.499611855E0,8.177383137E0
7.833694676E0,-3.903465271E-1,8.260467529E0,-1.375733972E0,8.383336936E0
7.853073338E0,-8.714227676E-1,6.856324196E0,-1.309707046E0,7.034478777E0
7.872452000E0,-1.506891251E0,5.619830132E0,-1.272937417E0,5.955970250E0
7.891800145E0,-8.211288452E-1,6.305975914E0,-9.057553411E-1,6.423392993E0
7.911178807E0,4.339065552E-1,7.209326744E0,-6.693347692E-1,7.253321724E0
7.930557469E0,1.255937576E0,6.991031647E0,-5.703983307E-1,7.125816230E0
7.949905613E0,7.369318008E-1,5.463989258E0,-5.315299034E-1,5.539022579E0
7.969284275E0,-3.339080811E-1,3.382210732E0,-7.463130951E-1,3.479630336E0
7.988662938E0,-1.359244347E0,1.596585035E0,-8.539714217E-1,2.264044204E0
8.008041600E0,-2.055416107E0,3.076839447E-1,-7.912040353E-1,2.223827468E0
8.027389744E0,-2.261035919E0,-6.729812622E-1,-4.657464325E-1,2.404601203E0
8.046768406E0,-2.319817543E0,-9.921507835E-1,-1.673099399E-1,2.528618047E0
8.066177586E0,-2.313158035E0,-1.442926407E0,1.456787288E-1,2.730193950E0
8.085525731E0,-2.231649399E0,-1.879520893E0,3.271673620E-1,2.935965993E0
8.104904393E0,-2.076813698E0,-2.180467606E0,3.650249839E-1,3.033288208E0
8.124283055E0,-1.756434441E0,-2.410552025E0,2.497394085E-1,2.993024019E0
8.143631199E0,-1.507074356E0,-2.650323868E0,1.902237982E-1,3.054779012E0
8.163009861E0,-1.194824219E0,-2.690083981E0,9.956511855E-2,2.945177405E0
8.182388524E0,-3.527207375E-1,-2.188276291E0,1.989753246E-1,2.225433941E0
8.201736668E0,8.500080109E-1,-1.478060246E0,7.093982399E-2,1.706519313E0
8.221115330E0,2.198702335E0,-8.480663300E-1,-1.066007614E-1,2.358998131E0
8.240493992E0,3.342618465E0,-2.920384407E-1,-3.221701384E-1,3.370783033E0
8.259842137E0,4.123261929E0,2.852373123E-1,-8.462942839E-1,4.218869904E0
8.279220799E0,4.415278912E0,1.467099190E-1,-1.261163235E0,4.594207698E0
8.298599461E0,4.893122196E0,9.051213264E-1,-1.137863755E0,5.104568872E0
8.317947606E0,5.697689056E0,2.859673500E0,-1.037678957E0,6.458960499E0
8.337326268E0,4.893795490E0,2.411897659E0,-1.086804509E0,5.563059290E0
8.356735447E0,3.285907269E0,8.116912842E-1,-1.626701117E0,3.755287717E0
8.376083592E0,3.677203178E0,1.594492912E0,-1.821568608E0,4.402538252E0
8.395462254E0,4.948821545E0,3.281722069E0,-9.101824164E-1,6.007409296E0
8.414840916E0,5.356083393E0,4.027836323E0,-6.840212941E-1,6.736392201E0
8.434189061E0,4.806162834E0,3.657070160E0,-7.640341520E-1,6.087455259E0
8.453567723E0,2.660564423E0,2.118840694E0,-1.145520091E0,3.588914211E0
8.472946385E0,3.194665909E-1,6.312327385E-1,-1.409987211E0,1.577522617E0
8.492294529E0,-1.781844139E0,-4.417724609E-1,-1.362944484E0,2.286427149E0
8.511673191E0,-3.169073105E0,-9.201540947E-1,-1.195220709E0,3.509737945E0
8.531051854E0,-3.823608398E0,-7.950358391E-1,-8.825344443E-1,4.003864410E0
8.550399998E0,-4.078235626E0,-4.834346771E-1,-5.798282623E-1,4.147519225E0
8.569778660E0,-4.263521194E0,-1.081690788E-1,-3.640164733E-1,4.280399691E0
8.589157322E0,-4.444013596E0,1.502094269E-1,-5.367181301E-1,4.478826416E0
8.608505467E0,-4.482609749E0,4.667148590E-1,-7.981625795E-1,4.576972408E0
8.627914647E0,-4.319735527E0,9.648642540E-1,-1.068648338E0,4.553360004E0
8.647293309E0,-3.956133842E0,1.788336277E0,-1.315527916E0,4.536491521E0
8.666641453E0,-3.708551407E0,2.644417763E0,-1.402680874E0,4.765901014E0
8.686020115E0,-3.662343025E0,3.428297520E0,-1.448882222E0,5.221612779E0
8.705398777E0,-3.474211693E0,4.429584503E0,-1.442421794E0,5.811363557E0
8.724746922E0,-3.051186562E0,5.573222160E0,-1.458226800E0,6.518970017E0
8.744125584E0,-2.740861893E0,6.273115635E0,-1.582644343E0,7.026312461E0
8.763504246E0,-2.365327835E0,6.908664703E0,-1.636380076E0,7.483459327E0
8.782852391E0,-2.278325081E0,7.092309952E0,-1.414318562E0,7.582342819E0
8.802231053E0,-1.604955673E0,7.494460106E0,-1.149391651E0,7.750091365E0
8.821640233E0,-7.983198166E-1,7.720568180E0,-7.516862750E-1,7.798045897E0
8.840957859E0,-1.534605026E0,5.735591888E0,-6.989805698E-1,5.978344314E0
8.860336522E0,-2.133939743E0,4.090967178E0,-9.352210760E-1,4.707902903E0
8.879715184E0,-1.110257149E0,4.307287216E0,-7.074245811E-1,4.503980866E0
8.899093846E0,8.760547638E-1,5.789206028E0,-2.661316991E-1,5.861160676E0
8.918472508E0,2.123718262E0,6.282581329E0,-1.575277150E-1,6.633688446E0
8.937851170E0,1.679602623E0,4.905200958E0,-2.065545321E-1,5.188904141E0
8.957229832E0,4.650983810E-1,3.134642124E0,-1.604087353E-1,3.173015713E0
8.976577977E0,-9.680099487E-1,1.562436581E0,-2.788790464E-1,1.859038690E0
8.995956639E0,-2.140559196E0,2.621550560E-1,5.516102910E-2,2.157257909E0
9.015335301E0,-3.007966042E0,-8.306994438E-1,1.616479009E-1,3.124748201E0
9.034683445E0,-3.196451187E0,-1.443823338E0,4.922456741E-1,3.541783707E0
9.054062108E0,-3.068208694E0,-1.907666683E0,7.874217033E-1,3.697719528E0
9.073440770E0,-2.788453102E0,-2.172946930E0,8.725079894E-1,3.641213981E0
9.092788914E0,-2.423888206E0,-2.324231148E0,8.007454276E-1,3.452314833E0
9.112167576E0,-1.883770943E0,-2.261183739E0,7.386614084E-1,3.034331152E0
9.131546238E0,-1.326148987E0,-2.134337902E0,5.415883064E-1,2.570483867E0
9.150894383E0,-8.381004333E-1,-1.878385544E0,3.101204336E-1,2.080124821E0
9.170273045E0,-2.991566658E-1,-1.706580639E0,9.331092238E-2,1.735113574E0
9.189651707E0,2.858219147E-1,-1.460618973E0,-8.560875058E-2,1.490781945E0
9.209030369E0,1.093869209E0,-9.460182190E-1,-1.848229766E-1,1.457964283E0
9.228409031E0,1.908013344E0,-5.434074402E-1,-2.378683686E-1,1.998096076E0
9.247787693E0,2.837255955E0,-2.484655380E-2,-3.327881992E-1,2.856814080E0
9.267135838E0,4.140408516E0,9.287447929E-1,-6.514802575E-1,4.293014803E0
9.286514500E0,5.042737007E0,1.260690212E0,-8.449792862E-1,5.266168088E0
9.305893162E0,6.090014935E0,1.968803406E0,-7.744741440E-1,6.447036447E0
9.325241307E0,6.421988964E0,1.859606266E0,-5.508908033E-1,6.708469154E0
9.344619969E0,5.372797966E0,6.027030945E-1,-8.217962980E-1,5.468597458E0
9.363998631E0,4.660815716E0,3.471488953E-1,-1.063878059E0,4.793281967E0
9.383346775E0,4.460793018E0,1.129356384E0,-9.045799971E-1,4.689603946E0
9.402725438E0,4.276446819E0,2.077523232E0,-7.875195742E-1,4.819158356E0
9.422104100E0,3.526872635E0,2.293475628E0,-1.015860796E0,4.327913377E0
9.441452244E0,2.475107670E0,1.895156860E0,-1.286564469E0,3.372391679E0
9.460830906E0,1.349731922E0,1.075211048E0,-1.542413473E0,2.314496572E0
9.480209568E0,1.713562012E-1,9.029388428E-3,-1.731242537E0,1.739725611E0
9.499588231E0,-9.168262482E-1,-7.395324707E-1,-1.845777392E0,2.189605633E0
9.518966893E0,-1.745141029E0,-9.701914787E-1,-1.928348541E0,2.775845243E0
9.538345555E0,-2.342677116E0,-6.857361794E-1,-2.018939018E0,3.167725515E0
9.557693699E0,-2.698838234E0,1.280307770E-2,-2.076533079E0,3.405272582E0
9.577072361E0,-2.951004982E0,8.723435402E-1,-2.091718912E0,3.720846901E0
9.596451024E0,-3.117823601E0,1.687524796E0,-2.129354000E0,4.135542576E0
9.615799168E0,-3.276946068E0,2.339374304E0,-2.170640945E0,4.574137053E0
9.635177830E0,-3.560894012E0,2.872862816E0,-2.302107334E0,5.121816582E0
9.654556492E0,-3.745262146E0,3.519599438E0,-2.310531616E0,5.634991135E0
9.673904637E0,-3.817365646E0,4.475026131E0,-2.189476013E0,6.276300229E0
9.693283299E0,-3.780234337E0,5.462205887E0,-1.843816042E0,6.893875716E0
9.712661961E0,-3.842798233E0,6.226751804E0,-1.663271666E0,7.503732999E0
9.732010106E0,-3.818009377E0,6.839686394E0,-1.578604937E0,7.990650731E0
9.751388768E0,-3.813623428E0,7.320228100E0,-1.561018944E0,8.400371613E0
9.770797947E0,-3.529018402E0,7.513184071E0,-1.193352461E0,8.386059614E0
9.790176609E0,-2.833927155E0,7.961464882E0,-6.405609250E-1,8.475044807E0
9.809524754E0,-1.576694489E0,8.592146873E0,-2.609467506E-1,8.739510662E0
9.828903416E0,-1.605422020E0,7.262177944E0,-4.791051149E-1,7.452928959E0
9.848282078E0,-1.931241035E0,5.377381325E0,-9.258345962E-1,5.788185514E0
9.867630223E0,-9.919710159E-1,5.167578697E0,-7.096245289E-1,5.309561475E0
9.887008885E0,7.694931030E-1,6.324306488E0,-1.184764504E-1,6.372049031E0
9.906357029E0,1.866502762E0,6.907494545E0,9.113276005E-2,7.155810131E0
9.925735691E0,1.575798035E0,5.757296562E0,1.841242909E-1,5.971892908E0
9.945114354E0,6.092281342E-1,3.812970877E0,1.702171564E-1,3.865084696E0
9.964493016E0,-4.568920135E-1,2.024044991E0,-3.071013093E-2,2.075199159E0
9.983841160E0,-1.408805847E0,7.601206303E-1,-2.794437110E-1,1.624994177E0
1.000321982E1,-1.894705772E0,-3.108148575E-1,-2.876850963E-1,1.941462993E0
1.002259848E1,-2.124964714E0,-1.019662857E0,-1.547799110E-1,2.362021211E0
1.004194663E1,-2.080640793E0,-1.653689861E0,1.534283161E-1,2.662197685E0
1.006135581E1,-2.007660866E0,-2.092759609E0,3.372649550E-1,2.919604868E0
1.008073447E1,-1.753898621E0,-2.281525135E0,4.279153645E-1,2.909403525E0
1.010008262E1,-1.353112221E0,-2.243390083E0,4.053712487E-1,2.651044624E0
1.011946128E1,-8.032736778E-1,-2.121623516E0,1.975483298E-1,2.277182533E0
1.013883994E1,-1.648693085E-1,-1.976107121E0,-2.225643396E-2,1.983097726E0
1.015818808E1,5.037283897E-1,-1.922192574E0,-1.744307131E-1,1.994741250E0
1.017756675E1,1.327410698E0,-1.720740318E0,-2.740027905E-1,2.190443775E0
1.019694541E1,2.288578510E0,-1.352004528E0,-2.437428683E-1,2.669254283E0
1.021629355E1,3.272729397E0,-1.065036297E0,-2.890623808E-1,3.453783010E0
1.023570273E1,4.241519928E0,-6.336197853E-1,-5.339428782E-1,4.321696464E0
1.025505088E1,5.193577290E0,-2.546162605E-1,-7.376828194E-1,5.251880658E0
1.027439902E1,5.573070049E0,-4.676795006E-1,-7.667388320E-1,5.644973191E0
1.029377768E1,5.998414993E0,1.153683662E-1,-4.474290311E-1,6.016185256E0
1.031315635E1,6.541443348E0,1.211946011E0,-2.296444029E-1,6.656728232E0
1.033250449E1,5.882572651E0,8.886609077E-1,-4.423426986E-1,5.965739373E0
1.035191367E1,4.466238499E0,4.043388367E-2,-1.032026172E0,4.584102883E0
1.037129233E1,4.207766056E0,5.751500130E-1,-1.147829056E0,4.399273151E0
1.039064048E1,4.349781990E0,1.268857479E0,-9.346836209E-1,4.626471240E0
1.041001914E1,4.273499489E0,1.992452145E0,-7.827126980E-1,4.779675993E0
1.042939780E1,3.613540173E0,2.606176853E0,-7.269069552E-1,4.514224639E0
1.044874594E1,1.745877743E0,2.130125523E0,-1.120911837E0,2.973544548E0
1.046812461E1,-3.410406113E-1,1.096862316E0,-1.325752378E0,1.754147943E0
1.048750327E1,-2.213724136E0,-4.543018341E-2,-1.687335014E0,2.783835107E0
1.050685141E1,-3.333194733E0,-5.274205208E-1,-1.764308333E0,3.808036689E0
1.052623008E1,-3.763242722E0,-5.461668968E-1,-1.585417509E0,4.119932371E0
1.054560874E1,-3.759236336E0,-2.505683899E-1,-1.367606759E0,4.008115591E0
1.056495688E1,-3.581672668E0,2.482638359E-1,-1.282030344E0,3.812297974E0
1.058433554E1,-3.548648834E0,8.914837837E-1,-1.216593742E0,3.855872433E0
1.060371421E1,-3.680018425E0,1.300130367E0,-1.225993514E0,4.090957672E0
1.062309287E1,-3.688629150E0,1.553021908E0,-1.254757404E0,4.194314986E0
1.064247153E1,-3.620396614E0,1.932454586E0,-1.269220352E0,4.295645781E0
1.066185019E1,-3.465246201E0,2.545425177E0,-1.262560487E0,4.481202913E0
1.068119834E1,-3.182750702E0,3.447456360E0,-1.191229820E0,4.840855902E0
1.070057700E1,-3.044848442E0,4.331912994E0,-1.117226124E0,5.411540117E0
1.071995566E1,-3.067114830E0,5.119340897E0,-1.093505621E0,6.067173901E0
1.073930381E1,-3.171010017E0,5.627936363E0,-1.272065163E0,6.583853128E0
1.075868247E1,-2.911511421E0,6.260674477E0,-1.230225444E0,7.013301526E0
1.077806113E1,-2.487452507E0,6.684921265E0,-1.005543709E0,7.203243050E0
1.079743979E1,-1.319625854E0,7.697134018E0,-6.695104837E-1,7.838081958E0
1.081678794E1,-5.675086975E-1,7.543135643E0,-4.992570281E-1,7.580911491E0
1.083616660E1,-1.239027977E0,5.582702637E0,-6.799139977E-1,5.758822979E0
1.085554526E1,-1.317667007E0,4.668660641E0,-6.426017880E-1,4.893421664E0
1.087489341E1,-6.720352173E-2,5.627876759E0,1.024377942E-1,5.629210124E0
1.089427207E1,1.212042809E0,6.657257080E0,5.377731323E-1,6.788027662E0
1.091365073E1,1.185451508E0,6.299767971E0,4.072586298E-1,6.423257068E0
1.093302939E1,1.153373718E-1,4.570093155E0,1.852840483E-1,4.575301556E0
1.095240806E1,-1.050161362E0,2.843123913E0,-2.942359447E-1,3.045121879E0
1.097178672E1,-1.867269516E0,1.421930790E0,-6.241235137E-1,2.428603051E0
1.099113486E1,-2.387134552E0,3.555235863E-1,-9.102953672E-1,2.579427465E0
1.101051352E1,-2.448414803E0,-5.777163506E-1,-8.532074690E-1,2.656398730E0
1.102989219E1,-2.345449448E0,-1.101136208E0,-6.991578341E-1,2.683739133E0
1.104924033E1,-2.091774940E0,-1.653273106E0,-4.598507881E-1,2.705604759E0
1.106861899E1,-1.867920876E0,-2.173986912E0,-2.001125813E-1,2.873219890E0
1.108799765E1,-1.549865246E0,-2.622405529E0,4.104169831E-2,3.046436847E0
1.110734580E1,-1.285354614E0,-2.781507492E0,1.304278672E-1,3.066909167E0
1.112672446E1,-9.503264427E-1,-2.926550865E0,2.709004283E-1,3.088884484E0
1.114610312E1,-6.879472733E-1,-2.997052670E0,3.364663124E-1,3.093348628E0
1.116545127E1,-2.613272667E-1,-2.847691536E0,3.338913321E-1,2.879083612E0
1.118482993E1,3.395504951E-1,-2.419721603E0,3.636871576E-1,2.470347248E0
1.120420859E1,9.963860512E-1,-1.878204346E0,3.295397758E-1,2.151518810E0
1.122358725E1,1.921716213E0,-1.161195278E0,1.667926759E-1,2.251485615E0
1.124296592E1,3.309991837E0,1.202487946E-1,5.002439022E-2,3.312553120E0
1.126234458E1,5.033985138E0,1.283504963E0,-1.678744704E-1,5.197746935E0
1.128169272E1,6.469034672E0,2.101922035E0,-5.425859094E-1,6.823553715E0
1.130107138E1,7.462797165E0,2.505874634E0,-6.227352023E-1,7.896869528E0
1.132047459E1,6.667490482E0,1.000113964E0,-5.352420807E-1,6.763293677E0
1.133982274E1,5.283974648E0,-2.745437622E-2,-8.496127129E-1,5.351914011E0
1.135920140E1,4.572653770E0,4.931006432E-1,-9.328124523E-1,4.692808308E0
1.137858006E1,4.364317894E0,1.555777550E0,-6.683226228E-1,4.681278628E0
1.139792820E1,3.965850353E0,2.318654537E0,-5.322561264E-1,4.624653984E0
1.141730687E1,3.013727188E0,2.325126171E0,-7.549728155E-1,3.880560169E0
1.143668553E1,1.871141911E0,2.025567532E0,-1.065902710E0,2.956390445E0
1.145603367E1,7.413582802E-1,1.263429642E0,-1.442910671E0,2.056175519E0
1.147541234E1,-4.503774643E-1,3.270454407E-1,-1.695600390E0,1.784617400E0
1.149482152E1,-1.550994396E0,-4.076743126E-1,-1.802275658E0,2.412463369E0
1.151416966E1,-2.620182037E0,-9.079923630E-1,-1.732369423E0,3.269695377E0
1.153354832E1,-3.433439255E0,-1.048683643E0,-1.599439621E0,3.930197145E0
1.155292698E1,-4.080492973E0,-8.360738754E-1,-1.403147697E0,4.395254929E0
1.157227513E1,-4.497075081E0,-4.414763451E-1,-1.189701438E0,4.672683935E0
1.159165379E1,-4.505565643E0,1.459226608E-1,-1.200281739E0,4.664985685E0
1.161103245E1,-4.357721329E0,7.852501869E-1,-1.262569904E0,4.604393098E0
1.163038060E1,-4.035925865E0,1.598591566E0,-1.271268964E0,4.523308232E0
1.164978978E1,-3.892608643E0,2.257215261E0,-1.276768446E0,4.677345449E0
1.166913792E1,-3.921707153E0,2.682677269E0,-1.356582642E0,4.941342003E0
1.168848607E1,-3.734758377E0,3.318270683E0,-1.432112694E0,5.197142218E0
1.170786473E1,-3.168569565E0,4.320234776E0,-1.565988302E0,5.581808037E0
1.172724339E1,-2.513734818E0,5.201685905E0,-1.541722059E0,5.979406818E0
1.174659153E1,-2.005610466E0,5.839076042E0,-1.554758549E0,6.366675468E0
1.176597020E1,-1.698636055E0,6.199315071E0,-1.232160687E0,6.544852310E0
1.178537938E1,-1.316437721E0,6.646483421E0,-8.596349359E-1,6.829913789E0
1.180472752E1,-3.223733902E-1,7.628672600E0,-6.197882891E-1,7.660594478E0
1.182410618E1,-3.822088242E-1,6.773818970E0,-7.115637064E-1,6.821805474E0
1.184348484E1,-1.155062675E0,4.636520386E0,-9.222698808E-1,4.866422999E0
1.186286351E1,-1.104094505E0,3.553690434E0,-1.018146515E0,3.858025752E0
1.188221165E1,2.290906906E-1,4.054510117E0,-4.359526634E-1,4.084310169E0
1.190159031E1,1.466316223E0,4.834118843E0,1.413156986E-1,5.053588664E0
1.192096898E1,1.433390617E0,4.289061546E0,3.775972724E-1,4.537977227E0
1.194031712E1,2.767095566E-1,2.765223026E0,5.196335316E-1,2.827197476E0
1.195969578E1,-1.158313751E0,1.363337517E0,1.306377947E-1,1.793724105E0
1.197907444E1,-2.259325981E0,2.852067947E-1,-1.080835462E-1,2.279819918E0
1.199842259E1,-2.998236656E0,-6.090083122E-1,-2.282683998E-1,3.067966857E0
1.201780125E1,-3.482378960E0,-1.282766342E0,-3.128595948E-1,3.724289709E0
1.203717991E1,-3.597411156E0,-1.703263283E0,-3.122762442E-1,3.992491614E0
1.205655858E1,-3.286762238E0,-2.003738880E0,-2.056529820E-1,3.854875958E0
1.207593724E1,-2.701546669E0,-2.177593708E0,-8.007794619E-2,3.470832932E0
1.209531590E1,-1.970469475E0,-2.086753368E0,6.224021316E-3,2.870074617E0
1.211466404E1,-1.164615154E0,-1.952892780E0,8.457636088E-2,2.275361912E0
1.213404271E1,-3.946571350E-1,-1.838616371E0,9.730474651E-2,1.883011585E0
1.215342137E1,3.323125839E-1,-1.916075230E0,4.251312092E-2,1.945143518E0
1.217276951E1,1.053709984E0,-2.153987885E0,1.077101082E-1,2.400327062E0
1.219214818E1,1.783857822E0,-2.182584763E0,3.848431110E-1,2.844983163E0
1.221152684E1,2.579224586E0,-1.831106663E0,6.442261338E-1,3.228061088E0
1.223087498E1,3.361324310E0,-1.310117245E0,7.768077850E-1,3.690303327E0
1.225025364E1,4.741760254E0,1.949391365E-1,4.965916872E-1,4.771676317E0
1.226963231E1,5.913198948E0,1.194368839E0,2.025547624E-2,6.032648590E0
1.228898045E1,6.389536381E0,1.685435772E0,-4.390232265E-1,6.622658854E0
1.230835911E1,6.344424725E0,1.707421780E0,-6.219252348E-1,6.599530682E0
1.232773778E1,5.321933746E0,9.996809959E-1,-1.179345250E0,5.541948765E0
1.234711644E1,4.253915310E0,8.657484055E-1,-1.562485218E0,4.613748565E0
1.236649510E1,3.837275028E0,1.419562340E0,-1.707389832E0,4.433397897E0
1.238587376E1,3.950014591E0,2.078905582E0,-1.008888721E0,4.576277979E0
1.240522191E1,3.545702457E0,2.216268539E0,-5.953949690E-1,4.223546771E0
1.242460057E1,2.429799080E0,1.697802067E0,-4.280560315E-1,2.994943638E0
1.244397923E1,1.011536598E0,7.040290833E-1,-5.198674202E-1,1.337581913E0
1.246332737E1,-2.126822472E-1,-2.435998917E-1,-7.203297615E-1,7.895882540E-1
1.248270604E1,-1.338780880E0,-9.951143265E-1,-8.474387527E-1,1.871026244E0
1.250208470E1,-2.232451439E0,-1.349918365E0,-9.252153635E-1,2.768057530E0
1.252143284E1,-3.111592770E0,-1.492826939E0,-1.050304174E0,3.607447947E0
1.254081150E1,-3.799588203E0,-1.356809139E0,-1.176928043E0,4.202732584E0
1.256019017E1,-4.295616150E0,-1.086317539E0,-1.426001787E0,4.654662716E0
1.257953831E1,-4.414686203E0,-5.509309769E-1,-1.530748010E0,4.704908998E0
1.259891697E1,-4.125339508E0,3.350224495E-1,-1.354679704E0,4.354976831E0
1.261829564E1,-3.860391617E0,9.866089821E-1,-1.352866769E0,4.207881796E0
1.263767430E1,-3.572779655E0,1.491669655E0,-1.552524924E0,4.171350676E0
1.265705296E1,-3.266061783E0,2.191738129E0,-1.787181854E0,4.320288714E0
1.267643162E1,-2.905465126E0,2.950117350E0,-1.861434817E0,4.539808317E0
1.269577977E1,-2.508939743E0,3.575245142E0,-1.828959465E0,4.735213742E0
1.271515843E1,-2.080947876E0,3.940738440E0,-1.690798521E0,4.766399391E0
1.273453709E1,-1.699647903E0,4.523584366E0,-1.329091668E0,5.011796402E0
1.275388524E1,-1.390498161E0,5.524995804E0,-8.943710327E-1,5.767058463E0
1.277326390E1,-1.026627541E0,6.380660057E0,-5.614565611E-1,6.487065619E0
1.279264256E1,2.361030579E-1,7.765482426E0,-3.615443707E-1,7.777478787E0
1.281199070E1,3.209991455E-1,6.954798698E0,-5.116620064E-1,6.980978685E0
1.283136937E1,-7.336664200E-1,4.548998833E0,-7.331952453E-1,4.665750965E0
1.285074803E1,-1.167475700E0,3.342594147E0,-6.151307821E-1,3.593650097E0
1.287009617E1,-3.081340790E-1,4.064079285E0,-9.417188168E-2,4.076831538E0
1.288947484E1,5.479240417E-1,5.055377960E0,3.847909570E-1,5.099522640E0
1.290885350E1,3.106193542E-1,4.474339008E0,4.707600474E-1,4.509745998E0
1.292823216E1,-7.155876160E-1,2.730160713E0,4.737820029E-1,2.861872209E0
1.294761082E1,-1.672857285E0,1.225838661E0,3.082923591E-1,2.096706011E0
1.296698948E1,-2.232279778E0,1.151123047E-1,2.194038630E-1,2.245987957E0
1.298633763E1,-2.518587112E0,-7.594809532E-1,2.496280372E-1,2.642424364E0
1.300571629E1,-2.594246864E0,-1.388425827E0,3.853732944E-1,2.967550445E0
1.302509495E1,-2.553621292E0,-1.994658947E0,4.648296237E-1,3.273486306E0
1.304447361E1,-2.423498154E0,-2.372165203E0,5.027266741E-1,3.428300623E0
1.306385228E1,-2.208681107E0,-2.534393787E0,3.857074082E-1,3.383813574E0
1.308320042E1,-1.884037018E0,-2.384518623E0,1.161665767E-1,3.041220022E0
1.310257908E1,-1.434489250E0,-2.168735504E0,-1.454186589E-1,2.604288709E0
1.312192723E1,-9.730176926E-1,-2.042350769E0,-2.922255993E-1,2.281086560E0
1.314130589E1,-5.050883293E-1,-2.072085857E0,-3.336046338E-1,2.158690824E0
1.316068455E1,-5.720806122E-2,-2.242678642E0,-3.726804852E-1,2.274152809E0
1.318003270E1,5.532231331E-1,-2.127888680E0,-2.488025129E-1,2.212661013E0
1.319941136E1,1.448739052E0,-1.818709373E0,9.973227978E-3,2.325220009E0
1.321882054E1,2.457239151E0,-1.251852989E0,1.949185133E-1,2.764625360E0
1.323816868E1,3.622065067E0,-1.143288612E-1,-5.379968882E-2,3.624268319E0
1.325754734E1,4.544309139E0,8.671755791E-1,-6.328024864E-1,4.669387329E0
1.327692601E1,4.386068344E0,4.104785919E-1,-9.641258121E-1,4.509504050E0
1.329627415E1,4.842489243E0,1.294370651E0,-9.565064907E-1,5.102940536E0
1.331565281E1,4.864283085E0,1.911713123E0,-9.147463441E-1,5.305907827E0
1.333503148E1,4.083347797E0,1.334266663E0,-1.226617813E0,4.467503556E0
1.335437962E1,3.608544350E0,1.390338898E0,-1.495063782E0,4.146064433E0
1.337375828E1,3.979671001E0,2.095929146E0,-1.240171671E0,4.665696737E0
1.339313694E1,4.284283161E0,2.566919804E0,-5.566929579E-1,5.025342429E0
1.341248509E1,4.000359535E0,2.404086590E0,-1.390529275E-1,4.669244528E0
1.343186375E1,2.868421555E0,1.849134922E0,-2.685703635E-1,3.423342258E0
1.345124241E1,1.410149097E0,6.374907494E-1,-4.780215025E-1,1.619697345E0
1.347059056E1,-1.209421158E-1,-7.299370766E-1,-5.632272363E-1,9.298709861E-1
1.348999974E1,-1.366223812E0,-1.894761086E0,-3.578670919E-1,2.363208821E0
1.350937840E1,-2.262741089E0,-2.600439072E0,-2.766525149E-1,3.458152283E0
1.352872654E1,-2.765378475E0,-2.592582226E0,-3.878134191E-1,3.810406797E0
1.354810521E1,-2.990556717E0,-2.015836716E0,-5.564285517E-1,3.649197155E0
1.356748387E1,-3.073387146E0,-1.183291435E0,-6.522150040E-1,3.357271449E0
1.358683201E1,-3.067749023E0,-3.658423424E-1,-8.459509015E-1,3.203210517E0
1.360621068E1,-3.171398163E0,2.440624237E-1,-1.109417081E0,3.368699903E0
1.362558934E1,-3.239945412E0,7.904992104E-1,-1.372251987E0,3.606273810E0
1.364493748E1,-3.318331718E0,1.305187225E0,-1.549808979E0,3.888026101E0
1.366431614E1,-3.262183189E0,1.945329905E0,-1.593673468E0,4.118973503E0
1.368369481E1,-3.286128998E0,2.533899069E0,-1.607272863E0,4.450012847E0
1.370304295E1,-3.182399750E0,3.374241352E0,-1.538976192E0,4.886882502E0
1.372242161E1,-2.899437904E0,4.242283344E0,-1.417112350E0,5.330282877E0
1.374180028E1,-2.583326340E0,5.009024143E0,-1.327836990E0,5.790254651E0
1.376114842E1,-2.093485832E0,5.741197586E0,-1.020876050E0,6.195661430E0
1.378055760E1,-1.553165436E0,6.408372402E0,-5.511142612E-1,6.616894033E0
1.379993626E1,-5.835103989E-1,7.351780415E0,-2.168474197E-1,7.378087994E0
1.381928441E1,-5.850934982E-1,6.753241062E0,-1.838491559E-1,6.781032352E0
1.383866307E1,-1.658041954E0,4.779034615E0,-2.451633811E-1,5.064422973E0
1.385804173E1,-1.592700005E0,3.796947956E0,2.066579461E-2,4.117515533E0
1.387738987E1,4.884719849E-2,4.400054932E0,7.090890408E-1,4.457092855E0
1.389676854E1,1.161993027E0,4.819580078E0,1.407000065E0,5.153467678E0
1.391614720E1,8.923063278E-1,3.895982265E0,1.574484825E0,4.295799211E0
1.393549534E1,1.643857956E-1,2.679540157E0,1.587387562E0,3.118774986E0
1.395487400E1,-7.379522324E-1,1.630519867E0,9.532685876E-1,2.027779459E0
1.397425267E1,-1.348014832E0,7.968783379E-1,5.081912875E-1,1.646334552E0
1.399360081E1,-2.000851631E0,-1.748089790E-1,1.140844673E-1,2.011710887E0
1.401297947E1,-2.453774452E0,-8.600268364E-1,-1.626829058E-1,2.605210346E0
1.403235814E1,-2.537134171E0,-1.375410080E0,-2.546063662E-1,2.897175709E0
1.405170628E1,-2.482526779E0,-1.959883213E0,-1.576189399E-1,3.166847825E0
1.407111546E1,-2.372647285E0,-2.514234066E0,-1.023280472E-1,3.458511112E0
1.409049412E1,-2.094924927E0,-2.802281857E0,-6.246994436E-2,3.499342302E0
1.410984227E1,-1.547073364E0,-2.798572540E0,-7.244354486E-2,3.198545345E0
1.412922093E1,-8.161649704E-1,-2.518171310E0,-7.918380201E-2,2.648316839E0
1.414859959E1,1.708769798E-1,-2.156323433E0,1.204559803E-1,2.166434705E0
1.416794774E1,5.174479485E-1,-2.091689110E0,-2.907919884E-2,2.154938818E0
1.418732640E1,8.612623215E-1,-1.849548340E0,-3.091706038E-1,2.063537814E0
1.420670506E1,1.282188892E0,-1.530408382E0,-6.741142273E-1,2.107270311E0
1.422605320E1,1.963085651E0,-9.926052094E-1,-7.967126369E-1,2.339598556E0
1.424543187E1,2.918810844E0,-3.958625793E-1,-8.735213280E-1,3.072328667E0
1.426481053E1,4.275787354E0,2.961950302E-1,-7.574014664E-1,4.352441380E0
1.428418919E1,5.464230537E0,1.111996651E0,-6.731606722E-1,5.616715874E0
1.430353734E1,6.662431240E0,2.594663620E0,-8.121925592E-1,7.195826991E0
1.432291600E1,6.976071835E0,2.748688698E0,-9.342302084E-1,7.556034269E0
1.434229466E1,5.885416985E0,1.224419594E0,-1.170045137E0,6.124242161E0
1.436167332E1,4.641830921E0,2.668137550E-1,-1.242931604E0,4.812760419E0
1.438105198E1,4.278945446E0,6.513886452E-1,-7.587174773E-1,4.394238672E0
1.440043065E1,4.236355305E0,1.409913540E0,-2.161310911E-1,4.470041958E0
1.441977879E1,3.544164181E0,1.541511536E0,-8.787196875E-2,3.865886578E0
1.443915745E1,2.408783436E0,1.194642067E0,-2.574367225E-1,2.701051828E0
1.445853611E1,1.364192486E0,8.692474365E-1,-4.671077728E-1,1.683687001E0
1.447791478E1,3.442630768E-1,2.486333847E-1,-7.060359716E-1,8.239068025E-1
1.449726292E1,-8.848032951E-1,-7.010493279E-1,-8.842977285E-1,1.433990761E0
1.451664158E1,-1.920719147E0,-1.424788952E0,-1.006175637E0,2.594527898E0
1.453598973E1,-2.681166172E0,-1.666658878E0,-9.853208065E-1,3.307152998E0
1.455536839E1,-3.155216694E0,-1.641362190E0,-9.479866028E-1,3.680779921E0
1.457474705E1,-3.415986538E0,-1.458170414E0,-1.005270362E0,3.847829711E0
1.459409520E1,-3.546413422E0,-1.109699249E0,-1.041760325E0,3.859241526E0
1.461347386E1,-3.657030106E0,-7.958068848E-1,-1.088452101E0,3.897679536E0
1.463285252E1,-3.645427704E0,-1.282191277E-1,-1.122788668E0,3.816574076E0
1.465223118E1,-3.588847160E0,6.955504417E-1,-1.109028101E0,3.820151527E0
1.467160984E1,-3.524960518E0,1.590249538E0,-1.042649865E0,4.005166537E0
1.469098851E1,-3.448774338E0,2.478464127E0,-9.940264821E-1,4.361756241E0
1.471033665E1,-3.229443550E0,3.521785021E0,-9.470934272E-1,4.871268966E0
1.472971531E1,-2.993388176E0,4.325206757E0,-1.002199769E0,5.354641971E0
1.474909398E1,-2.815902710E0,4.921741486E0,-1.198718309E0,5.795668461E0
1.476844212E1,-2.412550926E0,5.625992775E0,-1.197908163E0,6.237562075E0
1.478782078E1,-1.995524406E0,6.197455406E0,-9.567760825E-1,6.580728808E0
1.480719944E1,-1.151666641E0,7.164133549E0,-5.504371524E-1,7.276958610E0
1.482654759E1,-5.984363556E-1,7.124601364E0,-3.090720177E-1,7.156367527E0
1.484592625E1,-1.202913284E0,4.875577927E0,-4.292082787E-1,5.040087324E0
1.486530491E1,-1.190984726E0,3.455615044E0,-3.178842664E-1,3.668892252E0
1.488465306E1,-3.152666092E-1,3.495077610E0,2.676687241E-1,3.519461192E0
1.490403172E1,4.318523407E-1,3.907622814E0,7.238948345E-1,3.997503750E0
1.492341038E1,4.780664444E-1,3.811915874E0,9.002605677E-1,3.945848356E0
1.494278904E1,-1.634054184E-1,2.710436821E0,7.432401180E-1,2.815239770E0
1.496216771E1,-6.962604523E-1,1.505143166E0,1.955004930E-1,1.669866764E0
1.498154637E1,-8.159208298E-1,5.157942772E-1,-1.434263885E-1,9.758799443E-1
1.500089451E1,-9.245834351E-1,-5.152482986E-1,-2.440297157E-1,1.086225501E0
1.502027318E1,-1.209913254E0,-1.431103230E0,-2.534251213E-1,1.891076632E0
1.503965184E1,-1.296442509E0,-2.012549400E0,-2.423642874E-1,2.406212525E0
1.505899998E1,-1.286104202E0,-2.450068474E0,-1.577149928E-1,2.771601264E0
1.507837864E1,-1.050787926E0,-2.679529190E0,-5.932132248E-3,2.878205541E0
1.509775731E1,-7.809138298E-1,-2.893624306E0,9.522208571E-2,2.998658913E0
1.511710545E1,-5.948491096E-1,-3.101541519E0,8.339846879E-2,3.159170866E0
1.513648411E1,-4.173707962E-1,-3.317643642E0,-1.131303795E-2,3.343813049E0
1.515586278E1,-2.011051178E-1,-3.507653713E0,-6.791422516E-2,3.514070316E0
1.517521092E1,2.243299484E-1,-3.387251854E0,2.818489447E-2,3.394789159E0
1.519458958E1,7.978134155E-1,-2.800744057E0,1.031719148E-1,2.913986610E0
1.521399876E1,1.543301582E0,-1.808834553E0,8.839038759E-2,2.379385440E0
1.523334691E1,2.306985378E0,-9.325423241E-1,-7.245002687E-2,2.489390634E0
1.525272557E1,3.099887371E0,-2.152252197E-1,-2.692393661E-1,3.118992377E0
1.527210423E1,4.065939903E0,7.970261574E-1,-6.412563324E-1,4.192651628E0
1.529145237E1,5.123042107E0,1.974539280E0,-8.239347935E-1,5.551867644E0
1.531083104E1,6.094260693E0,3.271866798E0,-8.397011161E-1,6.967799057E0
1.533020970E1,5.556694031E0,2.519785404E0,-9.284293056E-1,6.171559609E0
1.534955784E1,4.163300514E0,9.267210960E-1,-1.311242342E0,4.462201210E0
1.536893650E1,3.682567120E0,9.289598465E-1,-1.253374577E0,3.999401807E0
1.538831517E1,4.110033989E0,1.589839458E0,-6.241231561E-1,4.450786291E0
1.540766331E1,4.453548431E0,2.171928883E0,-2.059288919E-1,4.959211168E0
1.542704197E1,4.046222687E0,1.870122910E0,-1.637600362E-1,4.460503904E0
1.544642064E1,2.879305363E0,1.113354206E0,-3.201757669E-1,3.103621994E0
1.546576878E1,1.408300400E0,1.951341629E-1,-7.406148911E-1,1.603090071E0
1.548514744E1,-9.132480621E-2,-7.186365128E-1,-1.015209675E0,1.247168530E0
1.550455662E1,-1.459255695E0,-1.448719501E0,-1.055859685E0,2.311504932E0
1.552390477E1,-2.494592190E0,-1.912802696E0,-1.052610397E0,3.315085670E0
1.554328343E1,-3.191854477E0,-2.008305073E0,-9.912863970E-1,3.899214407E0
1.556266209E1,-3.617280960E0,-1.769337177E0,-9.404408336E-1,4.135178902E0
1.558201024E1,-3.671535492E0,-1.151287079E0,-8.717613220E-1,3.945326680E0
1.560138890E1,-3.560492516E0,-3.537516594E-1,-7.861323357E-1,3.663366108E0
1.562076756E1,-3.502518654E0,2.986140251E-1,-7.861784101E-1,3.602066594E0
1.564011570E1,-3.445692062E0,8.759365082E-1,-9.181134701E-1,3.671919239E0
1.565949437E1,-3.383172035E0,1.410620689E0,-1.039094448E0,3.809910894E0
1.567887303E1,-3.276839256E0,2.063536167E0,-1.094194293E0,4.024067367E0
1.569825169E1,-3.090299606E0,2.853027105E0,-1.124844909E0,4.353733041E0
1.571759984E1,-2.765732765E0,3.804548979E0,-1.027493000E0,4.814521007E0
1.573697850E1,-2.383029938E0,4.620207310E0,-1.017638206E0,5.297238412E0
1.575635716E1,-2.223731995E0,5.174769402E0,-9.112983346E-1,5.705583844E0
1.577573582E1,-2.404930115E0,5.288475037E0,-5.966708660E-1,5.840177497E0
1.579511448E1,-2.344216347E0,5.339605331E0,-6.495732069E-2,5.831891188E0
1.581449315E1,-1.275416374E0,6.360361099E0,5.945491791E-1,6.514166790E0
1.583384129E1,-4.734773636E-1,6.648903847E0,8.574652672E-1,6.720665879E0
1.585321995E1,-1.139141083E0,4.742659569E0,4.486115277E-1,4.898133777E0
1.587259861E1,-1.258078575E0,3.941486835E0,7.574394345E-2,4.138093440E0
1.589197728E1,-1.475076675E-1,4.624305725E0,2.517195940E-1,4.633500265E0
1.591132542E1,1.176474571E0,5.528640747E0,5.631856322E-1,5.680417149E0
1.593070408E1,1.237715721E0,4.798746586E0,8.852847815E-1,5.034246532E0
1.595005223E1,4.350023270E-1,3.062386990E0,7.250951529E-1,3.176980340E0
1.596943089E1,-4.095191956E-1,1.301505566E0,4.077369571E-1,1.424033755E0
1.598880955E1,-9.190549850E-1,-1.422786713E-2,1.289995611E-1,9.281731436E-1
1.600815770E1,-1.356688499E0,-1.153395176E0,-3.014233708E-2,1.780963974E0
1.602753636E1,-1.658837795E0,-1.815975666E0,-8.434315026E-2,2.461020971E0
1.604688450E1,-1.633357048E0,-2.235010147E0,-5.342881382E-2,2.768750664E0
1.606629368E1,-1.456290722E0,-2.550166130E0,2.035307586E-1,2.943731429E0
1.608567235E1,-1.306919098E0,-2.876261711E0,4.029827714E-1,3.184856994E0
1.610505101E1,-1.134152889E0,-3.167134762E0,4.057605267E-1,3.388463808E0
1.612439915E1,-9.179296494E-1,-3.349439144E0,2.940784097E-1,3.485372223E0
1.614377781E1,-6.093983650E-1,-3.390632153E0,1.322661936E-1,3.447498674E0
1.616315648E1,-2.082324028E-1,-3.395407200E0,3.081570379E-2,3.401925983E0
1.618250462E1,4.514403343E-1,-2.954114914E0,-5.901348963E-2,2.988992454E0
1.620188328E1,1.288251877E0,-2.149278164E0,-5.328858644E-2,2.506357755E0
1.622126194E1,2.176961422E0,-1.253526211E0,-1.893866658E-1,2.519197551E0
1.624061009E1,2.958459377E0,-7.324070930E-1,-2.890949845E-1,3.061450301E0
1.625998875E1,3.878565788E0,-6.935644150E-2,-4.721604288E-1,3.907815037E0
1.627936741E1,4.926872253E0,4.543905258E-1,-6.179576516E-1,4.986222279E0
1.629871556E1,5.955222130E0,1.266134262E0,-6.316231489E-1,6.121005995E0
1.631809422E1,7.103881836E0,2.485070705E0,-5.227260590E-1,7.544133886E0
1.633747288E1,6.631255150E0,1.524076939E0,-8.092014194E-1,6.852091820E0
1.635685154E1,5.295699120E0,1.499195099E-1,-1.313850641E0,5.458306379E0
1.637623021E1,4.847892284E0,2.759828568E-1,-1.128133774E0,4.985068901E0
1.639560887E1,4.973552704E0,1.144261837E0,-6.429052353E-1,5.143820447E0
1.641495701E1,4.649260521E0,1.640062809E0,-3.950349092E-1,4.945855031E0
1.643433568E1,3.737379074E0,1.528357506E0,-4.184089601E-1,4.059426692E0
1.645371434E1,2.465161324E0,9.736733437E-1,-6.162229776E-1,2.721174542E0
1.647306248E1,1.074849129E0,1.897058487E-1,-9.371062517E-1,1.438560769E0
1.649244114E1,-1.566114426E-1,-4.723167419E-1,-1.239086747E0,1.335270091E0
1.651181981E1,-1.124910831E0,-7.825798988E-1,-1.374026060E0,1.940567775E0
1.653116795E1,-1.855589867E0,-1.001035213E0,-1.438726187E0,2.552492565E0
1.655054661E1,-2.438141346E0,-1.043776512E0,-1.402478576E0,3.000158127E0
1.656992528E1,-2.885163784E0,-7.815365791E-1,-1.396489859E0,3.299265587E0
1.658927342E1,-3.258732796E0,-3.411278725E-1,-1.319669724E0,3.532313100E0
1.660865208E1,-3.594297409E0,1.195640564E-1,-1.123327255E0,3.767642970E0
1.662803074E1,-3.792484283E0,7.750720978E-1,-9.930717945E-1,3.996231398E0
1.664740940E1,-3.857154846E0,1.381716251E0,-9.230557084E-1,4.199858944E0
1.666678807E1,-3.868873596E0,1.873403072E0,-9.148614407E-1,4.394859887E0
1.668616673E1,-3.647579193E0,2.544525385E0,-9.492107630E-1,4.547575670E0
1.670551487E1,-3.216217041E0,3.532625198E0,-9.510664940E-1,4.871141583E0
1.672489354E1,-2.874585152E0,4.400444031E0,-8.781014681E-1,5.328997059E0
1.674427220E1,-2.860630035E0,4.836311340E0,-8.236411214E-1,5.679040084E0
1.676362034E1,-2.893701553E0,5.177143097E0,-7.393968105E-1,5.976874348E0
1.678299900E1,-2.990871429E0,5.307511806E0,-4.896436334E-1,6.111852777E0
1.680237767E1,-2.824312210E0,5.376422882E0,-2.264155149E-1,6.077328891E0
1.682172581E1,-1.999375343E0,5.853838921E0,1.091845930E-1,6.186829006E0
1.684110447E1,-9.295063019E-1,6.195617199E0,5.656449795E-1,6.290437877E0
1.686048314E1,-1.028596878E0,4.804764748E0,5.618001223E-1,4.945644063E0
1.687983128E1,-1.513741493E0,2.948695898E0,3.168474734E-1,3.329656608E0
1.689920994E1,-1.050998688E0,2.612447739E0,4.986532331E-1,2.859744128E0
1.691858860E1,3.260669708E-1,3.482575893E0,8.777355552E-1,3.606254876E0
1.693796727E1,1.366190910E0,3.952106476E0,1.258727551E0,4.366923201E0
1.695734593E1,1.465482712E0,3.166221142E0,1.151937366E0,3.674174137E0
1.697672459E1,6.511716843E-1,1.555592537E0,8.821550012E-1,1.903178959E0
1.699607274E1,-2.893209457E-1,1.731052399E-1,2.314439267E-1,4.089478266E-1
1.701545140E1,-8.897304535E-1,-7.084674835E-1,-2.361922115E-1,1.161608030E0
1.703483006E1,-1.252962589E0,-1.415493965E0,-5.009621382E-1,1.955633268E0
1.705417820E1,-1.486440659E0,-1.951942921E0,-7.915730476E-1,2.578017627E0
1.707355687E1,-1.426688194E0,-2.320425510E0,-7.510296106E-1,2.825572372E0
1.709293553E1,-1.160272121E0,-2.433369160E0,-6.603718400E-1,2.775537395E0
1.711228367E1,-6.971750259E-1,-2.450034142E0,-6.665343046E-1,2.633056834E0
1.713166234E1,-2.405543327E-1,-2.509927750E0,-6.722216606E-1,2.609499120E0
1.715104100E1,1.331486702E-1,-2.745252132E0,-7.414536476E-1,2.846733453E0
1.717038914E1,4.693703651E-1,-3.129041672E0,-6.833721399E-1,3.237005994E0
1.718976780E1,9.445986748E-1,-3.439517021E0,-5.845119953E-1,3.614443009E0
1.720914647E1,1.551716805E0,-3.412247658E0,-3.792614937E-1,3.767638305E0
1.722852513E1,2.311553955E0,-2.974717140E0,-2.585979700E-1,3.776121908E0
1.724790379E1,2.953331470E0,-2.492102146E0,-3.436622024E-1,3.879541673E0
1.726728245E1,3.917330742E0,-1.384641171E0,-5.535594225E-1,4.191555719E0
1.728663060E1,4.870474815E0,-3.592987061E-1,-9.927638769E-1,4.983593142E0
1.730603978E1,5.354049206E0,-8.000373840E-3,-1.194640160E0,5.485715269E0
1.732538792E1,6.021564007E0,1.179577827E0,-1.060457945E0,6.226974224E0
1.734473607E1,6.132780552E0,1.947661400E0,-1.081321120E0,6.524847706E0
1.736411473E1,5.111151695E0,1.417753696E0,-1.484622240E0,5.507994226E0
1.738349339E1,4.536648273E0,1.353382587E0,-1.698767781E0,5.029774742E0
1.740287205E1,4.874686718E0,1.960823536E0,-1.180912733E0,5.385346267E0
1.742222020E1,5.129436493E0,2.383650303E0,-7.414861917E-1,5.704621747E0
1.744159886E1,4.951237202E0,2.648873806E0,-5.699059367E-1,5.644118624E0
1.746097752E1,4.010802746E0,2.459621906E0,-6.790405512E-1,4.753669599E0
1.748032567E1,2.116638660E0,1.311803818E0,-9.778450727E-1,2.675288669E0
1.749973485E1,1.162662506E-1,-1.151990891E-1,-1.159805655E0,1.171297498E0
1.751911351E1,-1.570989132E0,-1.321716309E0,-1.184872150E0,2.370414071E0
1.753846165E1,-2.763079166E0,-1.915082932E0,-1.126585126E0,3.545608997E0
1.755784031E1,-3.296273708E0,-1.970581055E0,-1.104632854E0,3.996101074E0
1.757721898E1,-3.418895721E0,-1.512806892E0,-1.054748535E0,3.884575539E0
1.759656712E1,-3.423283577E0,-7.304039001E-1,-1.049615145E0,3.654319671E0
1.761594578E1,-3.289824486E0,2.323160172E-1,-1.030470848E0,3.455254846E0
1.763532444E1,-3.253933907E0,1.002378464E0,-1.112008572E0,3.581816790E0
1.765467259E1,-3.294369698E0,1.572842598E0,-1.229239821E0,3.851978204E0
1.767405125E1,-3.332672119E0,2.061669827E0,-1.308486462E0,4.131503691E0
1.769342991E1,-3.449812889E0,2.439391136E0,-1.367007375E0,4.440782279E0
1.771277806E1,-3.403083801E0,3.093791723E0,-1.350251198E0,4.793297913E0
1.773215672E1,-3.261467934E0,3.894105434E0,-1.243019104E0,5.229371541E0
1.775153538E1,-3.007663727E0,4.519609451E0,-1.063906193E0,5.532161158E0
1.777088353E1,-2.824102402E0,4.961214066E0,-8.668726683E-1,5.774137823E0
1.779029271E1,-2.623557091E0,5.357183933E0,-4.695280790E-1,5.983554806E0
1.780967137E1,-2.460463524E0,5.388719559E0,-5.443596840E-2,5.924115336E0
1.782901951E1,-1.721157074E0,6.008915901E0,3.003949821E-1,6.257770300E0
1.784839818E1,-1.016576767E0,6.037375450E0,5.618840456E-1,6.148092739E0
1.786777684E1,-1.098004341E0,4.380597591E0,4.654710889E-1,4.540034375E0
1.788712498E1,-7.591953278E-1,3.267657280E0,4.143395126E-1,3.380183261E0
1.790650364E1,3.599720001E-1,3.425500870E0,8.117289543E-1,3.538720100E0
1.792588231E1,1.879209518E0,4.375685692E0,1.262015343E0,4.926533915E0
1.794523045E1,2.170979500E0,4.108137131E0,1.422125340E0,4.859257469E0
1.796460911E1,1.384137154E0,2.599039555E0,1.360651493E0,3.243796349E0
1.798398778E1,2.816495895E-1,1.205801010E0,9.700833559E-1,1.573004858E0
1.800333592E1,-6.297130585E-1,5.419158936E-2,3.733277321E-1,7.340632533E-1
1.802271458E1,-1.381696701E0,-8.055047989E-1,1.334556192E-1,1.604909392E0
1.804209324E1,-1.864664078E0,-1.554537296E0,-2.823511511E-2,2.427829391E0
1.806144139E1,-2.196748257E0,-2.111421108E0,-9.227406234E-2,3.048330117E0
1.808085057E1,-2.361867428E0,-2.416519165E0,-2.215265334E-1,3.386304273E0
1.810022923E1,-2.311277866E0,-2.443197727E0,-4.255165160E-1,3.390027259E0
1.811957737E1,-2.049259186E0,-2.359765530E0,-5.900160074E-1,3.180577849E0
1.813895604E1,-1.663881779E0,-2.326031685E0,-7.470806837E-1,2.955851065E0
1.815833470E1,-1.179453850E0,-2.409211159E0,-8.255211115E-1,2.806580641E0
1.817768284E1,-5.826168060E-1,-2.552074909E0,-8.311250210E-1,2.746506415E0
1.819706150E1,9.075832367E-2,-2.570370674E0,-7.061733007E-1,2.667156390E0
1.821644017E1,9.248619080E-1,-2.201686382E0,-6.231921911E-1,2.468027751E0
1.823578831E1,1.843637943E0,-1.675116062E0,-5.601621866E-1,2.553193366E0
1.825516697E1,2.843194485E0,-1.155241013E0,-5.296598673E-1,3.114301888E0
1.827454564E1,4.077345848E0,-3.453416824E-1,-6.406632066E-1,4.141794223E0
1.829389378E1,5.620966434E0,7.334623337E-1,-8.540908098E-1,5.732599913E0
1.831327244E1,6.761160851E0,1.271267414E0,-7.912021279E-1,6.924985032E0
1.833265110E1,7.685585022E0,2.372477531E0,-6.362210512E-1,8.068558979E0
1.835202977E1,7.327462196E0,2.186530113E0,-4.130362868E-1,7.657885815E0
1.837140843E1,5.838618279E0,8.884387016E-1,-7.719975710E-1,5.956069759E0
1.839078709E1,4.527924061E0,2.174611092E-1,-9.333595037E-1,4.628233529E0
1.841013524E1,4.138325691E0,3.604035378E-1,-6.085263491E-1,4.198325208E0
1.842951390E1,4.167033672E0,8.635859489E-1,2.127790153E-1,4.260894886E0
1.844889256E1,3.621186733E0,9.392576218E-1,5.808570385E-1,3.785841140E0
1.846824070E1,2.307565212E0,3.106365204E-1,3.504995704E-1,2.354612963E0
1.848761937E1,8.953208923E-1,-4.065241814E-1,-1.413553953E-2,9.833927109E-1
1.850699803E1,-2.685194016E-1,-1.004890919E0,-3.607207239E-1,1.100921372E0
1.852634617E1,-1.233181000E0,-1.456213951E0,-4.958195984E-1,1.971580971E0
1.854572484E1,-2.060507774E0,-1.808069706E0,-6.599469185E-1,2.819634424E0
1.856510350E1,-2.691332817E0,-1.850784302E0,-7.156020403E-1,3.343764517E0
1.858445164E1,-3.068849564E0,-1.513039589E0,-7.667387724E-1,3.506424787E0
1.860383030E1,-3.279072762E0,-9.080367088E-1,-7.629904747E-1,3.486976241E0
1.862320897E1,-3.355491638E0,-3.186268806E-1,-8.680497408E-1,3.480568571E0
1.864258763E1,-3.300603867E0,2.142162323E-1,-1.067603469E0,3.475579325E0
1.866196629E1,-3.170390129E0,7.314238548E-1,-1.307328463E0,3.506488576E0
1.868134495E1,-3.031457901E0,1.259016514E0,-1.482054949E0,3.601575552E0
1.870069310E1,-2.795190811E0,1.895784855E0,-1.547147274E0,3.714936954E0
1.872010228E1,-2.580437660E0,2.553401947E0,-1.518222928E0,3.934910530E0
1.873945042E1,-2.374922752E0,3.205832481E0,-1.460228562E0,4.248515909E0
1.875879857E1,-2.250197411E0,3.695389271E0,-1.301345348E0,4.518051567E0
1.877817723E1,-2.005354881E0,4.138198853E0,-1.159169793E0,4.742342517E0
1.879755589E1,-1.823893547E0,4.440316200E0,-9.191809297E-1,4.887523832E0
1.881690403E1,-1.811658859E0,4.612240791E0,-3.874230385E-1,4.970409395E0
1.883628270E1,-1.496721268E0,5.209427834E0,1.111271381E-1,5.421315537E0
1.885566136E1,-7.195940018E-1,6.093301773E0,5.811645985E-1,6.163107521E0
1.887500950E1,-5.531749725E-1,5.358530045E0,7.260692120E-1,5.435717367E0
1.889438817E1,-9.530029297E-1,3.610085487E0,7.039642334E-1,3.799539110E0
1.891376683E1,-9.136838913E-1,2.915564537E0,7.104619145E-1,3.136891926E0
1.893314549E1,9.896945953E-2,3.806031704E0,9.276481867E-1,3.918699203E0
1.895252415E1,1.052402496E0,4.749998569E0,1.102210999E0,4.988477374E0
1.897190281E1,8.254861832E-1,4.008646965E0,9.275672436E-1,4.196553219E0
1.899125096E1,2.735424042E-1,2.608769417E0,6.690603495E-1,2.707054685E0
1.901062962E1,-2.582502365E-1,1.268025875E0,5.275685191E-1,1.397466045E0
1.903000828E1,-9.556207657E-1,3.226613998E-2,3.632382154E-1,1.022836327E0
1.904935643E1,-1.629890442E0,-9.393720627E-1,4.097009003E-1,1.925309729E0
1.906873509E1,-2.199055672E0,-1.461992741E0,3.014004230E-1,2.657839505E0
1.908811375E1,-2.403151989E0,-1.912697792E0,4.454059601E-1,3.103536498E0
1.910746190E1,-2.419014931E0,-2.225703716E0,4.088762999E-1,3.312486996E0
1.912684056E1,-2.307990551E0,-2.286111832E0,1.757699400E-1,3.253309509E0
1.914621922E1,-2.048584461E0,-2.331672192E0,-1.714534461E-1,3.108502821E0
1.916556736E1,-1.723873138E0,-2.256116390E0,-5.763206482E-1,2.897230618E0
1.918494603E1,-1.280187607E0,-2.222891331E0,-9.676244855E-1,2.741609622E0
1.920432469E1,-6.261119843E-1,-2.285532951E0,-1.162579179E0,2.639558189E0
1.922370335E1,1.626977921E-1,-2.487045288E0,-1.176446438E0,2.756064415E0
1.924308201E1,9.914264679E-1,-2.525418282E0,-1.069949389E0,2.916411431E0
1.926246068E1,1.940439701E0,-2.131720066E0,-8.948379755E-1,3.018322659E0
1.928180882E1,3.073990345E0,-1.288895607E0,-6.785043478E-1,3.401622654E0
1.930118748E1,4.363416195E0,-1.163592339E-1,-6.643908024E-1,4.415241273E0
1.932056614E1,5.586891174E0,6.475462914E-1,-8.474223018E-1,5.687775818E0
1.933991429E1,6.192910194E0,5.232887268E-1,-9.713670015E-1,6.290430957E0
1.935929295E1,7.129137993E0,1.435793400E0,-9.320828915E-1,7.331772618E0
1.937867161E1,7.487760544E0,1.838382721E0,-8.215882778E-1,7.753787222E0
1.939801976E1,6.170887947E0,2.908754349E-2,-1.051342487E0,6.259874213E0
1.941739842E1,4.873688221E0,-1.011289120E0,-1.213822842E0,5.123368857E0
1.943677708E1,4.812391758E0,-5.165481567E-1,-8.190972209E-1,4.908854926E0
1.945612523E1,5.206998825E0,6.023440361E-1,-1.531106234E-1,5.243958234E0
1.947550389E1,5.197410583E0,1.516459465E0,2.932270169E-1,5.422057558E0
1.949488255E1,4.185384750E0,1.398884296E0,8.203217387E-2,4.413734480E0
1.951426121E1,2.743631363E0,6.892552376E-1,-3.860233724E-1,2.855100678E0
1.953363987E1,1.356472969E0,-3.803625107E-1,-7.699586749E-1,1.605469064E0
1.955301854E1,2.263283730E-1,-1.225282192E0,-1.153964400E0,1.698285848E0
1.957236668E1,-7.197580338E-1,-1.754238605E0,-1.259799600E0,2.276510431E0
1.959174534E1,-1.359874725E0,-1.830189705E0,-1.357352495E0,2.653537153E0
1.961112400E1,-1.888579369E0,-1.475298405E0,-1.303361893E0,2.728001033E0
1.963047215E1,-2.451884270E0,-8.462476730E-1,-1.323921680E0,2.912153879E0
1.964985081E1,-2.858992577E0,-7.793569565E-2,-1.285071850E0,3.135493930E0
1.966922947E1,-3.138601303E0,4.204177856E-1,-1.132653475E0,3.363104689E0
1.968857762E1,-3.348730087E0,9.331278801E-1,-1.187297583E0,3.673471980E0
1.970795628E1,-3.430618286E0,1.489411831E0,-1.126663685E0,3.906003134E0
1.972733494E1,-3.443473816E0,2.158512592E0,-1.089375496E0,4.207544118E0
1.974671360E1,-3.471743584E0,2.848610640E0,-1.058085918E0,4.613797991E0
1.976606175E1,-3.397623062E0,3.656075954E0,-1.017490387E0,5.093723642E0
1.978547093E1,-3.264304161E0,4.485601902E0,-9.844595790E-1,5.634311559E0
1.980481907E1,-3.130076408E0,5.046413898E0,-1.020054698E0,6.025295274E0
1.982419774E1,-2.963053703E0,5.411506176E0,-9.967898726E-1,6.249614099E0
1.984357640E1,-2.817492485E0,5.462767601E0,-6.174066067E-1,6.177482067E0
1.986292454E1,-2.361450195E0,5.637610435E0,-1.635652483E-1,6.114397112E0
1.988230320E1,-1.415695190E0,6.329429150E0,4.135836959E-1,6.498993592E0
1.990168187E1,-1.118423462E0,5.815344810E0,6.008605361E-1,5.952322210E0
1.992106053E1,-1.541282654E0,3.766683817E0,3.979040682E-1,4.089228148E0
1.994040867E1,-1.521436691E0,2.124832869E0,2.664025128E-1,2.626909710E0
1.995978734E1,-3.914308548E-1,2.470154524E0,7.250787616E-1,2.603962499E0
1.997916600E1,9.953289032E-1,3.844419956E0,1.293024540E0,4.176380836E0
1.999851414E1,1.486920357E0,4.146154881E0,1.319030643E0,4.597975019E0
2.001789280E1,9.630374908E-1,2.983872890E0,1.098261118E0,3.322215544E0
2.003727147E1,3.518381119E-1,1.629715443E0,6.572630405E-1,1.792137602E0
2.005661961E1,-5.569458008E-4,3.150873184E-1,2.015823871E-1,3.740531877E-1
2.007602879E1,-2.435398102E-1,-6.160316467E-1,-2.036199123E-1,6.930134902E-1
2.009540745E1,-3.718857765E-1,-1.555115223E0,-3.781369925E-1,1.643067245E0
2.011475560E1,-5.620536804E-1,-2.294715405E0,-4.777226746E-1,2.410361401E0
2.013416478E1,-7.269043922E-1,-2.853178978E0,-5.613858700E-1,2.997361235E0
2.015351292E1,-6.478877068E-1,-3.173923492E0,-4.185786247E-1,3.266306306E0
2.017286107E1,-4.797377586E-1,-3.330602646E0,-3.942741454E-1,3.387995632E0
2.019223973E1,-2.227039337E-1,-3.399996758E0,-3.537785709E-1,3.425599841E0
2.021161839E1,2.383766174E-1,-3.159593582E0,-3.511764109E-1,3.187974261E0
2.023096653E1,5.947208405E-1,-3.034706593E0,-4.729146361E-1,3.128383805E0
2.025034520E1,9.664821625E-1,-2.967035770E0,-7.100642920E-1,3.200246917E0
2.026972386E1,1.574950218E0,-2.753226280E0,-8.479414582E-1,3.283249588E0
2.028907200E1,2.555449486E0,-2.200720310E0,-8.114976287E-1,3.468720277E0
2.030845067E1,3.416533470E0,-1.803775311E0,-7.320325971E-1,3.932197610E0
2.032782933E1,4.206918240E0,-1.430065632E0,-7.600417733E-1,4.507872257E0
2.034717747E1,4.880136967E0,-1.068707943E0,-9.083288312E-1,5.077689903E0
2.036658665E1,5.322118759E0,-8.742866516E-1,-8.699781299E-1,5.463166406E0
2.038596531E1,6.036931992E0,3.089518547E-1,-7.321393490E-1,6.089008716E0
2.040531346E1,6.588102818E0,1.450921535E0,-5.661242604E-1,6.769694876E0
2.042469212E1,5.797992706E0,8.488855362E-1,-6.713908911E-1,5.898143081E0
2.044407078E1,5.047575474E0,3.296914101E-1,-8.985685110E-1,5.137522745E0
2.046341893E1,5.365500450E0,8.163828850E-1,-4.000877738E-1,5.441980000E0
2.048279759E1,6.008428097E0,1.846858025E0,3.329330683E-2,6.285952688E0
2.050217625E1,5.745194912E0,2.344415665E0,2.584483027E-1,6.210502790E0
2.052152440E1,4.382658005E0,2.169464111E0,1.612735987E-1,4.892880020E0
2.054090306E1,2.482623577E0,1.537715435E0,-4.286819696E-1,2.951568535E0
2.056028172E1,5.149517059E-1,5.710272789E-1,-8.757749200E-1,1.165430874E0
2.057962986E1,-1.191150665E0,-2.406401634E-1,-1.277054191E0,1.762842875E0
2.059900853E1,-2.345670700E0,-6.896858215E-1,-1.279671907E0,2.759601014E0
2.061838719E1,-3.092686653E0,-8.153338432E-1,-1.201464295E0,3.416576717E0
2.063776585E1,-3.470541000E0,-6.325497627E-1,-1.058802843E0,3.683183066E0
2.065714451E1,-3.668356895E0,-2.196860313E-1,-9.557596445E-1,3.797180633E0
2.067652318E1,-3.814018250E0,2.186808586E-1,-9.376282096E-1,3.933662820E0
2.069587132E1,-3.928092003E0,6.640000343E-1,-9.555667639E-1,4.096817139E0
2.071524998E1,-4.006852150E0,1.201830387E0,-9.375874996E-1,4.286995539E0
2.073462864E1,-4.053712845E0,1.881752968E0,-9.280536771E-1,4.564522504E0
2.075397679E1,-3.989561081E0,2.567279339E0,-9.475811124E-1,4.837915955E0
2.077335545E1,-3.865367889E0,3.253591537E0,-9.089601636E-1,5.133530500E0
2.079273411E1,-3.592258453E0,3.938314438E0,-8.942326307E-1,5.405024829E0
2.081208226E1,-3.224199295E0,4.635318279E0,-7.645719647E-1,5.697912507E0
2.083146092E1,-2.749347687E0,5.307309151E0,-5.851411819E-1,6.005733371E0
2.085083958E1,-2.220989227E0,5.816854477E0,-9.977638721E-3,6.226450731E0
2.087018773E1,-2.216759682E0,5.532466888E0,3.320021629E-1,5.969291314E0
2.088956639E1,-1.899489403E0,5.817518234E0,6.430121660E-1,6.153457812E0
2.090894505E1,-1.346887589E0,6.101918221E0,7.620178461E-1,6.295092004E0
2.092832371E1,-1.605607033E0,4.809632301E0,5.641176701E-1,5.101839429E0
2.094770237E1,-1.540483475E0,3.688358307E0,3.990958631E-1,4.017008071E0
2.096708104E1,-4.627275467E-1,4.133315086E0,6.362584829E-1,4.207521271E0
2.098642918E1,9.580583572E-1,5.261157036E0,1.041663647E0,5.448184314E0
2.100580784E1,1.593523026E0,5.210021019E0,1.136166334E0,5.565474696E0
2.102518650E1,1.281899452E0,3.829106331E0,1.006720662E0,4.161587196E0
2.104453465E1,7.664327621E-1,2.145491600E0,8.026134968E-1,2.415521022E0
2.106391331E1,2.660675049E-1,5.993604660E-1,6.304165125E-1,9.096427126E-1
2.108329197E1,-1.205501556E-1,-5.811548233E-1,4.108330607E-1,7.218428309E-1
2.110264012E1,-4.506421089E-1,-1.621860981E0,2.770393491E-1,1.705949048E0
2.112201878E1,-7.245507240E-1,-2.394042969E0,1.542329788E-2,2.501330319E0
2.114139744E1,-6.531548500E-1,-2.794867039E0,-9.117788076E-2,2.871620871E0
2.116074559E1,-4.816083908E-1,-2.986018181E0,-2.663211823E-1,3.036309963E0
2.118012425E1,-2.842783928E-1,-3.012662888E0,-5.203689337E-1,3.070461807E0
2.119950291E1,1.238031387E-1,-2.897825718E0,-7.854767442E-1,3.004945062E0
2.121888157E1,6.619496346E-1,-2.822041988E0,-9.516377449E-1,3.050854421E0
2.123826024E1,1.153861523E0,-3.041301727E0,-9.798913598E-1,3.397219405E0
2.125763890E1,1.686043739E0,-3.253506184E0,-8.954388499E-1,3.772248230E0
2.127698704E1,2.374084949E0,-3.169508934E0,-7.269862890E-1,4.026235872E0
2.129636570E1,3.225729942E0,-2.802942753E0,-7.144401073E-1,4.332695051E0
2.131573713E1,3.968611717E0,-2.412851810E0,-6.707637310E-1,4.692723815E0
2.133508528E1,4.821499825E0,-1.634177208E0,-7.752516866E-1,5.149602983E0
2.135446394E1,5.418447971E0,-1.130188942E0,-1.042529821E0,5.632386163E0
2.137384260E1,5.297741890E0,-1.691872597E0,-1.155215263E0,5.680054958E0
2.139319075E1,5.115085125E0,-1.706192017E0,-1.073051095E0,5.497874652E0
2.141256941E1,5.674076080E0,-7.241725922E-2,-1.047206759E0,5.770357495E0
2.143194807E1,5.731043816E0,6.781816483E-1,-9.126378298E-1,5.842747759E0
2.145129622E1,4.804770470E0,-1.620426178E-1,-1.006164670E0,4.911664119E0
2.147067488E1,4.460306168E0,-4.985938072E-1,-1.308248997E0,4.674873510E0
2.149005354E1,5.363396168E0,6.091718674E-1,-6.951464415E-1,5.442456926E0
2.150943220E1,6.181903362E0,1.738365173E0,-1.651550531E-1,6.423793182E0
2.152881086E1,6.370609760E0,2.531514645E0,-6.370276213E-2,6.855457181E0
2.154822004E1,5.725176811E0,2.756294250E0,-2.460921407E-1,6.358881101E0
2.156753767E1,4.055416107E0,1.906927109E0,-9.677175879E-1,4.584675357E0
2.158691633E1,2.047546864E0,5.882105827E-1,-1.512243748E0,2.612531531E0
2.160629500E1,3.254261017E-1,-2.962241173E-1,-1.659203887E0,1.716568791E0
2.162564314E1,-1.039385319E0,-6.492791176E-1,-1.485109329E0,1.925470055E0
2.164502180E1,-2.186432362E0,-6.991238594E-1,-1.181417227E0,2.581667544E0
2.166440046E1,-3.059036255E0,-1.336808205E-1,-8.958055377E-1,3.190304207E0
2.168374861E1,-3.757287025E0,4.647293091E-1,-6.963471174E-1,3.849425727E0
2.170312727E1,-4.556866646E0,8.184375763E-1,-6.638261080E-1,4.677129333E0
2.172250593E1,-5.382147789E0,8.249087334E-1,-6.234394908E-1,5.480571689E0
2.174185408E1,-5.889594078E0,8.565535545E-1,-6.120170355E-1,5.982939683E0
2.176123274E1,-5.879120827E0,1.350081444E0,-3.744872212E-1,6.043758953E0
2.178064192E1,-5.454951286E0,2.245059490E0,-1.603129208E-1,5.901058031E0
2.179999006E1,-4.734485626E0,3.308377743E0,-4.266956449E-2,5.776031347E0
2.181936873E1,-3.871026039E0,4.482742786E0,-6.763356924E-2,5.923208572E0
2.183874739E1,-3.200157166E0,5.238354683E0,-2.216262221E-1,6.142514457E0
2.185809553E1,-2.648199081E0,5.829991341E0,-4.548770785E-1,6.419397991E0
2.187747420E1,-2.281547546E0,6.299883842E0,-4.684598446E-1,6.716654693E0
2.189685286E1,-2.051915169E0,6.389524460E0,-1.299639344E-1,6.712173218E0
2.191620100E1,-1.233622551E0,7.151284218E0,1.683604121E-1,7.258859125E0
2.193557966E1,-1.013677597E0,6.644007206E0,2.942148447E-1,6.727327582E0
2.195495833E1,-1.530510902E0,4.394220352E0,1.150731146E-1,4.654554538E0
2.197430647E1,-8.971652985E-1,3.668590069E0,3.408998251E-1,3.792053712E0
2.199368513E1,7.346134186E-1,4.720002174E0,1.002900124E0,4.880971835E0
2.201306380E1,2.166373253E0,5.783257008E0,1.297059417E0,6.310435628E0
2.203241194E1,1.779112816E0,4.535586834E0,1.192806959E0,5.015932494E0
2.205179060E1,8.419771194E-1,2.646850109E0,8.122609854E-1,2.893874372E0
2.207116926E1,-1.079750061E-2,1.011033058E0,3.060640395E-1,1.056399369E0
2.209054793E1,-7.090692520E-1,-4.782886505E-1,5.656087399E-2,8.571688106E-1
2.210992659E1,-1.278100967E0,-1.693490028E0,-6.918780506E-2,2.122790030E0
2.212930525E1,-1.625738621E0,-2.577801704E0,-1.925002486E-1,3.053709881E0
2.214865339E1,-1.620010853E0,-3.002186775E0,-8.487864584E-2,3.412442671E0
2.216803206E1,-1.445695400E0,-3.261272907E0,1.629517600E-2,3.567380229E0
2.218741072E1,-1.087814331E0,-3.204706192E0,5.483717844E-2,3.384743552E0
2.220675886E1,-6.871838570E-1,-2.888683319E0,-1.032553911E-1,2.971089808E0
2.222613753E1,-1.862521172E-1,-2.545989513E0,-3.638941348E-1,2.578598727E0
2.224551619E1,4.039335251E-1,-2.264943600E0,-7.041489482E-1,2.406025258E0
2.226486433E1,1.100923538E0,-2.276530743E0,-9.213429093E-1,2.691374670E0
2.228424299E1,2.057077408E0,-2.462256908E0,-9.217528701E-1,3.338248777E0
2.230362166E1,3.089195251E0,-2.618998528E0,-6.853083372E-1,4.107545265E0
2.232296980E1,4.098076820E0,-2.629452705E0,-5.586354136E-1,4.901053834E0
2.234234846E1,4.908479214E0,-2.575285435E0,-6.034613252E-1,5.575789526E0
2.236172712E1,6.046133518E0,-1.563324928E0,-8.169296980E-1,6.298181443E0
2.238110579E1,6.745277882E0,-1.176246643E0,-1.061993837E0,6.928936482E0
2.240048445E1,6.888854027E0,-1.332538605E0,-1.020362139E0,7.090353153E0
2.241986311E1,7.537895203E0,-1.794977188E-1,-7.534086108E-1,7.577579300E0
2.243921126E1,7.126088142E0,-8.126163483E-2,-8.948493600E-1,7.182512864E0
2.245858992E1,5.718511105E0,-9.772338867E-1,-1.116066694E0,5.907788096E0
2.247796858E1,5.473477364E0,-4.414367676E-1,-1.287415266E0,5.640147067E0
2.249731672E1,6.323121548E0,1.089437008E0,-8.729258776E-1,6.475394867E0
2.251669539E1,7.022439957E0,2.371552467E0,-7.562138438E-1,7.450555914E0
2.253607405E1,6.499767303E0,2.478946686E0,-8.423244953E-1,7.007257825E0
2.255542219E1,5.173209190E0,2.179934502E0,-1.126622438E0,5.725686498E0
2.257480086E1,3.131343365E0,1.259935856E0,-1.503630757E0,3.695085261E0
2.259417952E1,1.114977837E0,1.292490959E-1,-1.661277056E0,2.004924527E0
2.261352766E1,-6.467695236E-1,-7.161512375E-1,-1.657015562E0,1.917520270E0
2.263290632E1,-1.983285427E0,-1.238418102E0,-1.465132713E0,2.759295988E0
2.265231550E1,-2.794655323E0,-1.420962334E0,-1.366073847E0,3.419852348E0
2.267166365E1,-3.243252754E0,-1.131743431E0,-1.288698554E0,3.668824823E0
2.269104231E1,-3.483209610E0,-5.089144707E-1,-1.221409202E0,3.726068110E0
2.271042097E1,-3.662090302E0,2.022466660E-1,-1.200096488E0,3.859020688E0
2.272976912E1,-3.885403633E0,8.537712097E-1,-1.171434760E0,4.146992412E0
2.274914778E1,-4.061340332E0,1.446867466E0,-1.245472312E0,4.487662202E0
2.276852644E1,-4.054375648E0,2.264905930E0,-1.316892982E0,4.827211192E0
2.278787459E1,-3.714970589E0,3.377493620E0,-1.263065219E0,5.177238972E0
2.280725325E1,-3.377751350E0,4.453359127E0,-1.159457207E0,5.708410699E0
2.282663191E1,-3.237359047E0,5.100189209E0,-1.063591003E0,6.133811979E0
2.284598005E1,-3.409355164E0,5.180446625E0,-1.041438103E0,6.288507230E0
2.286535872E1,-3.515973091E0,5.320929527E0,-8.097812533E-1,6.428849313E0
2.288473738E1,-3.718411446E0,5.307148933E0,-4.540178180E-1,6.496040768E0
2.290408552E1,-3.497724533E0,5.595384121E0,-7.601934671E-2,6.599104433E0
2.292346418E1,-1.980690956E0,7.332593441E0,3.309322000E-1,7.602603459E0
2.294287336E1,-1.293374062E0,7.141909122E0,4.520463645E-1,7.272140558E0
2.296222151E1,-1.767527580E0,5.075712204E0,2.130117416E-1,5.378882981E0
2.298160017E1,-1.322036743E0,4.459306240E0,3.072031140E-1,4.661283841E0
2.300097883E1,-1.827383041E-1,4.983967304E0,7.960071564E-1,5.050440651E0
2.302032698E1,8.313827515E-1,5.440072060E0,1.145781040E0,5.621245012E0
2.303970564E1,9.597043991E-1,4.534949780E0,1.219503045E0,4.793118996E0
2.305908430E1,3.566265106E-1,2.683322430E0,1.134430528E0,2.935018629E0
2.307843245E1,-2.427206039E-1,1.075305462E0,9.021645784E-1,1.424463427E0
2.309781111E1,-5.688114166E-1,-1.537127495E-1,6.650389433E-1,8.885104575E-1
2.311718977E1,-7.253818512E-1,-1.019041061E0,4.384744763E-1,1.325474776E0
2.313653792E1,-8.622150421E-1,-1.901605606E0,2.667073607E-1,2.104911275E0
2.315591658E1,-8.100337982E-1,-2.394623280E0,2.954823337E-2,2.528091870E0
2.317529524E1,-3.616003990E-1,-2.690547943E0,-2.104124427E-1,2.722880181E0
2.319464338E1,1.721935272E-1,-2.850003242E0,-5.544807315E-1,2.908542242E0
2.321402205E1,8.297457695E-1,-3.085542679E0,-7.165306807E-1,3.274517962E0
2.323343123E1,1.419957161E0,-3.493425369E0,-7.392420173E-1,3.842756551E0
2.325277937E1,2.032815933E0,-3.970327854E0,-7.590149045E-1,4.524593630E0
2.327215803E1,2.742573261E0,-4.438775539E0,-9.369773865E-1,5.301166193E0
2.329153670E1,3.771012783E0,-4.373437881E0,-1.087151766E0,5.876171821E0
2.331088484E1,4.691572666E0,-3.876298904E0,-1.181376934E0,6.199370834E0
2.333026350E1,5.185579300E0,-3.344439507E0,-1.374041796E0,6.321669016E0
2.334964216E1,5.448392868E0,-2.716502190E0,-1.774515867E0,6.341393818E0
2.336899031E1,6.038652420E0,-1.578265667E0,-2.100775719E0,6.585552686E0
2.338836897E1,6.777422428E0,-4.403996468E-1,-2.162096262E0,7.127556865E0
2.340774763E1,7.753235340E0,1.062239170E0,-1.996364832E0,8.076291404E0
2.342712630E1,7.244790077E0,7.158799171E-1,-1.927140236E0,7.530825772E0
2.344647444E1,5.853336811E0,-3.297476768E-1,-2.071967125E0,6.217984651E0
2.346585310E1,5.471107960E0,2.326169014E-1,-1.789985895E0,5.761178910E0
2.348520125E1,5.785904884E0,1.717808723E0,-1.460895061E0,6.209812922E0
2.350461043E1,5.831752300E0,2.814038754E0,-1.225530982E0,6.590149861E0
2.352398909E1,5.035629749E0,2.718698025E0,-1.152933598E0,5.837648654E0
2.354333723E1,3.541146755E0,1.751226902E0,-1.228521347E0,4.137122273E0
2.356271589E1,1.883645058E0,5.924777985E-1,-1.323140025E0,2.376940927E0
2.358209456E1,2.978830338E-1,-4.563145638E-1,-1.380021930E0,1.483717564E0
2.360144270E1,-9.831156731E-1,-1.068787575E0,-1.317334175E0,1.960661275E0
2.362082136E1,-1.931130409E0,-1.301782608E0,-1.228270054E0,2.632973593E0
2.364020003E1,-2.695497036E0,-1.257651329E0,-1.156183362E0,3.191261679E0
2.365954817E1,-3.221054077E0,-9.135761261E-1,-1.201401114E0,3.557130212E0
2.367892683E1,-3.554178238E0,-2.104353905E-1,-1.241857529E0,3.770765986E0
2.369830549E1,-3.749319077E0,6.053395271E-1,-1.226452112E0,3.990991639E0
2.371765364E1,-3.893288612E0,1.419023991E0,-1.214519262E0,4.318145707E0
2.373703230E1,-4.056505203E0,2.091190577E0,-1.125472784E0,4.700532042E0
2.375641096E1,-4.206769943E0,2.664599180E0,-1.057086706E0,5.090622207E0
2.377575911E1,-4.223618507E0,3.277264833E0,-9.702198505E-1,5.433299609E0
2.379516829E1,-4.117399216E0,3.864098072E0,-8.478158712E-1,5.709905600E0
2.381454695E1,-3.663428307E0,4.586850166E0,-6.917378902E-1,5.910871570E0
2.383389509E1,-3.089382172E0,5.070141792E0,-4.320387244E-1,5.952921758E0
2.385327376E1,-2.833053589E0,5.212381363E0,-1.640149653E-1,5.934813647E0
2.387265242E1,-2.973492622E0,4.789500237E0,2.240708768E-1,5.641912676E0
2.389200056E1,-2.834279060E0,4.661781311E0,5.855991840E-1,5.487100253E0
2.391137922E1,-1.710328102E0,5.562715530E0,1.028078794E0,5.909819989E0
2.393075789E1,-7.926769257E-1,6.230799675E0,1.188328147E0,6.392442810E0
2.395010603E1,-8.867731094E-1,5.351869583E0,9.063689709E-1,5.500034481E0
2.396948469E1,-5.366764069E-1,5.105982780E0,5.982028842E-1,5.168842076E0
2.398886336E1,3.945913315E-1,5.669501305E0,6.355097294E-1,5.718637948E0
2.400821150E1,1.324766159E0,5.869373798E0,7.153694034E-1,6.059398282E0
2.402759016E1,1.457556725E0,4.896207809E0,9.078625441E-1,5.188596816E0
2.404696882E1,9.367074966E-1,3.105815887E0,8.184070587E-1,3.345639457E0
2.406631697E1,8.490657806E-2,1.122925282E0,6.458294392E-1,1.298177946E0
2.408572615E1,-7.455186844E-1,-6.195416451E-1,3.564559221E-1,1.032807234E0
2.410510481E1,-1.139299393E0,-1.693307877E0,3.237462044E-1,2.066423547E0
2.412445296E1,-1.295046329E0,-2.318631649E0,2.948424816E-1,2.672102133E0
2.414383162E1,-1.345967293E0,-2.894331932E0,2.377285212E-1,3.200828039E0
2.416321028E1,-1.209864616E0,-3.245374203E0,1.130369902E-1,3.465400910E0
2.418255842E1,-8.691792488E-1,-3.482953548E0,1.908781007E-2,3.589819262E0
2.420193709E1,-3.586649895E-1,-3.547580242E0,-1.689928919E-1,3.569667316E0
2.422131575E1,3.936352730E-1,-3.359031677E0,-3.111772537E-1,3.396302964E0
2.424066389E1,1.231391430E0,-3.205358028E0,-3.603078723E-1,3.452602889E0
2.426004255E1,2.084535599E0,-2.962371349E0,-5.386868715E-1,3.662119089E0
2.427942122E1,3.137046337E0,-2.367558479E0,-9.124693871E-1,4.034723442E0
2.429876936E1,4.136300087E0,-1.681818962E0,-1.198328733E0,4.623146676E0
2.431814802E1,4.778192997E0,-1.515484333E0,-1.498156548E0,5.231853794E0
2.433752668E1,5.495934010E0,-1.006025314E0,-1.766963720E0,5.859994741E0
2.435687483E1,6.352595806E0,-4.104108810E-1,-1.872331381E0,6.635475519E0
2.437628401E1,7.158061504E0,9.474372864E-2,-1.852585196E0,7.394517752E0
2.439566267E1,7.902208328E0,1.080940247E0,-1.440528393E0,8.104841166E0
2.441501082E1,7.123304367E0,2.349233627E-1,-1.402958870E0,7.263948491E0
2.443438948E1,5.722840786E0,-1.016487122E0,-1.377889395E0,5.973502483E0
2.445376814E1,5.211259842E0,-1.064418793E0,-1.311221242E0,5.478094345E0
2.447311629E1,5.540383816E0,-6.584453583E-2,-7.307882905E-1,5.588760136E0
2.449249495E1,5.843655109E0,9.125270844E-1,-4.206408262E-1,5.929413919E0
2.451187361E1,5.418830872E0,1.129314899E0,-5.216895342E-1,5.559787777E0
2.453122175E1,4.192213058E0,5.911202431E-1,-9.235060215E-1,4.333236301E0
2.455060042E1,2.505355835E0,-1.292619705E-1,-1.176210880E0,2.770737907E0
2.456997908E1,7.535037994E-1,-7.990550995E-1,-1.121510267E0,1.569726826E0
2.458932722E1,-8.644628525E-1,-1.271649837E0,-8.916447163E-1,1.777475635E0
2.460870588E1,-2.107657433E0,-1.521461487E0,-8.172374368E-1,2.724874664E0
2.462808455E1,-2.775198936E0,-1.604228020E0,-1.047549129E0,3.372333888E0
2.464746321E1,-2.818896770E0,-1.250912189E0,-1.231003284E0,3.320591724E0
2.466684187E1,-2.490578651E0,-4.364709854E-1,-1.268924952E0,2.829073960E0
2.468622053E1,-2.386827469E0,2.434024811E-1,-1.283977509E0,2.721174081E0
2.470556868E1,-2.561592102E0,6.442713737E-1,-1.330170870E0,2.957396531E0
2.472494734E1,-2.721929550E0,1.023622990E0,-1.292215109E0,3.182220041E0
2.474432600E1,-2.919214249E0,1.472649097E0,-1.144323349E0,3.464099179E0
2.476367415E1,-3.193726540E0,1.999676228E0,-1.014499545E0,3.902281839E0
2.478305281E1,-3.345500946E0,2.746523380E0,-9.142311215E-1,4.423978504E0
2.480243147E1,-3.184893608E0,3.737566948E0,-7.863292098E-1,4.973054153E0
2.482177962E1,-3.065308571E0,4.414039612E0,-7.243847847E-1,5.422600450E0
2.484118880E1,-3.045381546E0,4.643161774E0,-6.770786047E-1,5.593901631E0
2.486053694E1,-2.957757950E0,4.759060860E0,-3.143689930E-1,5.612113703E0
2.487988508E1,-2.709975243E0,4.889916420E0,1.600627601E-1,5.592930225E0
2.489926375E1,-1.527175903E0,5.794120312E0,8.038666844E-1,6.045684252E0
2.491864241E1,-7.304782867E-1,5.948515892E0,1.113744378E0,6.095807279E0
2.493802107E1,-1.162204742E0,4.939833641E0,9.488707781E-1,5.162657457E0
2.495739973E1,-1.321088791E0,4.616340637E0,5.105888247E-1,4.828724202E0
2.497677839E1,-5.726613998E-1,5.084276199E0,4.568394423E-1,5.136779908E0
2.499612654E1,6.478033066E-1,5.538979053E0,5.143196583E-1,5.600398449E0
2.501550520E1,1.055999756E0,4.752287865E0,7.860969305E-1,4.931259861E0
2.503488386E1,4.658508301E-1,2.908164978E0,7.939330935E-1,3.050372156E0
2.505423201E1,-2.105779648E-1,1.011456013E0,7.480396628E-1,1.275519377E0
2.507361067E1,-6.872329712E-1,-5.065445900E-1,8.067042232E-1,1.174584302E0
2.509298933E1,-1.018607616E0,-1.694824219E0,1.039359212E0,2.233888578E0
2.511233748E1,-1.432092190E0,-2.453167439E0,1.136075974E0,3.059344233E0
2.513171614E1,-1.686928272E0,-2.871392250E0,1.111375690E0,3.510808507E0
2.515109480E1,-1.622812748E0,-3.019981861E0,9.979770184E-1,3.570681978E0
2.517044294E1,-1.349753857E0,-2.840084553E0,7.735030651E-1,3.238243773E0
2.518982161E1,-9.856805801E-1,-2.760516167E0,4.435152113E-1,2.964577787E0
2.520920027E1,-4.865250587E-1,-2.814743996E0,2.321355641E-1,2.865899041E0
2.522857893E1,6.778192520E-2,-2.966942787E0,2.323384583E-1,2.976797785E0
2.524795759E1,5.717363358E-1,-3.185461044E0,2.449830770E-1,3.245621853E0
2.526733626E1,1.200176239E0,-3.166703701E0,3.271401227E-1,3.402272181E0
2.528668440E1,1.901718140E0,-2.915510178E0,2.031697631E-1,3.486833726E0
2.530606306E1,2.681403160E0,-2.473159313E0,7.877860963E-2,3.648649882E0
2.532544172E1,3.748563290E0,-1.722342014E0,-6.681634486E-2,4.125851812E0
2.534478987E1,5.031838894E0,-1.051819324E0,-4.243527353E-1,5.158081212E0
2.536416853E1,5.920163155E0,-9.746828079E-1,-8.032817841E-1,6.053395739E0
2.538354719E1,7.436092854E0,4.912767410E-1,-9.834421873E-1,7.516913482E0
2.540289534E1,8.535385132E0,1.728043556E0,-1.029198647E0,8.769160948E0
2.542227400E1,7.600564003E0,7.893056870E-1,-1.352783680E0,7.760257748E0
2.544165266E1,6.337063313E0,1.537427902E-1,-1.693436861E0,6.561229814E0
2.546100081E1,6.070512295E0,6.617574692E-1,-1.410199642E0,6.267192793E0
2.548037947E1,6.428257942E0,2.118877411E0,-8.888550401E-1,6.826580765E0
2.549975813E1,5.998534679E0,2.871624470E0,-3.934072256E-1,6.662087859E0
2.551913679E1,4.278997421E0,2.386385918E0,-4.948193431E-1,4.924378424E0
2.553851546E1,2.087273121E0,1.125886917E0,-6.292865276E-1,2.453636478E0
2.555789412E1,2.165164948E-1,-6.609582901E-2,-7.974339724E-1,8.289445044E-1
2.557724226E1,-1.030349255E0,-9.872498512E-1,-8.407893777E-1,1.656263455E0
2.559662092E1,-1.667506695E0,-1.590455055E0,-5.839039683E-1,2.377197868E0
2.561599959E1,-2.114382267E0,-1.887631416E0,-2.174962163E-1,2.842722171E0
2.563534773E1,-2.488779545E0,-1.954381466E0,1.613891721E-1,3.168544934E0
2.565472639E1,-2.839180946E0,-1.678132534E0,2.628085911E-1,3.308495973E0
2.567410505E1,-3.122838020E0,-1.185318470E0,3.462107778E-1,3.358118384E0
2.569345320E1,-3.415513039E0,-4.796295166E-1,1.723985225E-1,3.453331007E0
2.571283186E1,-3.559384346E0,3.371148109E-1,-4.933124781E-2,3.575653352E0
2.573221052E1,-3.667626381E0,1.134986401E0,-2.396664023E-1,3.846702144E0
2.575155867E1,-3.601211548E0,1.997903824E0,-3.902181685E-1,4.136739600E0
2.577093733E1,-3.445478439E0,2.725157976E0,-5.320211649E-1,4.425025897E0
2.579031599E1,-3.247142792E0,3.399794579E0,-6.162581444E-1,4.741551812E0
2.580969465E1,-2.953012466E0,4.019645214E0,-6.004695296E-1,5.023782831E0
2.582907332E1,-2.683682442E0,4.522660732E0,-4.876842797E-1,5.281519431E0
2.584845198E1,-2.427812576E0,5.010161400E0,-2.089959979E-1,5.571325739E0
2.586780012E1,-2.553671837E0,4.829059601E0,1.918271184E-1,5.466063860E0
2.588717879E1,-2.265974998E0,4.849102020E0,3.981111050E-1,5.367208357E0
2.590655745E1,-1.098703384E0,5.734504700E0,7.438209653E-1,5.885997189E0
2.592590559E1,-7.053298950E-1,5.021924973E0,9.030624628E-1,5.150994322E0
2.594528425E1,-1.365452766E0,3.029838324E0,7.572837472E-1,3.408498232E0
2.596466292E1,-1.487061501E0,2.429316998E0,7.442012429E-1,2.943937579E0
2.598401106E1,-3.469209671E-1,3.822236538E0,6.423738003E-1,3.891335299E0
2.600338972E1,9.429416656E-1,4.942355156E0,4.839525223E-1,5.054722892E0
2.602276838E1,1.265783310E0,4.233456135E0,1.879348159E-1,4.422632443E0
2.604211653E1,1.076295853E0,2.677448750E0,-1.500318646E-1,2.889576808E0
2.606149519E1,5.892987251E-1,1.110754490E0,-3.915268779E-1,1.316944122E0
2.608087385E1,2.386264801E-1,-7.312536240E-2,-3.103620112E-1,3.982643514E-1
2.610025252E1,-1.363749504E-1,-1.219359398E0,-2.696388364E-1,1.256240650E0
2.611963118E1,-4.980125427E-1,-2.259714127E0,-1.403957605E-2,2.313983910E0
2.613900984E1,-7.330093384E-1,-2.986080647E0,7.014955580E-2,3.075532682E0
2.615835798E1,-7.831249237E-1,-3.476178646E0,4.395808280E-2,3.563570532E0
2.617773665E1,-7.562117577E-1,-3.573934555E0,-3.141254932E-2,3.653197391E0
2.619711531E1,-6.088089943E-1,-3.420101166E0,-2.571854293E-1,3.483372607E0
2.621646345E1,-4.645009041E-1,-3.352054119E0,-4.608138800E-1,3.415315116E0
2.623584212E1,-2.149677277E-1,-3.309157372E0,-4.842165112E-1,3.351298146E0
2.625525130E1,1.830749512E-1,-3.417089939E0,-3.259107769E-1,3.437475516E0
2.627456892E1,8.093609810E-1,-3.208756447E0,-9.834846854E-2,3.310718284E0
2.629394758E1,1.675339222E0,-2.699149609E0,3.880684078E-2,3.177054625E0
2.631332625E1,2.597085953E0,-2.133371830E0,-1.929008961E-2,3.361027063E0
2.633267439E1,3.328176975E0,-1.741020679E0,-2.974320948E-1,3.767808492E0
2.635205305E1,4.267300129E0,-1.027081490E0,-6.533824205E-1,4.437528069E0
2.637146223E1,5.550145149E0,-1.574292183E-1,-9.341901541E-1,5.630417958E0
2.639081038E1,6.954974651E0,6.493911743E-1,-8.276658058E-1,7.034089279E0
2.641018904E1,8.218893051E0,1.576249123E0,-6.295130253E-1,8.392320950E0
2.642956770E1,8.188465118E0,1.104557037E0,-4.881483912E-1,8.277034257E0
2.644891585E1,6.781482697E0,-3.852472305E-1,-8.869073391E-1,6.850075008E0
2.646829451E1,5.806838512E0,-6.424989700E-1,-9.742376208E-1,5.922948369E0
2.648767317E1,5.785755634E0,1.909208298E-1,-5.782308578E-1,5.817711745E0
2.650702131E1,5.697997570E0,9.556770325E-1,-1.707758605E-1,5.780108934E0
2.652639998E1,5.066363811E0,1.315824986E0,-1.812051833E-1,5.237582742E0
2.654577864E1,3.924213409E0,1.097978115E0,-5.312017202E-1,4.109401671E0
2.656512678E1,2.396550655E0,3.139371872E-1,-1.000344038E0,2.615855462E0
2.658450544E1,8.160276413E-1,-7.278270721E-1,-1.255853057E0,1.665172741E0
2.660388411E1,-6.578311920E-1,-1.708898544E0,-1.337096453E0,2.267355957E0
2.662323225E1,-1.823247910E0,-2.251119137E0,-1.336703777E0,3.190383566E0
2.664261091E1,-2.638969898E0,-2.256185055E0,-1.243762732E0,3.688018283E0
2.666202009E1,-3.099340439E0,-1.807241917E0,-1.188790679E0,3.779584340E0
2.668136824E1,-3.331049919E0,-1.065668106E0,-1.148952007E0,3.681254242E0
2.670074690E1,-3.369132042E0,-2.713947296E-1,-1.175173283E0,3.578510592E0
2.672012556E1,-3.379146576E0,4.657893181E-1,-1.273363113E0,3.641022506E0
2.673947371E1,-3.416647911E0,9.973626137E-1,-1.443897367E0,3.840970546E0
2.675885237E1,-3.367691994E0,1.575336933E0,-1.607249618E0,4.050467522E0
2.677823103E1,-3.122261047E0,2.385415077E0,-1.699138403E0,4.280863283E0
2.679757918E1,-2.798799515E0,3.358217239E0,-1.698470592E0,4.689957793E0
2.681695784E1,-2.411098480E0,4.285248756E0,-1.657330513E0,5.188785717E0
2.683633650E1,-2.172163010E0,4.857445717E0,-1.627403259E0,5.564307001E0
2.685568464E1,-2.068083763E0,5.138318062E0,-1.483631611E0,5.734147340E0
2.687506331E1,-2.191784859E0,5.127052784E0,-1.051385164E0,5.674152085E0
2.689444197E1,-2.232610703E0,5.271924019E0,-4.282334447E-1,5.741177344E0
2.691379011E1,-1.681601524E0,6.246550560E0,2.049344778E-2,6.468971910E0
2.693316878E1,-1.236473083E0,6.008989811E0,3.248354793E-1,6.143479659E0
2.695257796E1,-1.600438118E0,4.086164474E0,3.159984350E-1,4.399772414E0
2.697192610E1,-1.515221596E0,3.309278250E0,6.925733089E-1,3.704980001E0
2.699130476E1,-6.128721237E-1,3.988710403E0,1.066910982E0,4.174173208E0
2.701068342E1,5.364122391E-1,4.844449997E0,1.216180801E0,5.023497746E0
2.703003157E1,8.454160690E-1,4.571983337E0,1.077046037E0,4.772608106E0
2.704941023E1,4.026441574E-1,3.405931950E0,7.548451424E-1,3.511735462E0
2.706878889E1,-2.573099136E-1,1.698534489E0,4.838451743E-1,1.784750390E0
2.708813704E1,-7.175588608E-1,8.648920059E-2,4.252803028E-1,8.385907443E-1
2.710751570E1,-7.798171043E-1,-1.068547726E0,6.926914454E-1,1.493228180E0
2.712689436E1,-8.085021973E-1,-2.127468586E0,9.629462361E-1,2.471247426E0
2.714624250E1,-1.062165737E0,-2.669099331E0,9.055206776E-1,3.012018424E0
2.716562117E1,-1.077361584E0,-3.126933575E0,9.237839580E-1,3.433918806E0
2.718499983E1,-9.542026520E-1,-3.346794128E0,7.084851265E-1,3.551546820E0
2.720434797E1,-5.415039062E-1,-3.206805229E0,4.308760762E-1,3.280621961E0
2.722375715E1,6.892013550E-2,-2.973579407E0,2.163660079E-1,2.982237201E0
2.724313582E1,6.440415382E-1,-2.778621674E0,4.421114922E-3,2.852288109E0
2.726248396E1,1.194044590E0,-2.823398113E0,-2.233003676E-1,3.073626920E0
2.728186262E1,1.885096550E0,-2.724762440E0,-3.781421185E-1,3.334802965E0
2.730124129E1,2.724987984E0,-2.260537624E0,-6.017989516E-1,3.591344016E0
2.732058943E1,3.502976418E0,-1.646854401E0,-8.815590739E-1,3.969901712E0
2.733996809E1,4.363472939E0,-1.054525852E0,-1.117243290E0,4.626029986E0
2.735934675E1,5.433014393E0,-3.782882690E-1,-1.293553591E0,5.597680618E0
2.737869490E1,5.954673290E0,-8.350038528E-1,-1.444915533E0,6.184104327E0
2.739807356E1,6.339556217E0,-1.203823090E0,-1.307249665E0,6.583924722E0
2.741745222E1,7.243342400E0,6.260299683E-2,-1.017663002E0,7.314749910E0
2.743680037E1,7.028995514E0,3.743953705E-1,-1.160654783E0,7.134007945E0
2.745617903E1,5.775978565E0,-4.261560440E-1,-1.366481423E0,5.950698181E0
2.747555769E1,5.109497547E0,-4.297313690E-1,-1.606279016E0,5.373245435E0
2.749490584E1,5.715667248E0,6.236486435E-1,-1.176431179E0,5.868711957E0
2.751431502E1,6.219350338E0,1.540444374E0,-8.352980614E-1,6.461502174E0
2.753369368E1,6.024531841E0,1.775985718E0,-7.169692516E-1,6.321641724E0
2.755304182E1,4.983242035E0,1.471112251E0,-8.958246112E-1,5.272511182E0
2.757242048E1,3.461325169E0,6.584825516E-1,-1.289500952E0,3.751957342E0
2.759179915E1,1.664665699E0,-7.021327019E-1,-1.566843033E0,2.391463843E0
2.761114729E1,8.579635620E-2,-1.770595551E0,-1.678093433E0,2.440976688E0
2.763052595E1,-9.930715561E-1,-2.207089424E0,-1.525457621E0,2.860848789E0
2.764990462E1,-1.793498993E0,-1.992899418E0,-1.259779453E0,2.962318517E0
2.766925276E1,-2.399930954E0,-1.424816132E0,-1.054530025E0,2.983588974E0
2.768863142E1,-2.865235329E0,-6.926670074E-1,-9.260697961E-1,3.089816554E0
2.770801008E1,-3.243721008E0,-4.572391510E-3,-8.923348188E-1,3.364224772E0
2.772735823E1,-3.524475098E0,6.200466156E-1,-1.036322594E0,3.725633777E0
2.774673689E1,-3.602378845E0,1.213456154E0,-1.205884457E0,3.987952671E0
2.776611555E1,-3.453516006E0,1.774064064E0,-1.352332830E0,4.111311250E0
2.778546370E1,-3.221307755E0,2.425578594E0,-1.439647913E0,4.281686733E0
2.780487288E1,-2.964871407E0,3.307963133E0,-1.367981434E0,4.648059353E0
2.782425154E1,-2.784249306E0,4.080189705E0,-1.170880318E0,5.076509918E0
2.784359968E1,-2.729362488E0,4.479369640E0,-1.036132693E0,5.346750688E0
2.786297835E1,-2.532817841E0,5.060443878E0,-1.006384134E0,5.747701061E0
2.788235701E1,-2.368183136E0,5.734616280E0,-8.809887171E-1,6.266598468E0
2.790173567E1,-2.615512848E0,5.689925194E0,-6.298545003E-1,6.293875822E0
2.792108381E1,-2.425326347E0,5.857839108E0,-3.587417006E-1,6.350211218E0
2.794046248E1,-1.264573097E0,6.677671432E0,9.405899048E-2,6.797005809E0
2.795981062E1,-8.637733459E-1,5.870618820E0,2.982223034E-1,5.941313514E0
2.797918928E1,-1.318385124E0,3.714105844E0,1.527132392E-1,3.944114970E0
2.799856794E1,-1.075857162E0,2.686609030E0,2.564452291E-1,2.905357270E0
2.801791609E1,-5.432796478E-2,3.271502972E0,6.488121152E-1,3.335661911E0
2.803729475E1,6.689262390E-1,3.925037384E0,9.355497360E-1,4.090065291E0
2.805667341E1,6.382617950E-1,3.550755024E0,9.896000624E-1,3.740928714E0
2.807602156E1,1.386451721E-2,2.383886337E0,8.454250097E-1,2.529397110E0
2.809543074E1,-6.948270798E-1,1.109723091E0,3.136329055E-1,1.346341565E0
2.811480940E1,-1.081481934E0,-1.437001228E-1,-9.833589196E-2,1.095409898E0
2.813415754E1,-1.232278824E0,-1.159977913E0,-3.563159704E-1,1.729456831E0
2.815353621E1,-1.306471348E0,-2.008512497E0,-4.711880088E-1,2.441927102E0
2.817291487E1,-1.242264748E0,-2.707893848E0,-5.221899748E-1,3.024664141E0
2.819226301E1,-1.020610332E0,-3.122337818E0,-5.022063255E-1,3.323078406E0
2.821164168E1,-6.009140015E-1,-3.157250404E0,-5.394978523E-1,3.258893322E0
2.823102034E1,-5.076885223E-3,-2.960600376E0,-5.996800661E-1,3.020727817E0
2.825036848E1,6.335020065E-1,-2.781728745E0,-6.785206795E-1,2.932529610E0
2.826974714E1,1.218687057E0,-2.810538769E0,-7.284376025E-1,3.148800987E0
2.828912581E1,1.781758785E0,-2.938719749E0,-7.046213150E-1,3.508166092E0
2.830847395E1,2.230582714E0,-3.147809982E0,-6.603117585E-1,3.914105076E0
2.832785261E1,2.783306122E0,-3.099350452E0,-6.150733232E-1,4.210829062E0
2.834723128E1,3.636766911E0,-2.457717896E0,-6.754078269E-1,4.441016387E0
2.836660994E1,4.539026737E0,-1.742426872E0,-7.884541750E-1,4.925492373E0
2.838598860E1,5.539886475E0,-8.061151505E-1,-1.033726215E0,5.692868668E0
2.840536726E1,6.369412422E0,-1.593770981E-1,-1.267365694E0,6.496232098E0
2.842471541E1,6.854739189E0,-1.382732391E-1,-1.290456176E0,6.976521051E0
2.844409407E1,7.604422092E0,6.303758621E-1,-1.078737736E0,7.706379448E0
2.846347273E1,7.542551517E0,6.876420975E-1,-8.925747871E-1,7.626245787E0
2.848282088E1,6.058882236E0,-6.471242905E-1,-1.082939982E0,6.188827256E0
2.850219954E1,4.970870495E0,-1.292433739E0,-1.159563541E0,5.265408441E0
2.852157820E1,5.373816490E0,-3.942518234E-1,-5.582867861E-1,5.417104605E0
2.854092634E1,5.979170322E0,8.712854385E-1,-3.025186062E-2,6.042394495E0
2.856030500E1,5.909432888E0,1.578426361E0,6.512534618E-2,6.116949252E0
2.857968367E1,4.793814182E0,1.324733734E0,-3.105993271E-1,4.983176278E0
2.859903181E1,3.232684135E0,8.079538345E-1,-9.325676560E-1,3.460161637E0
2.861841047E1,1.485839367E0,1.129589081E-1,-1.267995358E0,1.956601790E0
2.863778914E1,-2.650890350E-1,-5.633864403E-1,-1.255387187E0,1.401311338E0
2.865716780E1,-1.814641953E0,-1.167970181E0,-1.121816278E0,2.432190683E0
2.867654646E1,-2.944467068E0,-1.500460148E0,-1.054574966E0,3.468918467E0
2.869592512E1,-3.475188732E0,-1.373927593E0,-1.047528148E0,3.880970108E0
2.871527327E1,-3.586730957E0,-7.618718147E-1,-9.122939706E-1,3.778540447E0
2.873465193E1,-3.561588287E0,6.514310837E-2,-7.288495302E-1,3.635983552E0
2.875403059E1,-3.520651817E0,8.408055305E-1,-6.788110137E-1,3.682760860E0
2.877337874E1,-3.536803246E0,1.406211376E0,-8.424891233E-1,3.898229798E0
2.879275740E1,-3.431896210E0,1.942965984E0,-1.097122192E0,4.093495513E0
2.881213606E1,-3.307442665E0,2.491556644E0,-1.265815020E0,4.330048401E0
2.883148421E1,-3.104262352E0,3.320854187E0,-1.242226839E0,4.712498785E0
2.885086287E1,-2.955677032E0,4.170947552E0,-1.077509165E0,5.224352228E0
2.887021101E1,-3.092454910E0,4.680612564E0,-8.763188720E-1,5.677970246E0
2.888958967E1,-3.201156616E0,4.984364986E0,-7.413656116E-1,5.970001756E0
2.890896834E1,-3.031242371E0,5.376961708E0,-6.461113691E-1,6.206255507E0
2.892834700E1,-2.869475365E0,5.467967033E0,-2.919222713E-1,6.182052326E0
2.894772566E1,-2.573095322E0,5.572448730E0,5.609285831E-2,6.138090159E0
2.896710432E1,-1.622585297E0,6.223898888E0,5.783021450E-1,6.457873782E0
2.898648298E1,-9.642162323E-1,5.835217476E0,8.513115644E-1,5.975299768E0
2.900583113E1,-1.365991592E0,3.751216173E0,7.622549534E-1,4.064306635E0
2.902520979E1,-1.499814034E0,2.151604414E0,5.574997663E-1,2.681352211E0
2.904458845E1,-4.611845016E-1,2.494759083E0,7.149245143E-1,2.635835937E0
2.906393660E1,8.513984680E-1,3.705248833E0,9.933630228E-1,3.929442500E0
2.908331526E1,1.350409508E0,3.938564777E0,9.524232149E-1,4.271183481E0
2.910269392E1,1.023317337E0,2.920403481E0,7.039137483E-1,3.173551548E0
2.912204207E1,4.395761490E-1,1.636676788E0,1.300859302E-1,1.699664805E0
2.914142073E1,5.342483521E-3,1.916298866E-1,-1.602154970E-1,2.498390703E-1
2.916079939E1,-3.145813942E-1,-1.226426601E0,-2.839915752E-1,1.297588100E0
2.918014754E1,-6.221327782E-1,-2.207301140E0,-2.875474691E-1,2.311257463E0
2.919952620E1,-7.308197021E-1,-3.116112232E0,-1.468175948E-1,3.204030007E0
2.921890486E1,-7.195167542E-1,-3.598289013E0,-4.837194085E-2,3.669840327E0
2.923828352E1,-4.483571053E-1,-3.739471436E0,-2.391129732E-2,3.766330105E0
2.925766218E1,-3.060436249E-2,-3.773067474E0,3.451181948E-2,3.773349422E0
2.927704085E1,4.535498619E-1,-3.498196125E0,-6.244413555E-2,3.528028185E0
2.929638899E1,9.662208557E-1,-3.073453426E0,-3.306861520E-1,3.238680601E0
2.931579817E1,1.597314835E0,-2.724050045E0,-5.526708364E-1,3.205824135E0
2.933514631E1,2.112895489E0,-2.587274075E0,-7.238190770E-1,3.417927521E0
2.935449446E1,2.409824848E0,-2.600454807E0,-1.063223362E0,3.701359875E0
2.937387312E1,2.948177814E0,-2.276470184E0,-1.173299670E0,3.905214596E0
2.939325178E1,3.879361629E0,-1.683420181E0,-1.092030287E0,4.367594339E0
2.941259993E1,4.946767807E0,-7.269020081E-1,-9.671098590E-1,5.092563180E0
2.943197859E1,5.521064281E0,-2.919807434E-1,-1.085751772E0,5.634381995E0
2.945135725E1,5.937368393E0,-5.061550140E-1,-8.719189763E-1,6.022356601E0
2.947070540E1,6.626536369E0,3.428344727E-1,-6.918791533E-1,6.671372909E0
2.949008406E1,6.631842613E0,6.541023254E-1,-6.617414355E-1,6.696796848E0
2.950946272E1,5.548510075E0,2.667903900E-2,-7.546236515E-1,5.599654692E0
2.952884138E1,5.043842316E0,1.428871155E-1,-8.558203578E-1,5.117928342E0
2.954822004E1,5.317855835E0,6.968107224E-1,-6.558023691E-1,5.403259443E0
2.956756819E1,5.436900139E0,1.338177681E0,-1.882498264E-1,5.602324573E0
2.958694685E1,4.893455029E0,1.619196892E0,8.278201520E-2,5.155051266E0
2.960632551E1,3.670419216E0,1.626521587E0,-1.140236855E-4,4.014666824E0
2.962567366E1,2.135715485E0,1.167490482E0,-1.194214821E-1,2.436919397E0
2.964505232E1,2.093749046E-1,7.287311554E-2,-4.323124886E-1,4.858419799E-1
2.966443098E1,-1.444313049E0,-1.002775669E0,-5.932869911E-1,1.855690890E0
2.968377913E1,-2.383925915E0,-1.824054718E0,-6.147127151E-1,3.064008829E0
2.970315779E1,-2.601846218E0,-2.171932697E0,-5.998079181E-1,3.441898447E0
2.972253645E1,-2.308827877E0,-1.933195114E0,-4.925995469E-1,3.051324930E0
2.974188460E1,-1.910654545E0,-1.119940281E0,-3.352596164E-1,2.239925453E0
2.976126326E1,-1.932015419E0,-5.214004517E-1,-4.269819260E-1,2.046180729E0
2.978064192E1,-2.190285206E0,-9.368515015E-2,-5.196685195E-1,2.253038295E0
2.980002058E1,-2.539533615E0,2.119574547E-1,-5.211116672E-1,2.601098675E0
2.981939924E1,-2.792200089E0,6.040930748E-1,-4.214105904E-1,2.887714782E0
2.983877791E1,-2.844066620E0,1.201038837E0,-1.206188351E-1,3.089621034E0
2.985812605E1,-2.856302261E0,1.999825001E0,3.338947892E-3,3.486799936E0
2.987750471E1,-2.656084061E0,3.047774792E0,-4.355432093E-2,4.042970529E0
2.989688338E1,-2.418169022E0,3.873028755E0,-1.398253441E-1,4.568089785E0
2.991623152E1,-2.410154343E0,4.152387619E0,-2.346137166E-1,4.806891978E0
2.993561018E1,-2.147804260E0,4.719078064E0,-2.684993446E-1,5.191806315E0
2.995498884E1,-1.872108459E0,5.286750793E0,-1.138946488E-1,5.609589649E0
2.997433699E1,-1.100461006E0,6.428126335E0,8.690590411E-2,6.522221649E0
2.999371565E1,-6.200294495E-1,6.434112549E0,1.260089725E-1,6.465146485E0
