"Time (s)","Linear Acceleration x (m/s^2)","Linear Acceleration y (m/s^2)","Linear Acceleration z (m/s^2)","Absolute acceleration (m/s^2)"
1.573035610E-1,-2.358660698E0,3.809869766E0,1.390208364E0,4.691595381E0
1.766822230E-1,7.468317747E-1,2.123716354E0,4.335407734E0,4.885047500E0
1.960303680E-1,2.098704338E0,1.564614296E0,5.583597183E0,6.166776735E0
2.154090300E-1,-5.337736607E-1,3.361822128E0,4.204296589E0,5.409516813E0
2.347876920E-1,-2.588593006E0,6.182780266E0,4.480955124E0,8.062663604E0
2.541358360E-1,-1.081820846E0,7.827375412E0,6.091006279E0,9.976898299E0
2.735144990E-1,7.683925629E-1,7.932730675E0,5.168672562E0,9.499148338E0
2.928931610E-1,6.421540976E-1,4.805008888E0,4.523083687E0,6.630140145E0
3.122413050E-1,3.410574198E-1,7.687511444E-1,3.129163742E0,3.240210519E0
3.316199670E-1,3.072435856E-1,-1.950489044E0,2.382791758E0,3.094592492E0
3.510291470E-1,1.838179827E-1,-3.716340065E0,3.128380060E0,4.861248228E0
3.703772910E-1,-1.082377315E0,-5.179484367E0,2.832101822E0,6.001616423E0
3.897559540E-1,-2.299880981E0,-4.898486137E0,2.718240738E0,6.055860936E0
4.091346160E-1,-2.329554558E0,-4.585350037E0,3.019316435E0,5.963935876E0
4.284827600E-1,-1.700268269E0,-4.063396454E0,3.107444048E0,5.390576169E0
4.478614220E-1,-6.399711370E-1,-3.267045975E0,3.305835009E0,4.691662558E0
4.672400840E-1,3.873276711E-2,-2.394392967E0,2.737849236E0,3.637366677E0
4.866187470E-1,4.997028112E-1,-2.169156075E0,1.488867521E0,2.677996914E0
5.059668910E-1,1.421794891E0,-2.621639252E0,9.791016579E-2,2.983970422E0
5.253455530E-1,2.654618740E0,-2.861930847E0,-6.664769650E-1,3.960030350E0
5.447242150E-1,2.846044779E0,7.050199509E-1,1.186161280E0,3.162910463E0
5.640723600E-1,2.750634193E0,5.446552277E0,6.531818390E0,8.938432281E0
5.834510220E-1,-2.326154709E-1,5.773658752E0,1.836888790E-1,5.781261709E0
6.028296840E-1,1.922932982E0,2.570997238E0,-8.945462227E0,9.504156591E0
6.222083460E-1,5.083627701E0,3.026882172E0,-4.076378345E0,7.184855371E0
6.415870080E-1,6.446009636E0,7.107730865E0,6.902327061E0,1.182002526E1
6.609656700E-1,-2.869045258E0,1.014445686E1,5.048120975E0,1.168866764E1
6.803443330E-1,-8.977117538E0,7.097835541E0,3.624002934E0,1.200422034E1
6.996924770E-1,-7.318247795E0,4.038276672E-1,2.610012054E0,7.780230748E0
7.190711390E-1,-4.887559891E0,-1.461545944E0,4.960639954E0,7.115638199E0
7.384192840E-1,-3.678409338E0,2.903918266E0,4.907039642E0,6.785460530E0
7.577979460E-1,-2.191042662E0,7.416878700E0,3.185137987E0,8.363962075E0
7.771766080E-1,-3.674929142E-1,4.013670921E0,2.715626001E0,4.859961922E0
7.965247520E-1,-6.369972229E-2,9.634685516E-2,2.729218721E0,2.731661619E0
8.159034150E-1,-9.812879562E-1,-1.511708260E0,2.674459696E0,3.225046136E0
8.352820770E-1,-1.453525543E0,-3.090339661E0,3.026617527E0,4.563260827E0
8.546607390E-1,-1.777126551E0,-3.854462624E0,3.391404629E0,5.432926122E0
8.740088830E-1,-2.076448202E0,-3.772599220E0,3.007729292E0,5.252673368E0
8.933875450E-1,-2.107947826E0,-3.331639290E0,2.169359922E0,4.499931874E0
9.127967250E-1,-2.074820042E0,-3.426136971E0,2.198207378E0,4.568961416E0
9.321448700E-1,-2.358464241E0,-3.510574341E0,2.170161009E0,4.753533905E0
9.515235320E-1,-2.099879265E0,-3.043609619E0,1.639313698E0,4.044799357E0
9.709021940E-1,-1.095958114E0,-2.502711296E0,1.211533070E0,2.988728893E0
9.902503380E-1,-4.290705919E-1,-1.408005714E0,1.648945808E0,2.210340233E0
1.009629000E0,-9.750128984E-1,2.351179123E-1,1.702550650E0,1.976008426E0
1.029007663E0,-1.576221228E0,5.028657913E-1,2.335631847E-1,1.670897700E0
1.048355807E0,-4.476058483E-1,1.503028870E-1,-9.128162861E-1,1.027704007E0
1.067734469E0,2.344637394E0,-4.318265915E-1,-2.140896320E0,3.204252763E0
1.087113131E0,3.059757233E0,1.079425812E-1,-2.782105446E0,4.136892147E0
1.106461276E0,1.364667892E0,2.173163414E0,-1.987786293E0,3.245959339E0
1.125839938E0,-2.144727230E0,4.931965828E0,1.045145631E0,5.478728978E0
1.145218600E0,-4.114667892E0,4.778747559E0,3.814373970E0,7.369963967E0
1.164566745E0,-2.939067364E0,2.188314438E0,6.555976391E0,7.510503544E0
1.183945407E0,1.130477667E0,-1.764611244E0,4.448511124E0,4.917426544E0
1.203354586E0,1.356880903E0,3.137750626E-1,2.820877075E0,3.145938342E0
1.222702731E0,-1.356347084E0,4.736298561E0,4.568449974E0,6.718849354E0
1.242081393E0,-1.656676173E0,1.027057362E1,5.512897968E0,1.177375481E1
1.261460055E0,1.053662539E0,1.028736877E1,7.408203125E0,1.272091328E1
1.280838717E0,1.626648188E0,5.609526634E0,3.639083147E0,6.881547757E0
1.300186862E0,-3.368264437E-1,1.136759758E0,2.284786463E0,2.574087019E0
1.319565524E0,1.894582510E-1,-1.716866493E0,1.791705847E0,2.488721524E0
1.338944186E0,4.188643694E-1,-3.048675537E0,3.552659273E0,4.700133807E0
1.358292331E0,-5.857897997E-1,-4.568012238E0,3.678773403E0,5.894341290E0
1.377670993E0,-2.051250935E0,-4.386013031E0,3.532153606E0,5.993400521E0
1.397049655E0,-2.594252586E0,-4.287188530E0,2.507892370E0,5.603539606E0
1.416397799E0,-1.965445161E0,-3.609612465E0,2.554716587E0,4.839303015E0
1.435776461E0,-8.093903065E-1,-3.087821007E0,3.150945663E0,4.485332743E0
1.455155124E0,-1.265764236E-1,-3.052714348E0,3.170030117E0,4.402746577E0
1.474533786E0,1.084914207E-1,-2.877610207E0,2.321791649E0,3.699071147E0
1.493912448E0,7.811831236E-1,-2.478735924E0,7.352979183E-1,2.700933520E0
1.513291110E0,2.220830441E0,-2.430333138E0,-8.762900829E-1,3.406830098E0
1.532639254E0,3.933446646E0,-1.245712280E0,5.223865509E-1,4.158928866E0
1.552017916E0,4.760577202E0,2.378714561E0,3.875834942E0,6.583576137E0
1.571396579E0,7.121226788E-1,7.255496025E0,6.519317150E0,9.780124610E0
1.590744723E0,7.900846004E-2,3.474816322E0,-7.567892551E0,8.327880191E0
1.610123385E0,2.599974632E0,2.213442802E0,-8.105245590E0,8.795123831E0
1.629502047E0,4.758199692E0,6.079019547E0,7.404706001E0,1.069694414E1
1.648880709E0,-2.370209455E0,1.065152454E1,9.912975311E0,1.474245392E1
1.668228854E0,-6.747851849E0,8.177285194E0,3.404567480E0,1.113519544E1
1.687607516E0,-5.666005611E0,1.924124718E0,1.209666491E0,6.104847954E0
1.706986178E0,-4.997248650E0,-1.770830154E-1,4.781965733E0,6.918890715E0
1.726334323E0,-4.073326111E0,4.693631172E0,4.644680023E0,7.758557321E0
1.745712985E0,-2.710321188E0,7.781550407E0,2.574754953E0,8.632944501E0
1.765091647E0,-1.464877129E0,2.981471062E0,2.315493584E0,4.049264776E0
1.784470309E0,-1.657802582E0,1.753997803E-1,2.448747158E0,2.962336430E0
1.803848971E0,-2.172078371E0,-1.879800797E0,2.914699078E0,4.092315506E0
1.823227633E0,-2.398978472E0,-3.792778969E0,3.472691536E0,5.674491741E0
1.842575778E0,-2.301350355E0,-4.349222183E0,3.367348671E0,5.962464602E0
1.861984958E0,-1.939331055E0,-4.265275002E0,2.812644958E0,5.464846516E0
1.881333102E0,-1.472345471E0,-4.605566025E0,2.006620407E0,5.235032479E0
1.900681247E0,-1.354761958E0,-4.403022766E0,1.749952555E0,4.927912680E0
1.920059909E0,-1.341310859E0,-4.101655960E0,1.648040295E0,4.619386674E0
1.939438571E0,-1.152906775E0,-3.181982040E0,1.864700556E0,3.864105576E0
1.958786715E0,-8.743510246E-1,-1.710119247E0,1.489952564E0,2.430834465E0
1.978165377E0,-6.962587833E-1,-1.310234070E-1,1.470520020E0,1.632290585E0
1.997544040E0,-5.653501749E-1,9.494924545E-1,1.519240379E0,1.878629307E0
2.016922702E0,-2.130633593E-1,1.561365128E0,1.351647973E0,2.076104357E0
2.036270846E0,1.443135738E-2,9.527406693E-1,8.468632698E-1,1.274794275E0
2.055680026E0,9.041094780E-1,1.674976349E-1,-1.751870513E0,1.978514519E0
2.075058688E0,1.761480212E0,6.517820358E-1,-2.742256403E0,3.323793396E0
2.094406833E0,5.137865543E-1,2.182021141E0,-1.715918422E0,2.823042492E0
2.113785495E0,-1.300773621E0,4.779790878E0,-3.667850494E-1,4.967186741E0
2.133164157E0,-1.965620160E0,5.253445625E0,1.992386222E0,5.952474814E0
2.152512301E0,-2.531659603E-1,3.548686981E0,3.645198822E0,5.093598605E0
2.171890963E0,2.241860390E0,1.083850861E-1,5.417630196E0,5.864162538E0
2.191269625E0,9.517483711E-1,-6.962594986E-1,5.128281593E0,5.262116908E0
2.210617770E0,-1.922586203E0,1.805659294E0,3.779792070E0,4.609074884E0
2.229996432E0,-3.083927870E0,5.703716278E0,3.109346390E0,7.191037857E0
2.249375094E0,-6.495622396E-1,7.061294556E0,5.914782524E0,9.234092495E0
2.268723239E0,-3.869223595E-2,6.182327271E0,3.558627367E0,7.133477154E0
2.288101901E0,-6.612812281E-1,2.299745560E0,3.275413036E0,4.056408887E0
2.307480563E0,-1.751847267E-1,-8.299207687E-1,3.598875284E0,3.697480423E0
2.326828708E0,1.048417568E0,-2.343296051E0,2.690577745E0,3.718793404E0
2.346237887E0,7.372902632E-1,-3.708505630E0,3.260740280E0,4.992898769E0
2.365616549E0,-5.926475525E-1,-3.943588257E0,2.632385969E0,4.778344415E0
2.384964694E0,-1.817224979E0,-3.784274101E0,2.549111128E0,4.911313942E0
2.404343356E0,-2.466589451E0,-3.458718300E0,2.858170986E0,5.120150113E0
2.423722018E0,-2.135044098E0,-2.807409286E0,3.172429085E0,4.743866198E0
2.443100680E0,-1.591438055E0,-2.297410965E0,2.808892488E0,3.962404477E0
2.462448825E0,-1.007623911E0,-2.263154030E0,2.330651760E0,3.401339403E0
2.481827487E0,-7.445602417E-1,-2.153295517E0,1.612505198E0,2.791276509E0
2.501206149E0,-4.598069191E-2,-2.680118561E0,-3.883407116E-1,2.708497412E0
2.520554293E0,1.582287908E0,-3.173835754E0,-9.463860989E-1,3.670492483E0
2.539932956E0,3.042522192E0,4.394912720E-1,3.695349693E-1,3.096231574E0
2.559311618E0,3.952535629E0,5.211352348E0,9.724243164E0,1.171928480E1
2.578659762E0,-3.217098713E-1,4.272025108E0,-2.735203028E0,5.082817267E0
2.598038424E0,-1.820322275E-1,3.151648521E0,-1.067940712E1,1.113623637E1
2.617417086E0,4.390354156E0,2.921352386E0,-4.521780491E0,6.946654460E0
2.636795749E0,8.372944832E0,5.255978584E0,1.063778400E1,1.452218870E1
2.656174411E0,-1.882650375E0,8.862404823E0,7.109512806E0,1.151658647E1
2.675553073E0,-7.170975685E0,8.104402542E0,3.331334829E0,1.132263329E1
2.694901217E0,-6.134941101E0,2.743533134E0,1.062912941E0,6.803988558E0
2.714279879E0,-5.550780296E0,6.470975876E-1,4.380661964E0,7.100710981E0
2.733658541E0,-3.200532436E0,4.720347404E0,4.283985138E0,7.132854699E0
2.753006686E0,-1.180475712E0,6.470312119E0,2.716115475E0,7.115879783E0
2.772385348E0,-1.335521460E0,2.648366928E0,2.344139099E0,3.780536082E0
2.791764010E0,-2.146093607E0,-4.964265823E-1,2.064371109E0,3.018904635E0
2.811142672E0,-2.805536985E0,-3.050349236E0,2.484820127E0,4.832183699E0
2.830490817E0,-3.240760088E0,-4.035179138E0,2.985744476E0,5.974936544E0
2.849869479E0,-3.322438955E0,-4.073140144E0,2.916083813E0,6.011041179E0
2.869248141E0,-2.955561161E0,-3.750423431E0,2.309698582E0,5.304311947E0
2.888596286E0,-2.161676645E0,-4.152689934E0,2.005709648E0,5.093186704E0
2.907974948E0,-1.845723867E0,-4.228387833E0,1.866786003E0,4.977032272E0
2.927384127E0,-1.282739878E0,-4.080540657E0,2.064505339E0,4.749570080E0
2.946732272E0,-7.592272758E-1,-3.218726158E0,1.545855999E0,3.650519813E0
2.966110934E0,-2.858390808E-1,-2.229720116E0,1.693865299E0,2.814699882E0
2.985489596E0,-4.738204479E-1,-1.220590591E0,1.446601033E0,1.951153955E0
3.004837741E0,-1.295304656E0,-6.245613098E-2,3.603591919E-1,1.345947127E0
3.024216403E0,-2.073586941E0,6.239461899E-1,-4.191116095E-1,2.205612430E0
3.043625583E0,-1.901896358E0,5.800628662E-1,-5.751333237E-1,2.069893964E0
3.062943209E0,6.474949121E-1,-5.344133377E-1,-2.148502827E0,2.306710141E0
3.082321872E0,1.522102356E0,1.184911728E-1,-1.856221080E0,2.403412665E0
3.101700534E0,4.008196592E-1,2.484971046E0,-1.375829697E0,2.868561461E0
3.121048678E0,-1.846704245E0,4.753494263E0,3.220849037E-1,5.109771321E0
3.140427340E0,-1.844130039E0,3.968537331E0,3.108132839E0,5.367550083E0
3.159806002E0,9.162962437E-1,2.129780769E0,5.734732628E0,6.185686966E0
3.179184665E0,1.198799133E0,1.185457230E0,3.705986261E0,4.071457033E0
3.198563327E0,-1.583265901E0,3.217410088E0,4.000998497E0,5.372750465E0
3.217941989E0,-2.527346611E0,6.419865608E0,4.407129288E0,8.186876320E0
3.237290133E0,8.163439035E-1,8.400930405E0,6.448462486E0,1.062189802E1
3.256668795E0,2.104383469E0,7.549955368E0,5.667143822E0,9.671958175E0
3.276047458E0,5.936042070E-1,3.273074150E0,4.850554466E0,5.881603436E0
3.295426120E0,7.539887428E-1,1.741771698E-1,3.515816689E0,3.599972736E0
3.314774264E0,6.636718512E-1,-1.979257584E0,2.261503458E0,3.077713242E0
3.334152926E0,5.469132662E-1,-3.226150513E0,2.407831430E0,4.062611654E0
3.353531588E0,-5.918751955E-1,-4.006806374E0,1.913411617E0,4.479504167E0
3.372879733E0,-1.802044392E0,-4.230912209E0,2.532335043E0,5.249828843E0
3.392258395E0,-2.035502434E0,-4.352438927E0,2.741009474E0,5.531738217E0
3.411637057E0,-1.685840249E0,-4.084842682E0,2.709223986E0,5.183424706E0
3.430985202E0,-1.004209876E0,-3.209465027E0,2.402478456E0,4.132917368E0
3.450363864E0,-5.572335720E-1,-2.521941185E0,1.946764946E0,3.234283591E0
3.469742526E0,-1.119779348E-1,-1.761946678E0,8.402311802E-1,1.955245149E0
3.489121188E0,8.443208933E-1,-1.824982643E0,-5.305464268E-1,2.079643943E0
3.508499850E0,2.238239765E0,-2.429332733E0,-1.571830273E0,3.658145046E0
3.527878512E0,3.964931011E0,-1.092101097E0,1.382460594E-1,4.114908833E0
3.547226657E0,5.078866482E0,2.560024261E0,8.663352966E0,1.036350778E1
3.566605319E0,2.478684187E-1,4.103462219E0,4.285518646E0,5.938477162E0
3.585983981E0,-4.818630219E-1,2.388209343E0,-9.282993317E0,9.597379890E0
3.605362643E0,2.593685627E0,2.656847000E0,-7.556587219E0,8.419504232E0
3.624710788E0,4.571458340E0,6.577101707E0,8.244398117E0,1.149463347E1
3.644089450E0,-1.327602148E0,1.045165348E1,1.158387756E1,1.565841012E1
3.663468112E0,-6.460475922E0,8.836811066E0,1.314136505E0,1.102515005E1
3.682816256E0,-5.558710098E0,2.788442612E0,3.510396481E-1,6.228795950E0
3.702194918E0,-4.534473419E0,-6.986408234E-1,3.255322933E0,5.625537804E0
3.721573581E0,-4.078052521E0,2.411957741E0,4.196775436E0,6.329374106E0
3.740921725E0,-2.655463934E0,5.837276459E0,3.494058609E0,7.302994641E0
3.760300387E0,-1.924996138E0,3.889021873E0,3.034627914E0,5.295192899E0
3.779709567E0,-2.100854397E0,1.000264168E0,2.148317099E0,3.166920264E0
3.799057711E0,-2.347687006E0,-1.191483498E0,2.285445690E0,3.486334638E0
3.818436374E0,-2.378049850E0,-2.563567162E0,2.624423504E0,4.372024292E0
3.837815036E0,-2.299152613E0,-3.199257851E0,2.567505121E0,4.702492539E0
3.857163180E0,-2.183667421E0,-3.305330276E0,2.537584782E0,4.704566735E0
3.876541842E0,-1.553058863E0,-3.450844765E0,1.673735619E0,4.137839091E0
3.895920504E0,-1.181314230E0,-3.326743126E0,1.516635180E0,3.842252647E0
3.915268649E0,-1.142590880E0,-3.087317467E0,1.468989611E0,3.604854163E0
3.934647311E0,-1.195339799E0,-2.643205643E0,1.070694447E0,3.092209550E0
3.954025973E0,-1.222702265E0,-1.990275383E0,1.202693701E0,2.627293106E0
3.973404635E0,-1.290118337E0,-1.362468719E0,1.100228906E0,2.175139071E0
3.992752780E0,-9.284131527E-1,-1.166625977E0,4.847227335E-1,1.567776540E0
4.012131442E0,-4.649653435E-1,-1.053602219E0,-2.097913027E-1,1.170590789E0
4.031510104E0,-2.361488342E-1,-1.235239983E0,-1.460484266E-1,1.266062490E0
4.050888766E0,5.949032307E-2,-1.300117493E0,-1.003513455E0,1.643436597E0
4.070267428E0,1.190782785E0,-2.752542496E-1,-2.807274342E0,3.061783430E0
4.089646090E0,1.080352068E0,1.828691483E0,-2.666750431E0,3.409227330E0
4.108994235E0,-1.307878852E0,3.510804176E0,-5.811488032E-1,3.791309403E0
4.128372897E0,-2.869753361E0,3.196308136E0,1.017770529E0,4.414490560E0
4.147751559E0,-1.882061362E0,1.544958115E0,3.338531733E0,4.132171908E0
4.167099704E0,1.571913123E0,-1.114249229E0,3.720402479E0,4.189732309E0
4.186478366E0,2.692734718E0,4.662046432E-1,3.752917290E0,4.642472963E0
4.205857028E0,1.050332785E-1,5.566822052E0,6.299877167E0,8.407674593E0
4.225205172E0,-1.816204429E0,1.149245739E1,4.686113358E0,1.254331829E1
4.244583834E0,5.911743641E-2,1.282758331E1,4.487577438E0,1.359002354E1
4.263962497E0,8.904380798E-1,7.034618378E0,5.257481575E0,8.827221998E0
4.283310641E0,-5.046911240E-1,1.804195404E0,2.196715832E0,2.887108351E0
4.302689303E0,-4.452871084E-1,-5.769338608E-1,8.126420975E-1,1.091567894E0
4.322067965E0,6.646741629E-1,-2.842967987E0,1.877278566E0,3.471085354E0
4.341446627E0,3.782305717E-1,-4.135875702E0,2.752014637E0,4.982179317E0
4.360825290E0,-6.419460773E-1,-4.214460373E0,3.410322189E0,5.459310253E0
4.380203952E0,-1.503483057E0,-4.232486725E0,2.684190989E0,5.232521996E0
4.399582614E0,-1.848859191E0,-4.059163094E0,3.032045841E0,5.393365119E0
4.418930758E0,-1.384294987E0,-3.311275482E0,2.994912624E0,4.674432538E0
4.438309420E0,-5.964596272E-1,-2.689945221E0,2.853141785E0,3.966356946E0
4.457688083E0,-1.440765858E-1,-2.622936249E0,2.384602785E0,3.547799751E0
4.477036227E0,3.331595659E-1,-3.279753685E0,7.416565418E-1,3.379028552E0
4.496414889E0,1.223974705E0,-3.960692406E0,-8.433430195E-1,4.230416748E0
4.515793551E0,2.025708437E0,-2.456110954E0,4.987764359E-1,3.222538382E0
4.535141696E0,2.544406891E0,8.767528534E-1,5.110270500E0,5.775600971E0
4.554520358E0,-3.781596422E-1,3.106427193E0,4.638557434E0,5.595454377E0
4.573899020E0,-1.261858821E0,5.354338646E0,-4.252085686E0,6.952802507E0
4.593247165E0,3.142836571E0,3.509174347E0,-9.099821091E0,1.024687612E1
4.612625827E0,6.550352573E0,3.704639435E0,4.224076271E-1,7.537234266E0
4.632035006E0,6.187920570E0,7.840223312E0,7.238199711E0,1.233495025E1
4.651383151E0,-4.367861748E0,9.612948418E0,6.460156918E0,1.237823174E1
4.670761813E0,-7.314536095E0,5.293957710E0,2.328307152E0,9.324668397E0
4.690140475E0,-5.977499008E0,1.068111420E0,2.278593063E0,6.485625856E0
4.709488620E0,-5.618021488E0,1.003847122E0,4.434882641E0,7.227590091E0
4.728867282E0,-4.368950844E0,4.744360924E0,3.499822378E0,7.337945811E0
4.748245944E0,-2.044127941E0,6.135938644E0,2.404314756E0,6.899922575E0
4.767594088E0,-5.361294746E-1,2.850696564E0,2.186194181E0,3.632265231E0
4.786972750E0,-5.270559788E-1,-3.220462799E-2,1.539554119E0,1.627590866E0
4.806351413E0,-2.127716780E0,-1.787587166E0,2.889579535E0,4.009029366E0
4.825730075E0,-2.636795282E0,-2.922416687E0,3.271435976E0,5.118154159E0
4.845078219E0,-2.789934397E0,-4.228218079E0,2.857791662E0,5.816230329E0
4.864456881E0,-2.683957815E0,-4.276713371E0,2.313896894E0,5.554099896E0
4.883835543E0,-2.194390297E0,-4.373948097E0,2.119036674E0,5.332643543E0
4.903183688E0,-1.797942996E0,-4.166869164E0,1.427846909E0,4.757535542E0
4.922592868E0,-1.656326771E0,-4.134622574E0,1.083681345E0,4.583981616E0
4.941971530E0,-1.277512312E0,-3.250762939E0,1.171033859E0,3.683859076E0
4.961319674E0,-9.292730093E-1,-2.259228706E0,7.923679352E-1,2.568172428E0
4.980698336E0,-7.172169685E-1,-1.187005997E0,5.475564003E-1,1.491040384E0
5.000076999E0,-5.676465034E-1,2.568998337E-1,5.360555649E-1,8.219340886E-1
5.019425143E0,-3.965771198E-1,1.078632355E0,2.577345371E-1,1.177772584E0
5.038803805E0,5.230422020E-1,8.836393356E-1,-3.053752184E-1,1.071282243E0
5.058182467E0,1.918871164E0,8.275585175E-1,-1.718215942E0,2.705399355E0
5.077530612E0,2.383652449E0,7.034978867E-1,-2.210045815E0,3.325809792E0
5.096909274E0,1.068534136E0,1.914384842E0,-1.189575076E0,2.494338266E0
5.116287936E0,-2.076626778E0,4.384223938E0,4.244713783E-1,4.869699607E0
5.135636081E0,-2.912669182E0,4.552838326E0,1.741751552E0,5.678527718E0
5.155014743E0,-8.462508917E-1,1.446894646E0,3.811593533E0,4.163879194E0
5.174393405E0,1.807314038E0,-1.115759850E0,3.357752323E0,3.973135379E0
5.193772067E0,1.106204748E0,-4.280214310E-1,2.960685730E0,3.189443726E0
5.213150729E0,-9.310511351E-1,2.459306717E0,4.381109238E0,5.109712702E0
5.232529391E0,-1.409499288E0,8.387351036E0,4.327195168E0,9.542482049E0
5.251908053E0,1.120832324E0,1.030692673E1,4.729297161E0,1.139540501E1
5.271256198E0,1.568577170E0,6.405823708E0,4.138122559E0,7.785824942E0
5.290634860E0,4.593682289E-2,2.101398468E0,2.751258612E0,3.462283879E0
5.310013522E0,1.531078815E-1,-8.576335907E-1,2.155616045E0,2.325007082E0
5.329361666E0,4.788364172E-1,-2.399986267E0,2.810748577E0,3.726865434E0
5.348740329E0,1.983878613E-1,-3.782730103E0,2.471276045E0,4.522787864E0
5.368118991E0,-9.760406017E-1,-4.866508484E0,2.001191139E0,5.351665727E0
5.387467135E0,-2.088958740E0,-5.141304970E0,2.338603497E0,6.022111899E0
5.406845797E0,-2.483238220E0,-4.858788490E0,2.281706333E0,5.914429934E0
5.426224459E0,-2.052979946E0,-4.168506622E0,1.998523235E0,5.058188336E0
5.445572604E0,-1.220315695E0,-3.125821114E0,2.166225672E0,3.994053291E0
5.464951266E0,-4.105017185E-1,-2.307752609E0,2.017246962E0,3.092493989E0
5.484329928E0,6.191860437E-1,-2.159053802E0,6.723506451E-1,2.344559675E0
5.503708590E0,2.024384975E0,-2.618638992E0,-9.403057098E-1,3.440869008E0
5.523087252E0,3.537492752E0,-1.700038910E0,-2.548828125E-1,3.933058926E0
5.542465915E0,4.293704987E0,2.665424347E0,2.858172417E0,5.805991649E0
5.561814059E0,9.622089863E-1,6.649462700E0,7.799743652E0,1.029452288E1
5.581192721E0,-1.213369370E-1,3.686920166E0,-5.729399204E0,6.814258449E0
5.600571383E0,2.633615971E0,1.452605247E0,-1.039825344E1,1.082449397E1
5.619950045E0,5.170895100E0,4.100368500E0,1.160360813E0,6.700568273E0
5.639328708E0,4.618580341E0,7.556973457E0,1.242895985E1,1.526165702E1
5.658676852E0,-5.101407528E0,9.799158096E0,4.185606956E0,1.181385474E1
5.678055514E0,-6.318110466E0,3.956055641E0,-9.933981895E-1,7.520354783E0
5.697403659E0,-5.164859295E0,-7.186908722E-1,2.378943920E0,5.731636963E0
5.716782321E0,-4.198641777E0,4.154024124E-1,4.325434685E0,6.042394984E0
5.736160983E0,-2.980038881E0,5.864059448E0,3.062796354E0,7.255931812E0
5.755509127E0,-1.208234310E0,5.948199272E0,1.263018131E0,6.199687051E0
5.774918307E0,-3.392195702E-1,1.781746864E0,1.807410002E0,2.560551253E0
5.794296969E0,-1.046004772E0,-7.506513596E-1,2.704012871E0,2.994877135E0
5.813645114E0,-2.000061989E0,-2.952949524E0,3.221471071E0,4.806041481E0
5.833023776E0,-2.659927368E0,-3.892651558E0,3.417896986E0,5.823226731E0
5.852402438E0,-2.831629515E0,-3.724574089E0,3.124138355E0,5.625906000E0
5.871750583E0,-2.602374792E0,-4.035974503E0,2.482916117E0,5.406136993E0
5.891129245E0,-2.057938337E0,-4.522958755E0,1.660787821E0,5.239320785E0
5.910507907E0,-1.523502350E0,-4.199351311E0,8.012354374E-1,4.538456683E0
5.929856051E0,-7.706502676E-1,-3.553533554E0,1.112571478E0,3.802540973E0
5.949234713E0,-3.147132397E-1,-2.867999077E0,1.148415804E0,3.105369863E0
5.968613375E0,-3.325941563E-1,-1.939575195E0,4.721921682E-1,2.023743130E0
5.987992038E0,-2.798137665E-1,-8.711137772E-1,-3.570160866E-1,9.821381994E-1
6.007340182E0,9.776794910E-2,2.615194321E-1,-9.351660013E-1,9.759541153E-1
6.026718844E0,9.121079445E-1,2.945575714E-1,-5.545910597E-1,1.107373608E0
6.046097506E0,1.153355956E0,-9.300327301E-2,-2.307320833E-1,1.179880021E0
6.065476168E0,1.569494367E0,2.695751190E-2,-2.694408178E0,3.118312798E0
6.084854831E0,1.984153748E0,7.510175705E-1,-3.239291191E0,3.872195876E0
6.104233493E0,1.728637218E-1,3.763922691E0,-1.285580277E0,3.981169746E0
6.123581637E0,-3.373776436E0,5.555527687E0,1.335749030E0,6.635546759E0
6.142960299E0,-3.915986061E0,4.478463173E0,2.122341633E0,6.316321178E0
6.162338961E0,-7.437869310E-1,6.088047028E-1,5.211106777E0,5.299008965E0
6.181687106E0,8.244650364E-1,-1.161384583E0,5.896747589E0,6.066315923E0
6.201065768E0,-7.452452183E-1,1.579271317E0,2.938110590E0,3.417891479E0
6.220444430E0,-1.612357020E0,5.621357918E0,2.643415689E0,6.417710379E0
6.239792575E0,-4.946752787E-1,9.462331772E0,1.700815678E0,9.626692067E0
6.259171237E0,1.562426209E0,7.103641510E0,8.430869102E0,1.113474078E1
6.278549899E0,2.114430904E0,2.979308128E0,3.756258488E0,5.239901984E0
6.297898043E0,1.600011230E0,1.280832291E-1,2.237981796E0,2.754088555E0
6.317276706E0,1.733499646E0,-1.381858826E0,2.169566870E0,3.101866412E0
6.336655368E0,1.018542528E0,-3.291946411E0,1.909764051E0,3.939738416E0
6.356034030E0,-6.305280924E-1,-4.657715797E0,1.628326654E0,4.974266762E0
6.375412692E0,-2.291342974E0,-4.294154167E0,1.412806273E0,5.068139126E0
6.394791354E0,-2.623758316E0,-4.341866493E0,1.359361172E0,5.252025813E0
6.414170016E0,-2.221112728E0,-3.673758507E0,2.543210030E0,4.989765583E0
6.433518161E0,-1.507297754E0,-2.917402267E0,2.573303938E0,4.171939078E0
6.452896823E0,-6.326931715E-1,-2.336819649E0,2.505948544E0,3.484365771E0
6.472275485E0,2.419937849E-1,-2.153335571E0,1.361500502E0,2.559120687E0
6.491623629E0,1.598512411E0,-2.625926971E0,-6.657836437E-1,3.145473295E0
6.511002291E0,2.936409950E0,-3.287072182E0,-2.066534281E0,4.868050006E0
6.530380954E0,4.448034286E0,-1.202616692E0,7.658445835E-1,4.670954276E0
6.549729098E0,4.457939148E0,3.772135735E0,7.047818184E0,9.152812169E0
6.569107760E0,6.584361792E-1,6.051204681E0,1.957816601E0,6.394033323E0
6.588486422E0,2.103797197E0,3.041107178E0,-1.110763359E1,1.170699874E1
6.607834567E0,4.566221714E0,5.245823860E0,-2.883332729E0,7.528788504E0
6.627213229E0,4.658314228E0,8.442966461E0,8.316710472E0,1.273386223E1
6.646622409E0,-3.705004215E0,7.685364723E0,4.423348427E0,9.610301685E0
6.665970553E0,-5.571496964E0,4.294834137E0,1.941205978E0,7.297633817E0
6.685349215E0,-5.490968704E0,1.165283203E0,2.326337337E0,6.076221495E0
6.704727877E0,-6.337783337E0,2.330226898E-1,2.538800240E0,6.831347148E0
6.724076022E0,-4.675862312E0,4.744914055E0,1.005302906E0,6.737101134E0
6.743454684E0,-1.544926405E0,5.320027351E0,1.623049259E0,5.772675074E0
6.762833346E0,-6.416273117E-1,2.475157738E0,3.174423218E0,4.076156793E0
6.782181491E0,-8.070921898E-1,-1.769771576E-1,3.119226933E0,3.226808853E0
6.801560153E0,-1.696876287E0,-2.214101791E0,3.013550758E0,4.106473432E0
6.820969333E0,-2.165149689E0,-3.199634552E0,3.064792633E0,4.931377934E0
6.840317477E0,-2.262286663E0,-3.682790756E0,2.689614534E0,5.090669410E0
6.859665622E0,-2.264453173E0,-4.221986771E0,1.759970665E0,5.103960933E0
6.879044284E0,-2.248717785E0,-4.389106750E0,1.315203905E0,5.103993638E0
6.898422946E0,-1.810511112E0,-4.086230278E0,1.083983660E0,4.598939981E0
6.917801608E0,-1.552226424E0,-3.783022881E0,9.441682100E-1,4.196679949E0
6.937180270E0,-1.074523330E0,-3.033034325E0,4.237682819E-1,3.245531876E0
6.956558932E0,-5.129827261E-1,-2.005464554E0,-2.066167593E-1,2.080319648E0
6.975907077E0,9.133815765E-2,-1.108938217E0,-3.303228617E-1,1.160689373E0
6.995285739E0,4.112799168E-1,-3.246402740E-1,2.706289291E-3,5.239750008E-1
7.014664401E0,-4.410432577E-1,1.772365570E-1,6.121821404E-1,7.750476923E-1
7.034012545E0,-1.105096221E0,7.790174484E-1,-4.956519604E-1,1.440061356E0
7.053391208E0,8.435788155E-1,3.474073410E-1,-1.638892651E0,1.875709519E0
7.072769870E0,1.326110482E0,3.710622787E-1,-1.248496413E0,1.858762900E0
7.092118014E0,-2.180273533E-1,1.879357338E0,-1.814920902E0,2.621728020E0
7.111496676E0,-1.831532955E0,3.724733353E0,-1.492422104E0,4.410836117E0
7.130875338E0,-1.598661780E0,3.177254677E0,1.764313102E0,3.970323348E0
7.150223483E0,8.441805840E-3,1.842885971E0,4.554810047E0,4.913511426E0
7.169602145E0,1.826527715E0,1.096966743E0,2.369913340E0,3.186852486E0
7.188980807E0,9.611064196E-1,2.993419647E0,3.070082188E0,4.394279392E0
7.208389987E0,-1.963404536E0,6.091392517E0,4.270578861E0,7.694014815E0
7.227738131E0,-2.816185951E0,8.321704865E0,5.089314938E0,1.015297009E1
7.247116793E0,-5.229128599E-1,5.848567009E0,2.881203890E0,6.540681140E0
7.266495456E0,7.334891558E-1,2.167302132E0,2.333950043E0,3.268413633E0
7.285843600E0,1.524513841E0,-5.881023407E-2,2.002903223E0,2.517781248E0
7.305222262E0,2.193261862E0,-2.045804024E0,1.642607450E0,3.419630234E0
7.324600924E0,1.012412310E0,-3.972849846E0,2.833627939E0,4.983769846E0
7.343949069E0,-3.764014244E-1,-4.401587486E0,3.001055479E0,5.340597759E0
7.363327731E0,-1.458578944E0,-4.409978867E0,2.182184458E0,5.131987446E0
7.382706393E0,-1.864027143E0,-4.476613045E0,1.469859123E0,5.067064967E0
7.402054538E0,-1.392917991E0,-3.963256836E0,2.211942196E0,4.747664010E0
7.421433200E0,-9.865854979E-1,-3.450433731E0,2.409473419E0,4.322546244E0
7.440811862E0,-8.437216282E-1,-2.851195335E0,1.760445833E0,3.455481234E0
7.460160006E0,-5.302264690E-1,-2.460647583E0,2.607648373E-1,2.530597743E0
7.479538668E0,5.756177902E-1,-2.943863869E0,-9.123628139E-1,3.135295237E0
7.498947848E0,2.010789394E0,-2.386708260E0,-7.954034805E-1,3.220608173E0
7.518295993E0,3.571558475E0,-4.126548767E-3,1.192037821E0,3.765235868E0
7.537674655E0,3.592825413E0,2.243904114E0,4.319004059E0,6.049569917E0
7.557053317E0,1.700000286E0,3.746318817E0,8.119082451E-1,4.193340035E0
7.576401461E0,3.330309391E0,2.972069740E0,-8.135828018E0,9.279862969E0
7.595780124E0,6.058508873E0,4.481158257E0,-4.336893082E0,8.694535680E0
7.615158786E0,3.707428455E0,7.725131989E0,4.348504066E0,9.608963399E0
7.634537448E0,-4.431121826E0,7.917915344E0,6.239009857E0,1.101151525E1
7.653885592E0,-4.644094467E0,5.388345718E0,1.666628599E0,7.306129884E0
7.673264254E0,-4.624505043E0,1.361671448E0,2.267091751E0,5.327278952E0
7.692642916E0,-4.780181408E0,7.272024155E-1,4.107153893E0,6.344105196E0
7.711991061E0,-4.618233681E0,5.135345459E0,2.865031242E0,7.477182580E0
7.731369723E0,-2.698872089E0,7.051052094E0,9.639842510E-1,7.611209616E0
7.750748385E0,-2.231428623E-1,2.517721176E0,1.193898916E0,2.795372476E0
7.770127047E0,1.287007332E-1,-7.369728088E-1,1.968349218E0,2.105728246E0
7.789505709E0,-6.045880318E-1,-2.420420647E0,2.027434826E0,3.214724680E0
7.808884372E0,-1.664244890E0,-3.310563087E0,2.462990522E0,4.449254019E0
7.828232516E0,-2.262603283E0,-3.574348450E0,1.954076290E0,4.659801992E0
7.847611178E0,-2.619637966E0,-3.394141197E0,1.453985333E0,4.527335959E0
7.866989840E0,-2.287757874E0,-3.288286209E0,9.265304804E-1,4.111583760E0
7.886337985E0,-2.506138563E0,-3.092274666E0,6.189320087E-1,4.028147209E0
7.905716647E0,-2.271106243E0,-3.339138985E0,1.083796263E0,4.181194454E0
7.925095309E0,-1.476726294E0,-3.249647141E0,5.298012495E-1,3.608547692E0
7.944443454E0,-8.874371052E-1,-2.741847038E0,3.278130293E-1,2.900470855E0
7.963822116E0,-5.252147913E-1,-2.365747452E0,5.764698982E-1,2.490969515E0
7.983200778E0,-2.965663671E-1,-2.047918320E0,2.588135004E-1,2.085402954E0
8.002548922E0,-3.000403643E-1,-1.519224167E0,3.995426893E-1,1.599281292E0
8.021927584E0,-9.808911085E-1,-4.350662231E-1,1.307026744E-1,1.080977879E0
8.041306247E0,-1.736230850E-1,7.142457962E-1,-1.523504257E0,1.691554686E0
8.060684909E0,1.527932048E0,8.358812332E-1,-2.590438128E0,3.121480974E0
8.080064431E0,1.645467639E0,1.850690842E0,-2.234453201E0,3.335476196E0
8.099443093E0,-1.848651171E-1,3.605587006E0,8.583658934E-2,3.611343335E0
8.118821755E0,-1.317503095E0,3.657276154E0,1.561208010E0,4.189135199E0
8.138169900E0,-2.219438553E-1,2.449700356E0,4.610577583E0,5.225678574E0
8.157548562E0,1.682621598E0,9.471006393E-1,2.558372259E0,3.205227555E0
8.176927224E0,9.299043417E-1,2.563220024E0,1.972269654E0,3.365214193E0
8.196275368E0,-1.364569426E0,5.818106651E0,3.318567514E0,6.835591055E0
8.215654030E0,-2.202915430E0,8.773615837E0,4.595824242E0,1.014646597E1
8.235032693E0,-2.202700377E-1,7.818565369E0,4.976936340E0,9.270834841E0
8.254380837E0,-1.114821434E-1,3.034242630E0,3.163991690E0,4.385190990E0
8.273759499E0,-3.146631718E-1,3.681135178E-1,2.548427105E0,2.594031839E0
8.293138161E0,-1.842520237E-1,-1.558266640E0,3.644077778E-1,1.610880740E0
8.312486306E0,1.657778025E-1,-3.861575127E0,1.500989437E0,4.146349482E0
8.331864968E0,-2.963078022E-2,-5.296014786E0,3.175001621E0,6.174891569E0
8.351274148E0,-6.419432163E-1,-5.132807732E0,1.980648279E0,5.539022830E0
8.370622292E0,-1.213772893E0,-4.637966156E0,1.426922560E0,5.002007866E0
8.390000954E0,-1.474049926E0,-4.031962395E0,1.701852322E0,4.617991475E0
8.409379616E0,-9.176821709E-1,-3.290102005E0,1.709522247E0,3.819604441E0
8.428727761E0,-4.403667450E-1,-2.860473633E0,1.600720167E0,3.307345964E0
8.448106423E0,1.114296913E-1,-2.797809601E0,7.494862080E-1,2.898600475E0
8.467485085E0,1.092564583E0,-3.273101807E0,-9.329724312E-1,3.574539182E0
8.486863747E0,2.555724144E0,-2.967082024E0,-2.302425861E0,4.542737774E0
8.506211892E0,3.510216236E0,6.161460876E-1,-3.712918758E-1,3.583170619E0
8.525590554E0,3.071575642E0,5.793682098E0,8.305035591E0,1.058182146E1
8.544969216E0,5.396808386E-1,4.677414894E0,-1.897897720E0,5.076561952E0
8.564317360E0,1.893880486E0,2.475580215E0,-8.687338829E0,9.229579440E0
8.583696023E0,4.996852875E0,2.685283661E0,-5.858981133E0,8.155179146E0
8.603074685E0,6.744745731E0,7.082157135E0,8.140874863E0,1.272487282E1
8.622422829E0,-3.727719784E-1,1.034954262E1,8.066952705E0,1.312736521E1
8.641832009E0,-3.703111649E0,4.560857773E0,-1.647102833E-1,5.877209285E0
8.661210671E0,-2.944682121E0,-1.283802032E0,1.048908949E0,3.379276614E0
8.680558816E0,-3.315786362E0,-1.631312370E0,4.953177452E0,6.179772335E0
8.699937478E0,-4.232957840E0,4.361579895E0,2.855921984E0,6.715474788E0
8.719316140E0,-4.282927513E0,7.971009254E0,1.331432819E0,9.146210689E0
8.738664284E0,-3.221147060E0,3.274579048E0,1.526304483E0,4.840274962E0
8.758042946E0,-2.023929596E0,-4.963970184E-1,1.191837788E0,2.400662059E0
8.777421609E0,-1.463400364E0,-2.617583275E0,1.267852306E0,3.255876579E0
8.796769753E0,-1.930321932E0,-4.005675316E0,2.527810335E0,5.114821853E0
8.816148415E0,-2.963484526E0,-4.542400360E0,2.850726366E0,6.127175726E0
8.835527077E0,-3.209542990E0,-3.900309563E0,1.293900251E0,5.214188216E0
8.854905739E0,-3.084792137E0,-4.479638100E0,-3.560984135E-1,5.450679418E0
8.874253884E0,-2.044674397E0,-4.224276543E0,5.746073723E-1,4.728147558E0
8.893632546E0,-4.032869339E-1,-3.157562256E0,1.217674613E0,3.408162439E0
8.913011208E0,6.136090755E-1,-2.338190079E0,4.043591022E-1,2.450949862E0
8.932389870E0,1.106055617E0,-1.612257004E0,1.175193071E0,2.281186189E0
8.951768532E0,8.747481108E-1,-1.223132133E0,1.093343735E0,1.859203323E0
8.971147194E0,-3.348885775E-1,-1.006494522E0,-2.188911438E-1,1.083095063E0
8.990495339E0,-1.471008658E0,-8.932647705E-1,-8.016594648E-1,1.898537943E0
9.009874001E0,-1.537908196E0,2.146997452E-1,-1.272882938E0,2.007856712E0
9.029252663E0,7.254139185E-1,6.543121338E-1,-2.131761789E0,2.344943080E0
9.048600808E0,2.052046776E0,2.920942307E-1,-3.317805290E0,3.912038721E0
9.067979470E0,1.508585095E0,2.238631248E0,-3.418833494E0,4.356113097E0
9.087358132E0,-3.835188150E-1,4.325568199E0,-1.578252316E0,4.620444491E0
9.106706276E0,-1.773664713E0,3.893487930E0,3.172268867E0,5.326201700E0
9.126084939E0,-5.922087431E-1,1.375417709E0,5.943531036E0,6.129277792E0
9.145463601E0,8.134626150E-1,-3.448963165E-2,2.199759960E0,2.345603300E0
9.164811745E0,-5.246723890E-1,1.561792374E0,2.410258770E0,2.919558849E0
9.184190407E0,-1.158570886E0,3.723767281E0,3.508290529E0,5.245648834E0
9.203569069E0,-2.980700731E-1,7.241519928E0,3.730304003E0,8.151295884E0
9.222947732E0,3.455232382E-1,8.425691605E0,4.431687355E0,9.526359123E0
9.242326394E0,2.759280205E-1,5.201265335E0,2.612299681E0,5.826955207E0
9.261705056E0,-1.826272011E-1,1.406019211E0,2.745990753E0,3.090421967E0
9.281083718E0,2.763872147E-1,-1.307500839E0,2.151065826E0,2.532396597E0
9.300431862E0,1.265344858E0,-2.179125786E0,2.513029575E0,3.558792555E0
9.319810525E0,5.716954470E-1,-3.856126785E0,3.022689581E0,4.932869527E0
9.339189187E0,-1.363248587E0,-5.048428535E0,1.376027346E0,5.407266282E0
9.358537331E0,-2.363947392E0,-4.896660805E0,1.089374065E0,5.545472943E0
9.377915993E0,-2.014687061E0,-4.536032677E0,1.329291344E0,5.138245992E0
9.397294655E0,-1.256364703E0,-3.700918198E0,1.667521715E0,4.249220687E0
9.416673318E0,-5.298752785E-1,-2.979112625E0,1.947828770E0,3.598599277E0
9.436021462E0,2.624511719E-2,-2.491575241E0,1.390529394E0,2.853455446E0
9.455400124E0,7.379426956E-1,-2.900696754E0,-3.366463184E-1,3.011964779E0
9.474748269E0,1.725106597E0,-3.430150032E0,-1.777732849E0,4.231105777E0
9.494157448E0,2.990547657E0,-2.054363251E0,-2.637851238E-1,3.637769405E0
9.513536110E0,3.958170652E0,2.261039734E0,4.979647636E0,6.751022602E0
9.532884255E0,1.756546974E0,3.884185791E0,1.928124905E0,4.678677396E0
9.552262917E0,1.844074249E0,2.356024742E0,-1.021496010E1,1.064410035E1
9.571641579E0,4.915167809E0,2.868820190E0,-6.354897022E0,8.530751434E0
9.590989724E0,7.133608818E0,6.343558311E0,9.703712463E0,1.361216891E1
9.610368386E0,4.344246387E-1,1.050473022E1,4.372895241E0,1.138684744E1
9.629747048E0,-6.062120914E0,7.438296318E0,1.327766657E0,9.687132000E0
9.649095193E0,-6.941172600E0,1.819194794E0,2.209567547E0,7.508097995E0
9.668473855E0,-7.265120506E0,-7.297229767E-2,3.900979519E0,8.246510907E0
9.687852517E0,-5.259484291E0,4.727883339E0,3.513248682E0,7.896706413E0
9.707231179E0,-1.615289927E0,6.929049492E0,2.054805279E0,7.405613624E0
9.726579323E0,1.960587502E-1,2.284457207E0,1.244269848E0,2.608714476E0
9.745957985E0,-5.975329876E-1,-3.122205734E-1,1.258175850E0,1.427422091E0
9.765336648E0,-1.937121868E0,-1.783494949E0,1.653183937E0,3.109069394E0
9.784715310E0,-2.326356649E0,-3.114420891E0,1.879077196E0,4.317694275E0
9.804093972E0,-2.422739744E0,-3.832684517E0,1.976229429E0,4.946172382E0
9.823472634E0,-2.246837616E0,-4.192391396E0,1.309850454E0,4.933572043E0
9.842820778E0,-1.640328884E0,-3.752117157E0,7.662155628E-1,4.166071086E0
9.862199441E0,-1.225128770E0,-3.672455788E0,6.819323301E-1,3.931018153E0
9.881578103E0,-1.039510369E0,-3.975786209E0,-8.934473991E-2,4.110406339E0
9.900926247E0,-1.651346684E-2,-3.303046227E0,-3.922463655E-1,3.326295880E0
9.920304909E0,8.375039101E-1,-2.375308990E0,-6.016741991E-1,2.589501389E0
9.939683571E0,1.042477727E0,-1.119132042E0,1.753901243E-1,1.539473298E0
9.959031716E0,1.213999510E0,-5.265684128E-1,1.630718708E-1,1.333289743E0
9.978410378E0,8.014453650E-1,-6.056747437E-1,-4.304879904E-2,1.005489815E0
9.997789040E0,2.360752821E-1,-8.708887100E-1,-7.691717148E-1,1.185665978E0
1.001713719E1,-1.788673401E-1,6.979751587E-2,-1.588558912E0,1.600120194E0
1.003651585E1,3.773752451E-1,1.343252182E0,-2.771704912E0,3.103076960E0
1.005589451E1,6.814407110E-1,1.542697906E0,-2.262250423E0,2.821711405E0
1.007530369E1,-2.598581314E-1,2.841393471E0,-1.345329046E0,3.154513171E0
1.009465183E1,-1.487511873E0,4.187009811E0,1.086264849E-1,4.444720739E0
1.011403050E1,-6.601704359E-1,3.145134926E0,1.529411077E0,3.559044387E0
1.013340916E1,7.918261290E-1,9.718561172E-1,3.630605698E0,3.840936170E0
1.015275730E1,2.011147738E0,-5.608892441E-1,8.681145906E-1,2.261179981E0
1.017213596E1,1.311578155E0,6.232748032E-1,2.295560837E0,2.716304160E0
1.019151463E1,-8.821009398E-1,4.594169617E0,4.380851746E0,6.409084065E0
1.021086277E1,-1.750216126E0,8.667678833E0,3.038147211E0,9.349986701E0
1.023024143E1,-1.669746637E-1,6.914083481E0,2.897796631E0,7.498643626E0
1.024962010E1,1.327834129E-1,3.571702957E0,2.942733049E0,4.629726909E0
1.026896824E1,-1.296758652E-2,6.338062286E-1,2.294792175E0,2.380745602E0
1.028834690E1,4.968719482E-1,-1.355910301E0,2.370435476E0,2.775669077E0
1.030772556E1,6.574596167E-1,-3.164066315E0,1.756670237E0,3.678241307E0
1.032707371E1,-1.957612038E-1,-4.619099617E0,1.918095589E0,5.005346582E0
1.034645237E1,-1.166488409E0,-5.320421219E0,1.358020067E0,5.613536823E0
1.036589207E1,-2.058582783E0,-4.647435188E0,1.478197813E0,5.293532438E0
1.038520969E1,-1.605293155E0,-3.650618553E0,1.744346857E0,4.352783924E0
1.040458836E1,-9.809720516E-1,-3.095863342E0,1.697750330E0,3.664564392E0
1.042396702E1,-4.640753269E-1,-2.778629303E0,1.804399729E0,3.345445425E0
1.044331516E1,5.671095848E-2,-2.770234108E0,1.246364355E0,3.038229295E0
1.046269382E1,1.219488144E0,-3.143782616E0,-3.892550468E-1,3.394413051E0
1.048207249E1,2.761335373E0,-3.433052063E0,-1.404567480E0,4.624243648E0
1.050145115E1,3.431422234E0,-2.105987549E0,-1.622898579E-1,4.029414362E0
1.052079929E1,3.358256340E0,2.322214127E0,4.469725609E0,6.053842673E0
1.054017796E1,1.510037065E0,3.972321510E0,3.937515259E0,5.793408024E0
1.055955662E1,7.144581079E-1,3.254327774E0,-7.849526882E0,8.527377787E0
1.057890476E1,3.605850697E0,1.449336052E0,-9.097901344E0,9.893156377E0
1.059831394E1,6.297607899E0,3.146592140E0,1.981045961E0,7.313374764E0
1.061766209E1,3.128994465E0,9.053750038E0,9.914386749E0,1.378608214E1
1.063704075E1,-5.166168213E0,9.771271706E0,1.825525761E0,1.120265991E1
1.065641941E1,-5.522841930E0,3.461564064E0,-1.614980698E-1,6.519991594E0
1.067579807E1,-4.805101395E0,-1.394686699E0,3.778233051E0,6.269704570E0
1.069514622E1,-4.347877502E0,1.516045570E0,4.808293343E0,6.657485848E0
1.071452488E1,-3.370011568E0,7.382153511E0,2.324418783E0,8.441332307E0
1.073390354E1,-1.254238844E0,5.395339012E0,4.700779915E-2,5.539405010E0
1.075325169E1,-9.861886501E-2,8.494501114E-1,7.615835667E-1,1.145120387E0
1.077263035E1,-2.068088055E-1,-1.020713806E0,9.878826141E-1,1.435457633E0
1.079200901E1,-1.128245234E0,-2.633663177E0,1.630377412E0,3.296551159E0
1.081135716E1,-2.046193600E0,-3.772864342E0,2.034539700E0,4.749817405E0
1.083073582E1,-2.412092686E0,-4.068596840E0,1.674469948E0,5.017521398E0
1.085011448E1,-2.244610310E0,-3.832937241E0,1.237241745E0,4.610905602E0
1.086946262E1,-1.528346062E0,-3.848421097E0,1.009199023E0,4.262002967E0
1.088884129E1,-1.408176303E0,-3.970488548E0,8.359612226E-1,4.294947145E0
1.090821995E1,-1.047687054E0,-3.733015060E0,2.774907351E-1,3.887164868E0
1.092762913E1,-5.537402630E-1,-2.946011543E0,1.263380051E-2,2.997627713E0
1.094697727E1,-1.011607647E-1,-2.079147339E0,-2.887356281E-2,2.081807109E0
1.096635594E1,2.839335203E-1,-1.310674667E0,-2.140570879E-1,1.358052563E0
1.098573460E1,1.254198551E-1,-7.056474686E-1,-7.789011002E-1,1.058468428E0
1.100508274E1,6.583416462E-2,-3.410015106E-1,-1.590051889E0,1.627538380E0
1.102446140E1,3.794050217E-1,1.527004242E-1,-1.984353662E0,2.026061461E0
1.104384007E1,2.064489603E0,2.990903854E-1,-2.134590864E0,2.984635746E0
1.106318821E1,2.731871605E0,1.772594452E-1,-2.179623365E0,3.499328706E0
1.108256687E1,1.689399123E0,1.198033333E0,-2.934190750E0,3.591493926E0
1.110194553E1,-1.435632586E0,3.338007927E0,-6.397931576E-1,3.689535625E0
1.112129368E1,-1.887276173E0,3.465990067E0,8.564608693E-1,4.038368942E0
1.114067234E1,3.655928373E-1,1.498023033E0,3.757517576E0,4.061609221E0
1.116005100E1,2.153495550E0,2.303295135E-1,3.222864389E0,3.882969179E0
1.117939915E1,1.523618221E0,1.720450401E0,3.771594048E0,4.416591868E0
1.119877781E1,-1.764225602E0,4.595364571E0,3.452860355E0,6.012662650E0
1.121818699E1,-2.901796818E0,8.611889839E0,1.824889183E0,9.269050216E0
1.123753513E1,-4.488421679E-1,8.088068962E0,3.165595055E0,8.697086344E0
1.125691380E1,3.755195141E-1,3.366609573E0,3.380144835E0,4.785441884E0
1.127629246E1,-8.079516888E-2,4.569711685E-1,1.469219208E0,1.540764612E0
1.129564060E1,5.839174986E-1,-1.597812653E0,1.573305607E0,2.317165391E0
1.131501926E1,7.373440266E-1,-2.801390648E0,1.750077724E0,3.384411000E0
1.133439793E1,2.212483883E-1,-4.458779335E0,2.068137884E0,4.920046577E0
1.135377659E1,-6.397716999E-1,-4.938232422E0,1.669598103E0,5.251952504E0
1.137312473E1,-1.361704707E0,-5.214411736E0,1.211835384E0,5.523845984E0
1.139250340E1,-2.222425938E0,-4.937132835E0,1.319231987E0,5.572686131E0
1.141188206E1,-1.937651157E0,-4.231624603E0,1.119364500E0,4.786869089E0
1.143123020E1,-1.399625778E0,-3.394404411E0,8.301062584E-1,3.764307377E0
1.145060886E1,-3.278837204E-1,-2.800429344E0,1.176559925E-1,2.822012611E0
1.146998753E1,9.630858898E-1,-2.762524605E0,-7.452907562E-1,3.019028807E0
1.148936619E1,2.097150326E0,-2.409838676E0,-1.318216562E0,3.455872804E0
1.150874485E1,3.196139574E0,1.288537979E-1,6.898231506E-1,3.272272522E0
1.152812351E1,4.575756073E0,3.683526039E0,5.320744514E0,7.925669051E0
1.154747166E1,2.235156298E0,4.222373962E0,1.571671963E-1,4.780069778E0
1.156685032E1,1.709494829E0,2.410257339E0,-9.255458832E0,9.715720828E0
1.158622898E1,4.385424614E0,8.149738312E-1,-6.820816994E0,8.149826738E0
1.160557713E1,5.776842117E0,3.645180702E0,5.896323204E0,9.023628678E0
1.162495579E1,-8.492065668E-1,8.966103554E0,7.892790318E0,1.197532061E1
1.164433445E1,-5.878849030E0,9.242349625E0,9.003617764E-1,1.099056613E1
1.166368260E1,-6.071458340E0,2.901545525E0,-2.977802753E-1,6.735743901E0
1.168306126E1,-5.730047226E0,-1.153337479E0,3.298890591E0,6.711654616E0
1.170243992E1,-3.988266945E0,2.436916351E0,2.898885727E0,5.499852088E0
1.172178806E1,-1.716162205E0,6.019098282E0,1.122297525E0,6.358797730E0
1.174116673E1,-2.068657875E-1,3.690224648E0,6.944550276E-1,3.760693977E0
1.176054539E1,3.477106094E-1,-6.254463196E-1,7.491092682E-1,1.035978022E0
1.177995457E1,-6.874471903E-1,-2.371467590E0,1.205472350E0,2.747654592E0
1.179930271E1,-1.950407624E0,-3.640160561E0,1.539348722E0,4.407318152E0
1.181868137E1,-2.320566177E0,-3.668601036E0,1.468429685E0,4.582569878E0
1.183806004E1,-2.055751801E0,-3.351632118E0,1.031069040E0,4.064807091E0
1.185740818E1,-1.461364627E0,-3.377698898E0,6.956635714E-1,3.745448468E0
1.187678684E1,-1.086313486E0,-4.048916817E0,1.628059149E-1,4.195272356E0
1.189616550E1,-7.174079418E-1,-4.261514664E0,-2.033114433E-2,4.321526899E0
1.191551365E1,1.499330997E-2,-3.351585388E0,-1.441994309E-1,3.354719495E0
1.193489231E1,5.219529867E-1,-2.096937180E0,-1.074705720E-1,2.163592008E0
1.195427097E1,7.192487717E-1,-1.206377029E0,9.266221523E-2,1.407569046E0
1.197361912E1,7.911953926E-1,-6.509485245E-1,-2.909882069E-1,1.065081343E0
1.199299778E1,6.303889751E-1,-1.550674438E-1,-8.951555490E-1,1.105775578E0
1.201237644E1,-1.663614511E-1,3.150587082E-1,-1.281103849E0,1.329723729E0
1.203172459E1,-6.841602325E-1,4.048595428E-1,-1.853399396E0,2.016699232E0
1.205110325E1,1.077867508E0,-2.893409729E-1,-3.639875889E0,3.807126613E0
1.207051243E1,2.374617577E0,-3.958415985E-1,-3.116582870E0,3.938094462E0
1.208986057E1,5.765669346E-1,1.720924377E0,-2.121289492E0,2.791752004E0
1.210923924E1,-3.009842157E0,2.683937073E0,-3.786981106E-4,4.032699861E0
1.212861790E1,-2.776691437E0,2.260287285E0,1.648311257E0,3.941553494E0
1.214796604E1,5.991258621E-1,3.111066818E-1,3.465960026E0,3.531093041E0
1.216734470E1,1.865844369E0,1.163316727E0,3.217308521E0,3.896890445E0
1.218672337E1,8.564087152E-1,4.743203163E0,3.579251289E0,6.003536618E0
1.220610203E1,-1.282574415E0,1.049719810E1,2.221975327E0,1.080617136E1
1.222545017E1,-7.246092558E-1,1.027526665E1,5.448027134E0,1.165277490E1
1.224482884E1,1.385390759E-2,5.000837326E0,3.882325649E0,6.330957142E0
1.226420750E1,-8.046234846E-1,1.033505440E0,1.285840511E0,1.835466771E0
1.228355564E1,-4.343038797E-1,-9.440813065E-1,1.389579773E-1,1.048436308E0
1.230293430E1,3.513873816E-1,-2.576306343E0,9.868066311E-1,2.781117544E0
1.232231297E1,7.922649384E-3,-4.340442657E0,2.360931158E0,4.941002041E0
1.234166111E1,-4.923063517E-1,-5.060854912E0,1.963133097E0,5.450551306E0
1.236107029E1,-1.540878534E0,-5.153323174E0,1.317287207E0,5.537715411E0
1.238044895E1,-1.923804283E0,-4.971648216E0,1.206819773E0,5.465777426E0
1.239979710E1,-1.318344831E0,-4.325322151E0,1.341600657E0,4.716602286E0
1.241917576E1,-6.617587805E-1,-3.489693642E0,1.121588707E0,3.724761418E0
1.243855442E1,9.266078472E-2,-3.251661301E0,9.539163113E-1,3.389962177E0
1.245790257E1,8.316630125E-1,-3.424766541E0,-2.875111103E-1,3.536007899E0
1.247728123E1,2.102512836E0,-3.791558266E0,-1.973622799E0,4.763576520E0
1.249665989E1,3.178080559E0,-2.085708618E0,-1.692504168E0,4.161123266E0
1.251600803E1,3.576496124E0,1.910305977E0,4.224825382E0,5.855744441E0
1.253538670E1,1.738788247E0,3.646236420E0,5.422743797E0,6.761994890E0
1.255476536E1,2.417602539E-1,3.198444366E0,-7.608419418E0,8.256908649E0
1.257414402E1,4.178575993E0,1.773264885E0,-1.092346382E1,1.182907551E1
1.259349216E1,6.515243530E0,3.601585388E0,-7.648873329E-1,7.483640037E0
1.261287083E1,3.888910294E0,8.332938194E0,1.140647316E1,1.465159077E1
1.263224949E1,-6.046999454E0,9.026855469E0,2.152852774E0,1.107633049E1
1.265162815E1,-6.534860611E0,5.042264938E0,-5.634100437E-1,8.273226081E0
1.267100681E1,-5.792988777E0,-4.921636581E-1,1.877421141E0,6.109472496E0
1.269038548E1,-4.960650921E0,-1.263904572E-2,3.815921307E0,6.258551967E0
1.270973362E1,-3.054304361E0,5.368084908E0,1.626707077E0,6.386805666E0
1.272911228E1,-9.396836758E-1,5.245538712E0,-3.473734856E-2,5.329154573E0
1.274849094E1,3.844189644E-2,9.357147217E-1,9.751374722E-1,1.352010691E0
1.276783909E1,-6.430552006E-1,-9.313497543E-1,1.371280074E0,1.778016141E0
1.278721775E1,-1.520369530E0,-2.756350517E0,1.940686584E0,3.698007044E0
1.280659641E1,-2.264850140E0,-3.211935997E0,2.519439936E0,4.668367658E0
1.282594456E1,-2.319746494E0,-3.447078705E0,2.046961784E0,4.631806121E0
1.284532322E1,-2.079647303E0,-3.812578201E0,1.022303343E0,4.461590475E0
1.286470188E1,-1.668401361E0,-4.021183968E0,2.065430880E-1,4.358456567E0
1.288405003E1,-1.314607501E0,-4.182408333E0,2.825920582E-1,4.393243746E0
1.290342869E1,-7.731599808E-1,-3.642834663E0,-2.136671543E-1,3.730103805E0
1.292280735E1,4.789829254E-2,-2.831893921E0,-2.286190987E-1,2.841510886E0
1.294218601E1,6.840581894E-1,-2.048176765E0,-3.502594233E-1,2.187611787E0
1.296159519E1,1.135928869E0,-1.303504944E0,-2.435843349E-1,1.746079283E0
1.298094334E1,5.105695724E-1,-1.238718033E-1,-1.668873429E-1,5.512503036E-1
1.300032200E1,-4.424777031E-1,2.601795197E-1,-1.379437566E0,1.471845066E0
1.301967014E1,-2.706630230E-1,3.609161377E-1,-2.384438276E0,2.426739546E0
1.303904881E1,1.563418388E0,5.265121460E-1,-3.464906216E0,3.837586114E0
1.305842747E1,2.906155109E0,5.012817383E-1,-3.176655293E0,4.334531087E0
1.307777561E1,1.533476472E0,1.221888542E0,-1.373043656E0,2.393702275E0
1.309715428E1,-2.942662716E0,3.756359100E0,1.192135930E0,4.918402752E0
1.311653294E1,-4.243706226E0,5.491555214E0,1.834667802E0,7.178595068E0
1.313588108E1,-1.215564966E0,3.908416748E0,1.835015416E0,4.485599318E0
1.315525974E1,9.612274170E-2,1.511294365E0,2.793676853E0,3.177716255E0
1.317463841E1,-4.038130045E-1,1.703510284E0,2.072947502E0,2.713323346E0
1.319401707E1,-2.838138342E-1,3.336685181E0,1.824585199E0,3.813545521E0
1.321339573E1,1.662234664E0,5.349652290E0,3.922648191E0,6.838784434E0
1.323277439E1,3.105344296E0,5.997694969E0,3.409575224E0,7.565759139E0
1.325212254E1,1.793916583E0,2.909562111E0,2.575272322E0,4.279686427E0
1.327150120E1,-6.550991535E-2,9.355258942E-2,2.717041492E0,2.719440771E0
1.329087986E1,-1.642505050E0,-2.289894104E0,1.080499411E0,3.018098213E0
1.331022800E1,-1.421446800E0,-3.951789856E0,1.111241817E0,4.344192957E0
1.332960667E1,-1.162284136E0,-5.197127342E0,1.053208828E0,5.428654148E0
1.334898533E1,-1.500995517E0,-5.017400742E0,1.179289818E0,5.368242004E0
1.336833347E1,-1.359075069E0,-4.288315773E0,1.393005371E0,4.709267584E0
1.338771214E1,-9.557981491E-1,-3.752208710E0,1.467236280E0,4.140700738E0
1.340709080E1,-6.338186264E-1,-3.378563881E0,1.467577934E0,3.737673734E0
1.342646946E1,-2.399951220E-1,-3.029682159E0,9.665572643E-1,3.189169891E0
1.344581760E1,3.103502989E-1,-3.065585136E0,-2.263073921E-1,3.089554106E0
1.346519627E1,1.396015406E0,-3.851395607E0,-1.725186586E0,4.445039470E0
1.348457493E1,2.675285339E0,-3.386312485E0,-2.266642332E0,4.874621150E0
1.350395359E1,4.078643322E0,3.706789017E-1,1.356506348E-1,4.097698780E0
1.352333225E1,4.707759380E0,3.074380875E0,6.194666386E0,8.365925399E0
1.354271092E1,4.687428474E-2,3.986685753E0,-1.759811878E0,4.358072778E0
1.356205906E1,6.871275902E-1,1.880414009E0,-1.130664158E1,1.148251910E1
1.358143772E1,4.105599403E0,1.217905998E0,-7.557036877E0,8.686083573E0
1.360081638E1,7.373459816E0,4.958820343E0,6.828578949E0,1.120657393E1
1.362016453E1,6.296226978E-1,1.103028107E1,8.689231873E0,1.405582711E1
1.363954319E1,-5.613682747E0,9.174175262E0,1.588036537E0,1.087201848E1
1.365892185E1,-5.297811985E0,1.640480995E0,-1.377813816E0,5.714574405E0
1.367827000E1,-5.519665718E0,-2.862462997E0,2.727201462E0,6.789553142E0
1.369764866E1,-4.298171997E0,9.367265701E-1,3.292955637E0,5.495024660E0
1.371702732E1,-2.207267046E0,6.306385040E0,2.056147575E0,6.990726925E0
1.373637547E1,-5.215379000E-1,4.772361755E0,3.420411348E-1,4.812944072E0
1.375575413E1,1.861647367E-1,3.677749634E-1,1.730307341E-1,4.470518626E-1
1.377513279E1,-4.985674620E-1,-2.539623260E0,1.477923870E0,2.980354809E0
1.379454197E1,-1.670363665E0,-4.384865761E0,2.240672588E0,5.199786165E0
1.381389011E1,-2.728097439E0,-4.557079315E0,1.950173616E0,5.657973547E0
1.383326878E1,-2.723862171E0,-3.797453880E0,1.172181726E0,4.818100362E0
1.385264744E1,-2.023539782E0,-3.262495995E0,5.298593044E-1,3.875479873E0
1.387199558E1,-1.307954192E0,-3.454249382E0,4.033523798E-1,3.715545196E0
1.389137425E1,-9.278833866E-1,-3.435117722E0,3.984913230E-1,3.580474364E0
1.391075291E1,1.116733551E-1,-3.263607979E0,-2.447531819E-1,3.274677404E0
1.393010105E1,3.816204071E-1,-2.616293907E0,-4.401124716E-1,2.680359478E0
1.394947971E1,4.785254002E-1,-1.919518471E0,-8.440086246E-1,2.150787827E0
1.396885838E1,6.535668373E-1,-1.286867142E0,-1.012253642E0,1.762905014E0
1.398820652E1,3.441673517E-1,-3.324251175E-1,-7.916985750E-1,9.250644618E-1
1.400758518E1,-8.403172493E-1,6.295099258E-1,-8.851142526E-1,1.373260014E0
1.402696385E1,-5.627156496E-1,1.114998817E0,-2.266346693E0,2.587701412E0
1.404631199E1,1.759163857E0,4.813575745E-1,-3.396988869E0,3.855631720E0
1.406569065E1,2.300179243E0,1.118476868E0,-2.550863743E0,3.612301329E0
1.408509983E1,-5.536854267E-1,2.421845436E0,-3.676371574E-1,2.511386061E0
1.410444798E1,-2.876526833E0,3.044276237E0,2.467418432E0,4.861088165E0
1.412382664E1,-1.277181625E0,2.106173515E0,3.409680843E0,4.206314686E0
1.414323582E1,3.362897635E-1,1.182473183E0,2.807026863E0,3.064430362E0
1.416255344E1,-2.697590590E-1,2.651903152E0,2.231037617E0,3.476045041E0
1.418193211E1,-1.648989677E0,6.013609886E0,8.536633253E-1,6.293759758E0
1.420131077E1,6.506166458E-1,7.642920494E0,1.373081923E0,7.792489311E0
1.422068943E1,2.416118145E0,6.159511566E0,5.001285553E0,8.293977743E0
1.424003758E1,1.869892836E0,3.683238029E0,3.646503925E0,5.509966649E0
1.425941624E1,1.924360752E0,-1.478424072E-1,2.244743347E0,2.960387538E0
1.427879490E1,1.231483340E0,-2.551765442E0,-2.007148266E-1,2.840483151E0
1.429814304E1,3.164170980E-1,-3.885787010E0,7.150666714E-1,3.963682734E0
1.431752171E1,-4.102516174E-1,-4.531975746E0,9.195601940E-1,4.642488719E0
1.433690037E1,-1.482158303E0,-4.833981514E0,6.944401264E-1,5.103569104E0
1.435627903E1,-2.071128368E0,-4.465828896E0,1.534024239E0,5.156203139E0
1.437565769E1,-1.725832343E0,-3.766218185E0,1.562678099E0,4.427737519E0
1.439503636E1,-9.048740864E-1,-3.323468208E0,1.204632998E0,3.649024349E0
1.441438450E1,-1.077142954E-1,-3.105940819E0,1.190923929E0,3.328178262E0
1.443376316E1,2.030041218E-1,-2.937194824E0,6.631746292E-1,3.017966981E0
1.445314182E1,9.261317253E-1,-3.078760147E0,-9.735138416E-1,3.359198300E0
1.447248997E1,2.197669506E0,-3.667415619E0,-2.496912241E0,4.951187668E0
1.449186863E1,3.466873646E0,-1.599132538E0,-1.566764832E0,4.126886210E0
1.451124729E1,3.391900539E0,3.521224022E0,5.489728928E0,7.351267345E0
1.453059544E1,8.156905174E-1,5.523191452E0,2.620979548E0,6.167700432E0
1.454997410E1,1.594369054E0,2.255228996E0,-1.166455460E1,1.198707239E1
1.456935276E1,4.204658985E0,1.697428703E0,-9.405663490E0,1.044159600E1
1.458870091E1,7.364231110E0,3.388217926E0,5.067634583E0,9.559960293E0
1.460807957E1,4.192544460E0,7.352788925E0,1.016973782E1,1.323119425E1
1.462745823E1,-5.774036884E0,8.333417892E0,2.277856588E0,1.039105319E1
1.464686741E1,-5.735182762E0,3.442590714E0,-8.561198711E-1,6.743640958E0
1.466621555E1,-5.820835114E0,-5.008754730E-1,1.677264690E0,6.078339782E0
1.468559422E1,-4.622635841E0,9.051961899E-1,2.885473967E0,5.523957121E0
1.470497288E1,-2.249819517E0,4.451618195E0,1.810552359E0,5.306287992E0
1.472432102E1,-1.401073575E0,4.282838821E0,7.992347479E-1,4.576515237E0
1.474369969E1,-8.173371553E-1,1.278378487E0,9.432382584E-1,1.786614114E0
1.476307835E1,-5.768063068E-1,-9.021205902E-1,1.370578289E0,1.739256140E0
1.478242649E1,-1.422096252E0,-3.037878036E0,2.265052795E0,4.047409651E0
1.480180515E1,-2.302981853E0,-3.488345146E0,2.695061684E0,4.973493215E0
1.482118382E1,-2.520378590E0,-3.308050156E0,1.593863487E0,4.453751776E0
1.484053196E1,-2.232061863E0,-3.456049919E0,4.863624573E-1,4.142816632E0
1.485991062E1,-1.623767376E0,-3.728649139E0,6.757328510E-1,4.122627776E0
1.487928928E1,-7.849726677E-1,-3.938299179E0,5.198830366E-1,4.049279057E0
1.489863743E1,-2.365478277E-1,-3.498240471E0,-1.641151309E-1,3.510067669E0
1.491801609E1,4.203565121E-1,-2.965470314E0,-7.277668715E-1,3.082265141E0
1.493742527E1,9.528958797E-1,-2.541365623E0,-8.662574291E-1,2.849026452E0
1.495677342E1,1.005357146E0,-1.682437897E0,-1.374883056E0,2.394085146E0
1.497615208E1,9.816284180E-1,-6.121540070E-1,-1.508392096E0,1.900940187E0
1.499553074E1,7.711915970E-1,1.436519623E-2,-1.587543964E0,1.765003874E0
1.501490940E1,9.943960905E-1,3.343954086E-1,-2.569994450E0,2.775881003E0
1.503425755E1,2.234226704E0,7.643404007E-1,-3.794078827E0,4.468894646E0
1.505363621E1,2.414034843E0,1.003931999E0,-1.917916298E0,3.242506224E0
1.507301487E1,-4.762939215E-1,2.732629776E0,-5.967264771E-1,2.837288121E0
1.509236302E1,-3.647506475E0,3.512096405E0,1.097035766E0,5.180985632E0
1.511174168E1,-3.718350410E0,2.248934746E0,2.003515959E0,4.785176430E0
1.513112034E1,-3.028497696E-1,-8.286247253E-1,1.839020133E0,2.039689184E0
1.515046848E1,1.518497348E0,-1.156425476E-1,2.766047716E-1,1.547810581E0
1.516984715E1,1.473482847E0,3.373875618E0,1.919987798E0,4.152173109E0
1.518922581E1,7.230168581E-1,7.126121521E0,3.533497334E0,7.986862007E0
1.520860447E1,1.526464343E0,1.044795322E1,3.625386000E0,1.116392599E1
1.522798313E1,1.398354530E0,6.576244354E0,3.324440956E0,7.500286186E0
1.524736179E1,-1.940945387E-1,1.634520531E0,2.365601063E0,2.881908819E0
1.526670994E1,-1.808744907E0,-8.296613693E-1,1.011915207E0,2.232457953E0
1.528608860E1,-1.535014749E0,-2.187058449E0,1.173292398E-1,2.674558111E0
1.530546726E1,-5.124908686E-1,-3.938965797E0,8.300063610E-1,4.057956259E0
1.532481541E1,-8.241446018E-1,-4.963085175E0,1.948290586E0,5.395114919E0
1.534419407E1,-1.159628868E0,-5.058506966E0,1.521372318E0,5.408124034E0
1.536357273E1,-1.362987757E0,-4.622252464E0,1.046640158E0,4.931369900E0
1.538292088E1,-7.656046152E-1,-3.797648430E0,1.490860224E0,4.151017734E0
1.540229954E1,-2.771561146E-1,-3.330597878E0,9.480016232E-1,3.473960969E0
1.542167820E1,1.666405201E-1,-3.163143158E0,7.800605297E-1,3.262167704E0
1.544105686E1,7.341245413E-1,-3.252785683E0,8.632516861E-2,3.335716651E0
1.546040501E1,1.737760305E0,-3.384287834E0,-1.634935617E0,4.140800586E0
1.547978367E1,3.190815449E0,-2.953199387E0,-2.573112249E0,5.052088330E0
1.549916233E1,4.214529991E0,-2.848081589E-1,-5.989532471E-1,4.266394699E0
1.551854099E1,3.189660072E0,3.169241905E0,5.662262917E0,7.230438919E0
1.553791966E1,-4.866780043E-1,5.065897942E0,1.721699715E0,5.372562456E0
1.555729832E1,2.001340628E0,3.159589767E0,-1.025973892E1,1.092019297E1
1.557664646E1,5.080667973E0,3.010778427E0,-8.339643478E0,1.021898366E1
1.559602512E1,4.998912811E0,6.817950249E0,5.854730129E0,1.028355190E1
1.561540379E1,-2.099566221E0,5.860136032E0,4.248188972E0,7.536344086E0
1.563475193E1,-5.020484924E0,5.823283195E0,2.660482407E0,8.135973371E0
1.565413059E1,-3.385307789E0,1.605295181E0,2.160918713E-1,3.752862526E0
1.567350926E1,-3.219229221E0,-6.461639404E-1,2.214240313E0,3.960280897E0
1.569285740E1,-2.387691259E0,2.566013336E0,1.744062066E0,3.915002744E0
1.571223606E1,-1.924077034E0,4.934411049E0,-1.416580677E-1,5.298164950E0
1.573161472E1,-1.605845809E0,2.670413017E0,6.584897041E-1,3.184879140E0
1.575096287E1,-1.583522558E0,-2.981281281E-2,1.084733486E0,1.919656019E0
1.577034153E1,-1.707229733E0,-1.684027672E0,1.234456301E0,2.697121599E0
1.578975071E1,-2.026749134E0,-2.903909683E0,1.459870338E0,3.830355715E0
1.580909886E1,-2.470436335E0,-3.512461662E0,1.796036124E0,4.654695304E0
1.582847752E1,-2.585812092E0,-3.697096825E0,1.579178214E0,4.780036918E0
1.584785618E1,-1.852846503E0,-4.050984383E0,4.838101864E-1,4.480802041E0
1.586723484E1,-8.036147356E-1,-4.220572472E0,-2.960481644E-1,4.306584859E0
1.588658298E1,-1.377649307E-1,-3.822831154E0,-3.447871208E-1,3.840819622E0
1.590596165E1,6.658327579E-1,-3.533271790E0,-2.592134476E-2,3.595554855E0
1.592534031E1,1.020377278E0,-3.221856117E0,-4.429751635E-2,3.379865219E0
1.594468845E1,7.035040855E-1,-2.177211761E0,-5.553072691E-1,2.354471324E0
1.596406712E1,2.468575239E-1,-1.010800362E0,-1.010854363E0,1.450683478E0
1.598344578E1,-5.700027943E-1,-3.710107803E-1,-1.042853832E0,1.245028634E0
1.600279392E1,-1.639741540E0,-1.661481857E-1,-7.947226167E-1,1.829738116E0
1.602217258E1,-1.966174841E0,6.196022034E-2,-1.950536251E0,2.770248047E0
1.604155125E1,-5.406107903E-1,-8.854770660E-2,-3.863302708E0,3.901949325E0
1.606089939E1,5.334774256E-1,6.255912781E-1,-3.671003819E0,3.761945194E0
1.608030857E1,5.364919901E-1,2.851362228E0,-3.427445412E0,4.490598208E0
1.609968723E1,7.065615654E-1,4.154901505E0,-3.098225296E-1,4.225923066E0
1.611903538E1,1.401192665E0,3.335307121E0,3.899221182E0,5.318979254E0
1.613841404E1,1.228919744E0,3.856784821E0,3.142638683E0,5.124569327E0
1.615779270E1,-1.801717281E-1,3.761718750E0,1.969288826E0,4.249833913E0
1.617714085E1,-3.755666018E-1,3.591916084E0,2.087331772E0,4.171314584E0
1.619651951E1,7.697234154E-1,4.655461311E0,2.706845045E0,5.439926861E0
1.621589817E1,1.396086335E0,4.922601700E0,3.186094284E0,6.027624850E0
1.623527683E1,2.782012224E-1,3.671637535E0,2.298573971E0,4.340709666E0
1.625462498E1,-8.978369236E-1,1.463926315E0,1.665831447E0,2.392527075E0
1.627400364E1,-8.159781694E-1,-7.192668915E-1,1.716102719E0,2.031790781E0
1.629338230E1,1.806898117E-1,-2.371098518E0,9.807724953E-1,2.572289190E0
1.631273045E1,2.771859169E-1,-4.172246933E0,8.193824291E-1,4.260969851E0
1.633210911E1,-3.161683083E-1,-4.894019127E0,1.523533225E0,5.135420051E0
1.635148777E1,-1.025655150E0,-4.643549919E0,7.169213295E-1,4.809209970E0
1.637086643E1,-1.380892277E0,-4.363476753E0,1.336968184E0,4.768047481E0
1.639024510E1,-1.047497153E0,-3.958802223E0,1.324622631E0,4.303950562E0
1.640962376E1,-7.120116949E-1,-3.228788376E0,1.085967541E0,3.480138004E0
1.642897190E1,-4.091302156E-1,-2.810459137E0,5.833704472E-1,2.899377377E0
1.644835056E1,2.975726128E-2,-2.943265915E0,-4.948177338E-1,2.984718467E0
1.646772923E1,1.061434031E0,-3.086163521E0,-1.887426138E0,3.770069615E0
1.648707737E1,2.665812492E0,-3.440569878E0,-3.021239996E0,5.298298636E0
1.650645603E1,3.899424314E0,-1.001165390E0,-4.160215855E-1,4.047334442E0
1.652583469E1,4.477775097E0,2.386166573E0,6.123876572E0,7.952743237E0
1.654518284E1,2.242236137E-1,4.438667297E0,3.036350489E0,5.382515016E0
1.656456150E1,1.053947449E0,2.497485161E0,-1.057147598E1,1.091349357E1
1.658394016E1,4.699813843E0,1.683675766E0,-9.233060837E0,1.049630538E1
1.660328831E1,7.085141182E0,3.122421265E0,4.110755920E0,8.766245169E0
1.662266697E1,1.944593072E0,6.216805458E0,5.811164379E0,8.729246460E0
1.664204563E1,-4.151853561E0,7.066272736E0,1.879248381E0,8.408428679E0
1.666145481E1,-4.987388611E0,4.459303856E0,-1.048832893E0,6.771963266E0
1.668080296E1,-4.749218464E0,2.913713455E-1,4.812319279E-1,4.782421714E0
1.670018162E1,-3.821892500E0,6.392278671E-1,2.473571777E0,4.597176512E0
1.671956028E1,-2.624240637E0,5.496689796E0,2.670305729E0,6.650621800E0
1.673893894E1,-1.632115364E0,4.893009186E0,1.197620511E0,5.295246391E0
1.675828709E1,-6.146752834E-1,2.096719742E0,-2.108079195E-1,2.195108052E0
1.677766575E1,6.556630135E-2,-2.711896896E-1,6.207072735E-1,6.805294314E-1
1.679701389E1,-8.304123878E-1,-2.403693199E0,2.145779371E0,3.327415640E0
1.681639256E1,-1.812258959E0,-3.470699310E0,2.218395710E0,4.500146193E0
1.683577122E1,-2.050902605E0,-3.875032425E0,1.391269803E0,4.599751021E0
1.685511936E1,-2.343149185E0,-3.723114967E0,6.770242453E-1,4.450875756E0
1.687449802E1,-2.629628181E0,-3.767890930E0,7.134878635E-2,4.595327745E0
1.689387669E1,-1.934284925E0,-3.707183838E0,1.801328063E-1,4.185345626E0
1.691322483E1,-1.116952896E0,-3.331181526E0,4.748085141E-1,3.545390988E0
1.693263401E1,-4.053900242E-1,-2.840213776E0,6.027126312E-2,2.869632030E0
1.695201267E1,-6.608325243E-1,-2.245027542E0,-4.586938322E-1,2.384795237E0
1.697136082E1,-1.017348766E0,-2.003978729E0,-8.072040677E-1,2.387992392E0
1.699073948E1,-1.102223277E0,-1.791573524E0,-1.024661541E0,2.339778434E0
1.701011814E1,-4.487050772E-1,-9.531421661E-1,-2.737100124E0,2.932837078E0
1.702949680E1,1.344055653E0,1.518983841E-1,-3.824886322E0,4.057008022E0
1.704884495E1,3.005084276E0,6.393079758E-1,-4.784496307E0,5.686004846E0
1.706822361E1,3.708768368E0,1.997536659E0,-4.705383778E0,6.315516765E0
1.708760227E1,3.090828419E0,4.325169563E0,-3.018366575E0,6.113170114E0
1.710695042E1,9.680075645E-1,4.790477753E0,1.796542406E0,5.207041421E0
1.712632908E1,-1.301387668E0,3.147285461E0,6.950163364E0,7.739753641E0
1.714570774E1,-2.423583031E0,1.214041710E0,5.252790928E0,5.910961386E0
1.716505589E1,-2.664266586E0,-1.013804436E0,-1.394757628E-1,2.854044387E0
1.718443455E1,-2.627447605E0,1.267496109E0,-9.689085484E-1,3.073891846E0
1.720381321E1,5.321574211E-1,4.602029800E0,2.084521055E-1,4.637383107E0
1.722319187E1,3.997482777E0,6.979557991E0,3.410177231E0,8.736326862E0
1.724257053E1,3.020386219E0,6.718020439E0,6.260178089E0,9.666662363E0
1.726194920E1,6.081502438E-1,3.894766808E0,4.137368679E0,5.714619392E0
1.728129734E1,-3.383094072E-1,3.037881851E-1,3.210018396E0,3.242060860E0
1.730067600E1,-4.523397684E-1,-2.032792091E0,2.250356197E0,3.066098167E0
1.732005466E1,-7.401736975E-1,-3.163491249E0,6.129776239E-1,3.306247957E0
1.733940281E1,-1.155150533E0,-5.058238983E0,-7.728849649E-1,5.245713062E0
1.735878147E1,-1.745112777E0,-5.637160301E0,-1.027498960E0,5.989887226E0
1.737816013E1,-1.264266133E0,-5.109378815E0,4.152768850E-1,5.279827234E0
1.739750828E1,-7.152075768E-1,-4.285861969E0,1.722051620E0,4.673927308E0
1.741688694E1,-2.454730272E-1,-3.686971664E0,8.686034679E-1,3.795851557E0
1.743626560E1,4.874151945E-1,-3.256111145E0,-5.466384888E-1,3.337461161E0
1.745564426E1,1.516835451E0,-3.283346176E0,-1.397860289E0,3.877520507E0
1.747499241E1,2.837706566E0,-2.940408707E0,-2.572348356E0,4.828618641E0
1.749437107E1,4.053446293E0,-1.686747551E0,-2.194736958E0,4.908402435E0
1.751378025E1,4.461869240E0,1.609439850E-1,3.015696526E0,5.387820117E0
1.753312840E1,2.376696110E0,1.888508797E0,6.248491287E0,6.946854917E0
1.755250706E1,-1.478739977E-1,2.147313118E0,-5.338720322E0,5.756279616E0
1.757188572E1,2.774458885E0,9.584341049E-1,-9.373591423E0,9.822445429E0
1.759123386E1,5.246378899E0,1.511029243E0,-1.502181053E0,5.662530251E0
1.761061253E1,3.933515072E0,2.910758018E0,3.992855787E0,6.315690809E0
1.762999119E1,-2.310286760E0,5.849084854E0,4.850964546E0,7.942359572E0
1.764933933E1,-4.782674789E0,9.334464073E0,2.356706381E0,1.074989594E1
1.766871800E1,-4.957262039E0,6.699931145E0,-8.711936474E-1,8.379886792E0
1.768809666E1,-3.134174824E0,1.415117264E0,-1.081093311E0,3.604770651E0
1.770744480E1,-1.381234169E0,3.167462349E0,1.073171616E0,3.618331505E0
1.772682346E1,-1.059627295E0,5.031139374E0,1.877619267E0,5.473630195E0
1.774620213E1,-1.499173403E0,3.274936676E0,7.698994875E-1,3.683134038E0
1.776555027E1,-1.106664896E0,-1.526603699E-1,7.387453318E-1,1.339312154E0
1.778492893E1,-1.093146801E0,-2.285617828E0,1.312346935E0,2.853291654E0
1.780433811E1,-1.667037606E0,-3.680107117E0,1.784574866E0,4.416662793E0
1.782371678E1,-2.277229786E0,-3.920870781E0,1.661159754E0,4.828918606E0
1.784306492E1,-2.889981985E0,-4.191973686E0,1.403289437E0,5.281463860E0
1.786244358E1,-3.472488880E0,-4.262980461E0,5.990261436E-1,5.530823967E0
1.788182224E1,-3.046335220E0,-4.334527969E0,-5.373849273E-1,5.325136013E0
1.790117039E1,-1.542356849E0,-3.910464287E0,-1.235680580E0,4.381495416E0
1.792057957E1,-1.434322596E-1,-3.549801826E0,-1.149744153E0,3.734109993E0
1.793992771E1,6.192549467E-1,-3.240963936E0,-7.944675088E-1,3.393891947E0
1.795927586E1,5.028339624E-1,-2.394966125E0,-5.132021308E-1,2.500416198E0
1.797865452E1,-2.931154966E-1,-9.397611618E-1,-8.425337076E-1,1.295735615E0
1.799803318E1,-9.030506611E-1,1.792583466E-1,-1.063515902E0,1.406662761E0
1.801738133E1,-6.511623859E-1,8.734703064E-1,-2.144346952E0,2.405241502E0
1.803675999E1,1.457418203E0,8.123903275E-1,-3.800116777E0,4.150293169E0
1.805613865E1,3.218616009E0,4.780969620E-1,-4.946180344E0,5.920537620E0
1.807553156E1,3.111022711E0,2.413850784E0,-4.762098312E0,6.179216637E0
1.809491022E1,6.407010555E-1,3.914627075E0,-6.140856147E-1,4.013963642E0
1.811428889E1,-8.836454153E-1,3.619146347E0,2.970251560E0,4.764603219E0
1.813363703E1,5.313850641E-1,3.446002960E0,2.072117090E0,4.055980242E0
1.815301569E1,-1.551045179E-1,3.941989899E0,2.464547396E0,4.651594956E0
1.817239436E1,-1.895329118E0,4.800797462E0,2.585739374E0,5.772865567E0
1.819174250E1,-1.478378057E0,5.258013725E0,2.737905025E0,6.109699988E0
1.821112116E1,1.291469216E0,5.368138313E0,3.194017410E0,6.378600858E0
1.823049982E1,9.220069647E-1,4.222099304E0,3.176040411E0,5.363156913E0
1.824987849E1,2.985628843E-1,2.035585403E0,2.927878380E0,3.578438142E0
1.826922663E1,-5.033874512E-2,-7.479543686E-1,2.595448732E0,2.701541014E0
1.828860529E1,-8.277237415E-2,-2.540235519E0,1.868623376E0,3.154584138E0
1.830798396E1,-2.283443213E-1,-4.296807289E0,1.555499911E0,4.575398779E0
1.832733210E1,-2.240678072E-1,-5.159657478E0,9.050611258E-1,5.243224897E0
1.834671076E1,-3.859806061E-2,-5.153348923E0,5.367797613E-1,5.181373123E0
1.836611994E1,-9.148883820E-2,-4.429269791E0,7.902705669E-1,4.500147626E0
1.838546809E1,-1.934999228E-1,-3.830454826E0,8.680853844E-1,3.932352811E0
1.840484675E1,-4.121297598E-1,-3.531391144E0,7.119807005E-1,3.625946893E0
1.842422541E1,-2.532447577E-1,-3.520900726E0,3.384388685E-1,3.546183258E0
1.844357356E1,4.176582098E-1,-3.667497635E0,-6.123809814E-1,3.741655750E0
1.846295222E1,1.369492412E0,-3.532062531E0,-2.392138958E0,4.480324093E0
1.848233088E1,2.523305178E0,-3.659420013E0,-3.743429661E0,5.811341453E0
1.850167902E1,3.828289509E0,-1.627879143E0,-2.520467758E0,4.864005426E0
1.852105769E1,5.234216690E0,2.448703766E0,3.038203001E0,6.528694507E0
1.854043635E1,2.952946424E0,3.680351257E0,3.056987762E0,5.622281756E0
1.855978449E1,1.369740486E0,2.074749947E0,-6.967704296E0,7.397951034E0
1.857916315E1,4.198200226E0,7.349061966E-1,-9.324285507E0,1.025218379E1
1.859854182E1,5.266091347E0,3.579354286E0,1.422287464E0,6.524292821E0
1.861792048E1,-4.016191959E-1,9.760446548E0,1.004128838E1,1.400910729E1
1.863726862E1,-5.808331966E0,8.132530212E0,-5.925192833E-1,1.001128598E1
1.865667780E1,-5.673461914E0,4.472177505E0,3.402190208E-1,7.232170540E0
1.867605647E1,-5.079007149E0,1.990013123E0,2.618910313E0,6.051045948E0
1.869540461E1,-3.840722561E0,4.995933533E0,2.875973463E0,6.926884221E0
1.871478327E1,-1.491388559E0,6.390862465E0,1.136534810E0,6.660260825E0
1.873416193E1,-4.464325905E-1,2.563536644E0,9.693372250E-1,2.776803349E0
1.875351008E1,-1.064854980E0,3.723449707E-1,1.020775318E0,1.521360955E0
1.877288874E1,-1.640952349E0,-1.870881081E0,1.214218378E0,2.768979396E0
1.879226740E1,-1.839865088E0,-3.692955971E0,1.598550797E0,4.424747676E0
1.881161555E1,-2.069634199E0,-4.597888947E0,1.553894162E0,5.276225502E0
1.883099421E1,-2.303439379E0,-4.791543961E0,9.510614872E-1,5.400855900E0
1.885037287E1,-1.998800874E0,-4.416574478E0,9.843945503E-2,4.848816905E0
1.886972102E1,-1.425361514E0,-4.088663101E0,6.650686264E-2,4.330501653E0
1.888909968E1,-1.158082366E0,-3.736525536E0,-1.693313718E-1,3.915539676E0
1.890847834E1,-3.340901136E-1,-3.278807640E0,-8.463007808E-1,3.402707856E0
1.892785700E1,4.789986610E-1,-2.873979568E0,-1.193690538E0,3.148665651E0
1.894723566E1,9.125434160E-1,-2.163123131E0,-5.243285894E-1,2.405568048E0
1.896661433E1,7.804148197E-1,-9.668159485E-1,-4.233914018E-1,1.312646429E0
1.898596247E1,3.661904335E-1,-1.980705261E-1,-1.207029581E0,1.276811567E0
1.900534113E1,2.547595501E-1,4.432859421E-1,-2.148792744E0,2.208781363E0
1.902471980E1,9.753404856E-1,9.444913864E-1,-2.930132389E0,3.229400697E0
1.904409846E1,2.623987198E0,8.950691223E-1,-3.883229017E0,4.771365124E0
1.906344660E1,2.628906250E0,5.449943542E-1,-2.670152903E0,3.786539771E0
1.908282526E1,-1.976692677E-2,2.102990150E0,-1.023333073E0,2.338839217E0
1.910223444E1,-2.091686249E0,3.669184685E0,3.670604527E-1,4.239434041E0
1.912155207E1,-4.754917622E-1,3.000728607E0,4.995078743E-1,3.078956431E0
1.914093073E1,1.529447794E0,1.276515007E0,2.028441429E0,2.843110225E0
1.916030940E1,1.396477699E0,1.509235382E0,3.291476488E0,3.880948193E0
1.917965754E1,-1.511121988E0,4.005480766E0,1.103606224E0,4.421008090E0
1.919903620E1,-2.511035204E0,7.521312714E0,9.182840586E-1,7.982398659E0
1.921841486E1,5.557681322E-1,7.535327911E0,4.087401390E0,8.590511921E0
1.923779353E1,1.013324857E0,5.002607346E0,2.385294914E0,5.634051770E0
1.925717219E1,1.189460039E0,1.015225410E0,1.873233557E0,2.440184783E0
1.927655085E1,1.421158075E0,-2.212233543E0,4.516558647E-1,2.667894403E0
1.929589899E1,1.282289863E0,-3.562411308E0,1.170489907E0,3.962964578E0
1.931527766E1,6.422500610E-1,-5.052728653E0,1.209597826E0,5.235043351E0
1.933465632E1,-1.073690414E0,-5.112967491E0,1.440471649E0,5.419428590E0
1.935400446E1,-2.026324749E0,-5.274758339E0,9.325610399E-1,5.727018213E0
1.937338312E1,-1.945104241E0,-5.327649117E0,3.413465023E-1,5.681882879E0
1.939276179E1,-8.455888033E-1,-4.589029312E0,2.510734797E-1,4.673034169E0
1.941214045E1,1.712069511E-1,-3.919370651E0,3.551671505E-1,3.939152425E0
1.943148859E1,7.217208147E-1,-3.521984100E0,-1.391199827E-1,3.597861491E0
1.945086726E1,1.565708041E0,-3.616075516E0,-1.453102589E0,4.199875110E0
1.947024592E1,3.295352936E0,-3.665779114E0,-2.332425117E0,5.453209551E0
1.948959406E1,4.019977093E0,3.856945038E-2,-1.407152295E0,4.259316965E0
1.950900324E1,2.159626007E0,4.494464874E0,5.814693451E0,7.659951627E0
1.952838190E1,1.549820900E-1,4.549298286E0,-7.354390621E-1,4.610965730E0
1.954773005E1,2.011769533E0,2.295997620E0,-1.056173897E1,1.099405074E1
1.956710871E1,5.609104156E0,2.495447159E0,-6.653026581E0,9.052738185E0
1.958648737E1,7.305496216E0,6.232486725E0,6.086235046E0,1.136909947E1
1.960583552E1,-1.427429318E0,8.336161613E0,4.139759541E0,9.416302563E0
1.962521418E1,-6.158747673E0,5.776030540E0,1.986875772E0,8.674121111E0
1.964459284E1,-3.402285576E0,1.856320381E0,-9.014451504E-2,3.876802617E0
1.966394099E1,-3.083368063E0,-1.007577896E0,2.446130276E0,4.062748473E0
1.968331965E1,-3.187816143E0,2.130930901E0,2.795995712E0,4.745590615E0
1.970269831E1,-2.114737511E0,5.653894424E0,3.089969158E-1,6.044345787E0
1.972204646E1,-1.381409645E0,3.542519569E0,2.484240532E-1,3.810439872E0
1.974142512E1,-4.803605080E-1,8.927173615E-1,2.247500420E-1,1.038365584E0
1.976080378E1,-3.823144436E-1,-1.151346207E0,1.075531840E0,1.621274548E0
1.978015192E1,-1.171479821E0,-2.856504440E0,2.200924397E0,3.791576293E0
1.979956110E1,-2.137535334E0,-3.601421356E0,2.608610392E0,4.933978239E0
1.981893977E1,-2.707272053E0,-3.831682205E0,1.079665065E0,4.814227575E0
1.983831843E1,-2.569278240E0,-4.129413605E0,-4.766436815E-1,4.886761360E0
1.985766657E1,-1.919484735E0,-4.014903069E0,-3.523280025E-1,4.464079224E0
1.987704524E1,-1.022049904E0,-3.657885551E0,1.267144084E-2,3.798009120E0
1.989642390E1,-5.537887812E-1,-3.448200226E0,-2.605399489E-2,3.492484162E0
1.991577204E1,-2.921628952E-2,-3.424910545E0,-2.772981822E-1,3.436242151E0
1.993515070E1,2.118662596E-1,-3.214351654E0,-7.140758038E-1,3.299522408E0
1.995452937E1,4.390095472E-1,-2.380676270E0,-1.073345661E0,2.648097391E0
1.997387751E1,2.002960443E-1,-1.552839279E0,-1.123043180E0,1.926824931E0
1.999325617E1,-3.215914965E-1,-7.320051193E-1,-2.296330214E0,2.431539643E0
2.001263483E1,-1.557874680E-2,9.322214127E-1,-3.264719963E0,3.395243128E0
2.003198298E1,2.060723543E0,1.263643265E0,-4.441684723E0,5.056870475E0
2.005136164E1,3.285275936E0,1.934012413E0,-2.849512100E0,4.759533717E0
2.007074030E1,1.562044024E0,4.014436722E0,-1.178064585E0,4.465816823E0
2.009011897E1,-8.222405910E-1,4.192741394E0,-1.425737381E0,4.504207707E0
2.010949763E1,3.012642860E-1,2.524158478E0,1.532997847E0,2.968538123E0
2.012887629E1,2.213506222E0,1.131569862E0,4.697400570E0,5.314662008E0
2.014822443E1,9.698050022E-1,1.778142929E0,3.269201040E0,3.845775534E0
2.016760310E1,-1.231447577E0,4.979538918E0,5.528815985E-1,5.159258574E0
2.018698176E1,-2.093960047E0,8.170547485E0,8.191213608E-1,8.474283137E0
2.020636042E1,-1.125355005E0,7.036442757E0,6.222230911E0,9.460132561E0
2.022570856E1,-3.191492558E-1,3.540644646E0,6.464623213E-1,3.613299640E0
2.024508723E1,4.090944529E-1,1.093758583E0,3.140226603E-1,1.209246187E0
2.026446589E1,1.339736819E0,-1.675286293E0,4.887603521E-1,2.200083087E0
2.028381403E1,9.538156986E-1,-3.494046211E0,1.864961147E0,4.073843811E0
2.030319270E1,-3.159812689E-1,-4.361715317E0,2.600707531E0,5.088033444E0
2.032257136E1,-1.031553626E0,-5.184717178E0,3.053255081E-1,5.295150495E0
2.034191950E1,-1.465671301E0,-5.486567497E0,6.422674656E-2,5.679325694E0
2.036129816E1,-1.223886371E0,-4.619415283E0,8.695746660E-1,4.857268317E0
2.038070734E1,-9.508737326E-1,-3.707372665E0,1.173548937E0,4.003247437E0
2.040005549E1,-2.320177555E-1,-3.160853386E0,4.074343443E-1,3.195438798E0
2.041943415E1,4.262015820E-1,-3.203824997E0,-4.852987528E-1,3.268280477E0
2.043881281E1,7.293298244E-1,-3.447250366E0,-1.315333724E0,3.761058346E0
2.045816096E1,1.816442370E0,-3.887296677E0,-2.571800709E0,5.002469113E0
2.047753962E1,3.518958569E0,-3.558429718E0,-3.064358234E0,5.868200990E0
2.049691828E1,4.605265617E0,-5.924434662E-1,-8.070672750E-1,4.712835479E0
2.051629694E1,3.036124468E0,4.430534363E0,5.724484444E0,7.849675705E0
2.053564509E1,-6.199624538E-1,4.680092812E0,-2.735102177E0,5.456043080E0
2.055502375E1,1.977341175E0,1.300883293E0,-1.211586475E1,1.234489183E1
2.057440241E1,5.978646755E0,1.319213867E0,-6.097937584E0,8.641144891E0
2.059375056E1,6.376294136E0,5.974830627E0,7.396059990E0,1.144803177E1
2.061312922E1,-3.347590446E0,9.738806725E0,2.804315090E0,1.067309240E1
2.063250788E1,-6.644208908E0,7.895195961E0,1.299250245E0,1.040036934E1
2.065188654E1,-5.345200539E0,1.852300644E0,4.902067184E-1,5.678247009E0
2.067126520E1,-3.218967676E0,5.690765381E-1,3.367837906E0,4.693392501E0
2.069064387E1,-1.263523579E0,4.773720741E0,2.966557980E0,5.760674248E0
2.070999201E1,-4.732508659E-1,5.851272583E0,5.837906599E-1,5.899336298E0
2.072937067E1,-4.829790592E-1,1.279961586E0,3.306316137E-1,1.407440122E0
2.074874934E1,-1.323565245E0,-9.368171692E-1,-3.473681211E-1,1.658347363E0
2.076809748E1,-1.776365042E0,-2.570611954E0,3.248848915E-1,3.141507404E0
2.078747614E1,-1.936488748E0,-4.367892265E0,1.512094498E0,5.011476956E0
2.080685480E1,-2.701564312E0,-4.645848274E0,1.583833337E0,5.602756818E0
2.082620295E1,-3.058911800E0,-4.196536064E0,1.178141713E0,5.325023402E0
2.084558161E1,-2.157504797E0,-3.540344238E0,6.942269802E-1,4.203666896E0
2.086496027E1,-1.445474863E0,-3.608590126E0,7.341943383E-1,3.956053792E0
2.088430842E1,-6.889550686E-1,-3.788733482E0,1.398563385E-1,3.853403727E0
2.090368708E1,5.104124546E-2,-3.795398712E0,-1.291016340E-1,3.797936785E0
2.092306574E1,2.450021505E-1,-3.578305244E0,-5.147193074E-1,3.623427996E0
2.094244440E1,1.623270512E-1,-2.845362663E0,-5.697734952E-1,2.906386174E0
2.096182307E1,-5.864939690E-1,-1.699436188E0,-6.215398908E-1,1.902201453E0
2.098120173E1,-1.695391178E0,-3.939418793E-1,-1.188243270E0,2.107478000E0
2.100058039E1,-2.021087646E0,4.125852585E-1,-2.231211424E0,3.038638887E0
2.101992854E1,2.173340321E-1,1.386871338E0,-4.076443195E0,4.311384385E0
2.103930720E1,2.859145164E0,2.285618782E0,-3.598731995E0,5.133189677E0
2.105868586E1,3.078379631E0,3.832721710E0,-1.839154482E0,5.248682317E0
2.107803400E1,4.706997871E-1,4.185103416E0,-4.391918778E-1,4.234328566E0
2.109741267E1,-3.861156702E-1,3.796485901E0,1.002816796E0,3.945634554E0
2.111679133E1,1.715668440E0,2.193599701E0,2.853571892E0,3.987263521E0
2.113613947E1,2.275906563E0,1.198576927E0,3.738474846E0,4.537899460E0
2.115551814E1,-1.149803400E-1,2.447437286E0,1.485514402E0,2.865296283E0
2.117489680E1,-2.697746515E0,6.247332573E0,4.922519922E-1,6.822705663E0
2.119424494E1,-6.814838648E-1,7.704480171E0,4.628327370E0,9.013592470E0
2.121362360E1,5.073157549E-1,7.006922722E0,2.928358555E0,7.611150973E0
2.123303278E1,2.761379480E-1,2.724399567E0,1.448165178E0,3.097706821E0
2.125238093E1,7.162793875E-1,-1.599249840E0,1.238821387E0,2.146004343E0
2.127175959E1,4.836218357E-1,-3.515641212E0,1.278579831E0,3.772053764E0
2.129113825E1,-3.165392876E-1,-5.536568642E0,1.039820313E0,5.642252718E0
2.131048640E1,-1.496504664E0,-6.690876961E0,7.498121262E-2,6.856601410E0
2.132986506E1,-2.082886219E0,-6.858022690E0,4.340168238E-1,7.180477757E0
2.134924372E1,-1.848245740E0,-6.414491653E0,6.539286375E-1,6.707409198E0
2.136862238E1,-1.040159941E0,-5.519094467E0,5.624052286E-1,5.644345496E0
2.138797053E1,1.043448448E-1,-4.049088478E0,5.230801105E-1,4.084068823E0
2.140734919E1,8.553366661E-1,-2.780462265E0,2.729773521E-3,2.909051163E0
2.142672785E1,1.167455673E0,-2.036137581E0,-7.127025127E-1,2.452907228E0
2.144607600E1,1.872164488E0,-1.863912582E0,-2.252422810E0,3.471682373E0
2.146545466E1,3.140796900E0,-9.900417328E-1,-2.818706274E0,4.334731002E0
2.148483332E1,4.760040283E0,1.651874542E0,-5.064587593E-1,5.063908913E0
2.150421198E1,4.837292671E0,3.954857826E0,2.996276855E0,6.929500401E0
2.152359065E1,2.104579449E0,4.725432396E0,2.266521454E-1,5.177869946E0
2.154296931E1,2.714192390E0,2.950856209E0,-6.363440514E0,7.521154690E0
2.156231745E1,4.269829273E0,1.153103828E0,-7.777106285E0,8.946757660E0
2.158169611E1,4.370547295E0,2.896935463E0,-9.494755268E-1,5.328735545E0
2.160107478E1,-9.694565535E-1,6.829770088E0,8.567456245E0,1.099940507E1
2.162042292E1,-6.608305931E0,7.367866516E0,4.638282776E0,1.093017984E1
2.163980158E1,-5.423871994E0,2.441818237E0,2.493441105E-1,5.953405429E0
2.165918024E1,-3.962621927E0,-3.981554031E0,8.473532200E-1,5.680946446E0
2.167852839E1,-1.297462225E0,-2.698147774E0,1.808966517E0,3.497966480E0
2.169793757E1,-4.488700628E-1,5.005981445E0,1.643703938E0,5.288014485E0
2.171728571E1,-1.447371244E-1,9.885770798E0,7.279922962E-1,9.913596012E0
2.173666438E1,-4.742343426E-1,4.955727577E0,1.553422332E0,5.215098750E0
2.175601252E1,-1.181962013E0,6.261110306E-1,1.302106619E0,1.866689816E0
2.177539118E1,-1.270127773E0,-2.379102707E0,1.020919323E0,2.883683498E0
2.179476984E1,-1.874215603E0,-3.692200661E0,1.364032745E0,4.359543001E0
2.181414851E1,-2.532082319E0,-4.541679382E0,1.785914660E0,5.497979961E0
2.183352717E1,-2.827241659E0,-4.897764206E0,1.188014746E0,5.778647649E0
2.185290583E1,-2.434635162E0,-4.260922432E0,3.225711584E-1,4.918024044E0
2.187225398E1,-1.930927157E0,-3.810913086E0,3.587682247E-1,4.287219714E0
2.189163264E1,-1.171938777E0,-3.959841728E0,3.783605993E-1,4.146919791E0
2.191101130E1,-3.365520239E-1,-4.260252953E0,-2.221690118E-1,4.279296853E0
2.193035944E1,3.630627394E-1,-4.233007431E0,-1.040475965E0,4.374100673E0
2.194973811E1,7.882338762E-1,-3.257355690E0,-1.152254939E0,3.543920171E0
2.196911677E1,8.048803806E-1,-2.483588219E0,-1.419733047E0,2.971815067E0
2.198846491E1,-1.890729666E-1,-9.331178665E-1,-1.885263324E0,2.112031093E0
2.200784357E1,-1.157516003E0,5.403223038E-1,-2.692008734E0,2.979715173E0
2.202722224E1,-4.265344143E-2,1.849583626E0,-3.964638233E0,4.375058311E0
2.204657038E1,2.703201771E0,2.435032845E0,-4.033885002E0,5.432210690E0
2.206594904E1,4.095551491E0,2.516832352E0,-3.817261219E0,6.138360556E0
2.208535822E1,3.870345116E0,2.918441772E0,-2.444876671E0,5.429023451E0
2.210473688E1,8.423503637E-1,3.003701210E0,1.586234570E0,3.499702159E0
2.212408503E1,-5.972800255E-1,2.497604370E0,3.442286730E0,4.294660516E0
2.214346369E1,1.079341173E-1,1.022226334E0,2.651138783E0,2.843436881E0
2.216284235E1,-1.355982065E0,2.008851051E0,4.442005157E-1,2.464038150E0
2.218219050E1,-4.486312866E0,5.337616920E0,-1.250844240E0,7.083909149E0
2.220156916E1,-2.525655746E0,6.259789467E0,5.943733454E-1,6.776221720E0
2.222094782E1,1.892322421E0,6.376725197E0,5.790270329E0,8.818771959E0
2.224029597E1,2.578259945E0,4.974052429E0,4.794349194E0,7.373900332E0
2.225967463E1,1.223317504E0,1.230883598E0,2.582406044E0,3.111334300E0
2.227905329E1,1.288903952E0,-2.019674301E0,1.113488436E0,2.642009496E0
2.229840144E1,6.707848310E-1,-3.683735847E0,-7.923340797E-2,3.745148864E0
2.231778010E1,5.084300041E-2,-5.586259842E0,1.885176897E-1,5.589671095E0
2.233715876E1,-1.103739738E0,-6.585653305E0,-5.192719698E-1,6.697664835E0
2.235650690E1,-1.516023040E0,-6.295243263E0,-7.401204109E-2,6.475638299E0
2.237591608E1,-1.532077074E0,-5.038847923E0,7.047177553E-1,5.313555840E0
2.239529475E1,-1.453717232E0,-4.221755028E0,1.537710547E0,4.722400135E0
2.241464289E1,-8.505084515E-1,-3.333957672E0,1.369990945E0,3.703446175E0
2.243402155E1,5.061149597E-3,-2.680434227E0,8.526701927E-1,2.812792157E0
2.245340022E1,8.301757574E-1,-2.812149048E0,-6.615587473E-1,3.005833334E0
2.247274836E1,1.894306421E0,-2.965633392E0,-2.539772034E0,4.339794951E0
2.249212702E1,2.921787739E0,-1.887634277E0,-2.591841221E0,4.337931266E0
2.251150568E1,4.064014435E0,7.332429886E-1,7.490277290E-3,4.129638569E0
2.253088435E1,3.833428860E0,3.709156036E0,4.469545364E0,6.959155918E0
2.255023249E1,1.406452537E0,2.794999123E0,-4.869145870E0,5.787807041E0
2.256961115E1,2.262025595E0,2.138241768E0,-8.889618874E0,9.418819531E0
2.258898982E1,6.409960270E0,2.682722092E0,-2.051759243E0,7.245295334E0
2.260833796E1,7.359701157E0,7.723635674E0,8.159932137E0,1.343146461E1
2.262771662E1,-2.546258688E0,7.228172302E0,1.556925535E0,7.820097522E0
2.264709528E1,-6.189484596E0,2.600353241E0,4.492392540E-1,6.728549060E0
2.266647394E1,-4.951191425E0,-4.049386978E-1,-4.995439053E-1,4.992776381E0
2.268585261E1,-4.174204826E0,-8.332347870E-2,1.597494960E0,4.470225820E0
2.270523127E1,-2.871701717E0,6.618925095E0,2.783874750E0,7.733485552E0
2.272457941E1,-8.979554176E-1,9.287234306E0,1.458734870E0,9.443884392E0
2.274395808E1,-1.320929527E-1,4.099691391E0,1.159448147E0,4.262538921E0
2.276333674E1,-2.767671347E-1,-3.498935699E-2,1.048096776E0,1.084588011E0
2.278268488E1,-7.748618126E-1,-2.023543358E0,1.062803984E0,2.413439632E0
2.280206355E1,-1.608887911E0,-3.546662331E0,1.518693209E0,4.180163042E0
2.282144221E1,-2.552898407E0,-4.222309113E0,1.422303200E0,5.134990838E0
2.284079035E1,-3.075947762E0,-4.180032730E0,3.309082389E-1,5.200348884E0
2.286016901E1,-2.571121216E0,-4.620863914E0,-2.455075979E-1,5.293705848E0
2.287957819E1,-1.383484960E0,-4.701141357E0,-1.326221228E-1,4.902280013E0
2.289892634E1,-3.859218359E-1,-4.573471069E0,-1.763993502E-1,4.593113325E0
2.291827448E1,3.478869200E-1,-3.968573570E0,-5.544202328E-1,4.022186381E0
2.293765315E1,4.823933840E-1,-3.142892838E0,-5.516593456E-1,3.227197979E0
2.295706232E1,4.053698778E-1,-2.032951355E0,-1.202426791E0,2.396465342E0
2.297641047E1,-2.195537090E-2,-7.680711746E-1,-9.618381262E-1,1.231075931E0
2.299578913E1,-7.125234604E-1,-3.580169678E-1,-1.229471684E0,1.465423642E0
2.301516779E1,-9.646279812E-1,-2.544384003E-1,-1.694966674E0,1.966763348E0
2.303451594E1,3.704550266E-1,-7.785015106E-1,-2.955678940E0,3.078853605E0
2.305389460E1,2.451107979E0,-1.663763046E0,-4.421767235E0,5.322411416E0
2.307327326E1,1.614930749E0,3.173742294E-1,-4.423489571E0,4.719744454E0
2.309262141E1,-8.725857735E-2,3.191288948E0,-3.517179966E0,4.749999381E0
2.311200007E1,-3.782192469E-1,4.394351006E0,5.613987446E-1,4.446182532E0
2.313137873E1,1.056792855E0,3.567785263E0,4.030136108E0,5.485243830E0
2.315072688E1,9.506554604E-1,3.660167694E0,3.420299053E0,5.098923314E0
2.317010554E1,-7.434835434E-1,5.556860924E0,1.791854620E0,5.885763679E0
2.318948420E1,-1.200312734E0,7.410568237E0,1.567710519E0,7.669093071E0
2.320883234E1,8.524739742E-1,7.576842308E0,3.275951385E0,8.298620893E0
2.322824152E1,2.310347080E0,5.422014236E0,3.281811237E0,6.745830342E0
2.324762019E1,1.590049148E0,2.560947418E0,1.665094495E0,3.443725838E0
2.326699885E1,1.314327359E0,-1.503486633E-1,8.031975031E-1,1.547639285E0
2.328634699E1,1.386411548E0,-1.797675133E0,5.398025513E-1,2.333486588E0
2.330572565E1,9.497455359E-1,-3.563639641E0,5.185974836E-1,3.724310328E0
2.332510432E1,-4.527370930E-1,-4.783978462E0,1.090767145E0,4.927595130E0
2.334445246E1,-1.755061269E0,-5.374377251E0,4.972621202E-1,5.675512356E0
2.336383112E1,-2.231188297E0,-5.371814728E0,1.071106076E0,5.914546721E0
2.338320979E1,-2.012759209E0,-5.008917809E0,1.174135804E0,5.524405138E0
2.340255793E1,-1.532793522E0,-4.739533424E0,6.467592716E-1,5.023039978E0
2.342193659E1,-7.835890055E-1,-4.133531570E0,5.172588825E-1,4.238826692E0
2.344131525E1,-2.663224936E-1,-3.722101212E0,4.130828381E-2,3.731845585E0
2.346066340E1,4.937182665E-1,-3.526891708E0,-1.094372153E0,3.725637296E0
2.348004206E1,1.884649992E0,-3.421199799E0,-2.166865110E0,4.466745802E0
2.349942072E1,3.012008190E0,-2.159358978E0,-1.624564648E0,4.046508968E0
2.351879938E1,4.022542000E0,2.368783951E-1,2.166729689E0,4.575114540E0
2.353817805E1,3.623339176E0,2.253870964E0,3.777604580E0,5.699018992E0
2.355755671E1,1.765546441E0,2.549706459E0,-5.348052979E0,6.182218689E0
2.357690485E1,4.512327194E0,1.826959610E0,-9.980970383E0,1.110489297E1
2.359628352E1,6.277304649E0,1.471180916E0,-2.647024632E0,6.969624549E0
2.361566218E1,3.776554108E0,5.230261803E0,6.939797401E0,9.475166881E0
2.363504084E1,-5.422238827E0,8.713881493E0,4.676095009E0,1.127822101E1
2.365438898E1,-6.030341625E0,8.980705261E0,-7.858045101E-1,1.084599354E1
2.367376765E1,-5.268536091E0,1.141456604E0,-2.300873756E0,5.861264007E0
2.369314631E1,-3.335893393E0,-1.476452827E0,1.966994524E0,4.144534369E0
2.371249445E1,-3.202824593E-1,5.667241096E0,2.936288595E0,6.390774070E0
2.373187312E1,1.001658440E-1,9.011703491E0,3.620342016E-1,9.019528911E0
2.375125178E1,2.963494062E-1,3.395470619E0,3.644075394E-1,3.427803459E0
2.377059992E1,-7.000023127E-1,-4.994392395E-2,5.642859936E-1,9.005089205E-1
2.378997858E1,-1.269047379E0,-2.181240082E0,5.058453083E-1,2.573746107E0
2.380938776E1,-1.401841044E0,-3.758547783E0,5.206718445E-1,4.045112967E0
2.382873591E1,-1.630432606E0,-4.003054619E0,6.730884314E-1,4.374449085E0
2.384811457E1,-1.890646577E0,-4.120491028E0,8.245022297E-1,4.607905676E0
2.386749323E1,-2.168201447E0,-4.450419426E0,8.275502920E-1,5.019180218E0
2.388684138E1,-2.017487526E0,-5.178749084E0,-7.523387671E-2,5.558359302E0
2.390622004E1,-1.316228151E0,-5.240790367E0,-1.008484483E0,5.496851933E0
2.392559870E1,-4.491182566E-1,-4.681916237E0,-1.142102361E0,4.840087257E0
2.394494685E1,7.089126110E-2,-3.523568153E0,-1.001006722E0,3.663682923E0
2.396432551E1,2.141915560E-1,-2.180858612E0,-1.016647220E0,2.415697390E0
2.398370417E1,4.525345564E-2,-9.252338409E-1,-4.971582890E-1,1.051319124E0
2.400308283E1,-2.505537271E-1,-2.678108215E-2,-1.133661628E0,1.161328155E0
2.402243098E1,1.243970394E-1,3.228416443E-1,-1.832563162E0,1.864936753E0
2.404180964E1,9.811816216E-1,-1.405506134E-1,-1.803937435E0,2.058315360E0
2.406121882E1,1.728937387E0,-6.243762970E-1,-2.807210445E0,3.355517953E0
2.408056696E1,1.457947969E0,-1.218502045E0,-3.537752390E0,4.015725524E0
2.409994562E1,-6.416307688E-1,1.157732010E-1,-3.966756344E0,4.019981265E0
2.411932429E1,-2.779507399E0,2.091122627E0,-3.830845356E0,5.174343568E0
2.413867243E1,-1.546808362E0,2.002395630E0,-9.823632240E-1,2.714266360E0
2.415805109E1,1.699959993E0,8.456697464E-1,1.906216383E0,2.690479920E0
2.417742976E1,2.665422916E0,2.584636688E0,2.036107063E0,4.234448973E0
2.419677790E1,2.749075174E0,5.789672852E0,4.195016861E0,7.660019093E0
2.421615656E1,7.025728226E-1,1.188461113E1,5.237501144E0,1.300649870E1
2.423553523E1,-6.279194355E-1,1.221852207E1,1.400393724E0,1.231453073E1
2.425488337E1,9.913018942E-1,6.381334305E0,2.377355814E0,6.881564330E0
2.427426203E1,2.852765918E-1,1.241710663E0,-1.976994276E-1,1.289307243E0
2.429364069E1,2.328361273E-1,-2.661876678E-1,1.449805498E-1,3.822144640E-1
2.431298884E1,1.570199847E0,-1.702705383E0,2.036246061E-1,2.325122827E0
2.433236750E1,1.353811502E0,-2.670768738E0,1.880269766E0,3.535707232E0
2.435174616E1,3.447715044E-1,-3.985901833E0,1.691260934E0,4.343575066E0
2.437112482E1,-1.318830490E0,-4.411545753E0,4.815446138E-1,4.629571796E0
2.439050349E1,-2.146957397E0,-5.206046104E0,9.950935841E-2,5.632250369E0
2.440988215E1,-2.150618315E0,-5.493584633E0,7.538292408E-1,5.947511226E0
2.442926081E1,-1.920297503E0,-5.659856796E0,6.213599443E-1,6.008960778E0
2.444860896E1,-1.564100981E0,-5.921688080E0,3.187214136E-1,6.133056736E0
2.446798762E1,-8.040834665E-1,-5.586871147E0,-4.098956585E-1,5.659301537E0
2.448736628E1,5.584250689E-1,-5.125292778E0,-1.491054893E0,5.366908729E0
2.450671442E1,2.370712519E0,-4.210785866E0,-2.235228062E0,5.324212612E0
2.452609309E1,3.566249371E0,-1.024785995E0,-1.785900116E0,4.117980104E0
2.454547175E1,3.272505522E0,2.897487640E0,2.192909241E0,4.890151118E0
2.456481989E1,2.522179127E0,4.496658325E0,6.839211941E0,8.564820116E0
2.458419856E1,3.038341522E0,2.110005379E0,-9.401214600E0,1.010279555E1
2.460357722E1,5.011793137E0,1.171804428E0,-8.824901581E0,1.021616777E1
2.462292536E1,7.134311676E0,2.099143982E0,-1.770559311E0,7.644585589E0
2.464230402E1,3.309434414E0,9.338397980E0,1.239521408E1,1.586818720E1
2.466171320E1,-5.081379414E0,1.051640034E1,1.785377741E0,1.181535723E1
2.468106135E1,-5.291498184E0,4.211889267E0,-2.592162609E0,7.242877275E0
2.470044001E1,-6.493882656E0,2.964267731E-1,6.094820499E-1,6.529153785E0
2.471981867E1,-4.814530373E0,3.946170807E0,2.266993046E0,6.625045224E0
2.473919733E1,-1.553429246E0,1.003988552E1,1.422911406E0,1.025851454E1
2.475854548E1,-2.795219421E-1,6.661851883E0,7.046569586E-1,6.704844849E0
2.477792414E1,-3.359758854E-1,2.130207062E0,6.650277376E-1,2.256750720E0
2.479730280E1,-3.007313013E-1,-1.792974472E0,8.517016172E-1,2.007633537E0
2.481665095E1,-8.885109425E-1,-4.647917747E0,1.357637405E0,4.922983893E0
2.483602961E1,-1.449271798E0,-5.669803619E0,1.159360409E0,5.965834257E0
2.485540827E1,-1.580694199E0,-5.330300331E0,6.350646615E-1,5.595891608E0
2.487475642E1,-1.558838010E0,-4.655383110E0,3.478243947E-1,4.921742542E0
2.489413508E1,-1.565013409E0,-4.730019569E0,3.876677752E-1,4.997263091E0
2.491351374E1,-1.196287632E0,-5.251700401E0,6.661021709E-2,5.386640709E0
2.493286188E1,-6.547824144E-1,-5.230220795E0,-3.017193675E-1,5.279676519E0
2.495227106E1,-2.036767006E-1,-4.668471336E0,-7.527896166E-1,4.733159729E0
2.497164973E1,3.095601797E-1,-3.628005028E0,-1.407064080E0,3.903597996E0
2.499099787E1,7.181806564E-1,-2.025605202E0,-1.595507026E0,2.676658842E0
2.501037653E1,8.591948748E-1,-2.986993790E-1,-1.772857428E0,1.992601468E0
2.502975520E1,3.204697371E-1,8.278160095E-1,-9.933699965E-1,1.332202743E0
2.504910334E1,-6.075906754E-1,1.681597710E0,-1.150494218E0,2.126164206E0
2.506848200E1,6.088198423E-1,1.017642021E0,-2.813562870E0,3.053259391E0
2.508786066E1,2.322839022E0,6.119546890E-1,-5.142164707E0,5.675555263E0
2.510723933E1,1.664836645E0,2.303257942E0,-4.640009403E0,5.441173170E0
2.512658747E1,-5.338237882E-1,2.750844002E0,-4.893798828E-1,2.844574349E0
2.514596613E1,-1.840166450E-1,2.041680336E0,3.757345438E0,4.280182877E0
2.516534480E1,4.874585867E-1,2.830653191E0,2.298964262E0,3.679055590E0
2.518469294E1,-6.565563083E-1,5.063461304E0,1.026844263E0,5.208081768E0
2.520407160E1,-1.384093046E0,8.866960526E0,1.897761583E0,9.172796823E0
2.522345026E1,2.099392414E0,8.014250755E0,2.317013264E0,8.602570206E0
2.524285944E1,2.633044720E0,6.965462685E0,6.343188763E0,9.781954743E0
2.526220759E1,1.208986282E0,4.052396774E0,2.440480709E0,4.882572430E0
2.528158625E1,5.601294637E-1,5.287952423E-1,-1.143411398E-1,7.787447082E-1
2.530093440E1,1.024776459E0,-1.348289490E0,8.370589018E-1,1.889105329E0
2.532031306E1,5.535870790E-1,-3.204594612E0,1.363340616E0,3.526270398E0
2.533969172E1,-1.230519772E0,-5.906221390E0,1.725845575E0,6.275043662E0
2.535903986E1,-2.233760595E0,-5.856916428E0,2.558014393E-1,6.273642547E0
2.537841853E1,-2.021441936E0,-5.430957794E0,9.228825569E-2,5.795692123E0
2.539779719E1,-1.170688987E0,-4.393012047E0,7.790057659E-1,4.612582523E0
2.541714533E1,-5.543357134E-1,-4.163181305E0,7.569854259E-1,4.267598106E0
2.543652399E1,-1.091835499E-1,-4.195929527E0,5.365384817E-1,4.231503183E0
2.545590266E1,4.574558735E-1,-3.747889519E0,2.340976000E-1,3.782954323E0
2.547528132E1,7.704206705E-1,-3.187226295E0,-7.344056368E-1,3.360254619E0
2.549462946E1,1.590676427E0,-3.183657646E0,-2.007181644E0,4.085915522E0
2.551403864E1,2.883702278E0,-3.506051064E0,-2.913237572E0,5.393986099E0
2.553341730E1,3.751557350E0,-1.774097443E0,-2.170502186E0,4.683234355E0
2.555276545E1,4.108348846E0,3.549429893E0,5.223461151E0,7.534024768E0
2.557214411E1,1.692575574E0,3.197861671E0,-6.380496025E-1,3.673994915E0
2.559152277E1,2.497091293E0,-9.330940247E-2,-1.115868378E1,1.143505117E1
2.561087092E1,4.919978142E0,1.792983055E0,-3.795057058E0,6.467103774E0
2.563024958E1,4.534874439E0,8.410961151E0,1.198748112E1,1.533000513E1
2.564962824E1,-3.822952747E0,1.126277447E1,3.247764111E-1,1.189834174E1
2.566897639E1,-5.604575157E0,6.429759026E0,-1.551341534E0,8.669470824E0
2.568835505E1,-5.919476509E0,3.311414719E-1,1.077235579E0,6.025802296E0
2.570773371E1,-4.933383465E0,1.065100670E0,3.616521358E0,6.209020743E0
2.572708186E1,-1.532126188E0,8.189624786E0,1.350337148E0,8.440425061E0
2.574646052E1,5.080988407E-1,6.528331757E0,-6.266994476E-1,6.577996059E0
2.576583918E1,9.822559357E-2,1.939517975E0,1.394273996E0,2.390685721E0
2.578518732E1,-7.997530699E-1,-8.402233124E-1,1.323900938E0,1.760197114E0
2.580459650E1,-1.269418120E0,-2.624001503E0,1.213006616E0,3.157244258E0
2.582397517E1,-1.395336986E0,-3.614891052E0,1.036694884E0,4.011126887E0
2.584335383E1,-1.518925786E0,-3.934019089E0,9.941152334E-1,4.332655863E0
2.586270197E1,-1.802843571E0,-4.274832726E0,8.265464306E-1,4.712496024E0
2.588208064E1,-2.281620026E0,-4.484875679E0,9.057418704E-1,5.112755435E0
2.590145930E1,-1.967039585E0,-4.458343506E0,2.778301239E-1,4.880907818E0
2.592080744E1,-1.101938844E0,-4.258657455E0,-3.405682445E-1,4.412076526E0
2.594018610E1,-5.969238281E-2,-3.909412384E0,-9.789220095E-1,4.030552899E0
2.595956477E1,8.293434381E-1,-3.370944977E0,-1.686588287E0,3.859489685E0
2.597891291E1,1.205891132E0,-2.682804108E0,-1.787806392E0,3.442072486E0
2.599829157E1,1.059844136E0,-2.102482796E0,-1.304413795E0,2.691690705E0
2.601767024E1,-1.477808952E-1,-7.005491257E-1,-9.072692394E-1,1.155744670E0
2.603701838E1,-1.373732686E0,1.191422462E0,-2.235821962E0,2.881931440E0
2.605639704E1,-1.895068884E-1,2.511251450E0,-3.545331478E0,4.348755223E0
2.607577570E1,1.627216220E0,2.227091789E0,-2.617503881E0,3.802511937E0
2.609515437E1,1.186065316E0,1.802092552E0,-2.547179222E0,3.338024939E0
2.611453303E1,-1.202039480E0,2.534536362E0,-2.156998396E0,3.538561227E0
2.613391169E1,-2.807319641E0,3.961713791E0,1.178508997E0,4.996509100E0
2.615329035E1,-1.419788480E0,3.536883354E0,4.888398647E0,6.198530836E0
2.617263850E1,8.939766884E-1,1.150385857E0,6.151061058E-1,1.581435253E0
2.619201716E1,1.558039665E0,2.980885506E0,-1.206488371E0,3.573342999E0
2.621139582E1,1.165002704E0,4.376073837E0,1.039788723E-1,4.529687090E0
2.623074397E1,2.416331053E0,5.406124115E0,6.547056675E0,8.827728179E0
2.625012263E1,2.881025314E0,5.046276093E0,3.460495472E0,6.763152976E0
2.626950129E1,9.902563095E-1,1.725238800E0,8.841669559E-2,1.991199133E0
2.628884943E1,-2.577255964E-1,-4.432010651E-2,2.910431623E-1,3.912708490E-1
2.630822810E1,4.296344519E-1,-2.076789856E0,-4.315340519E-2,2.121203452E0
2.632760676E1,7.633903027E-1,-3.850255013E0,2.244073868E0,4.521404200E0
2.634695490E1,-6.724047661E-2,-4.675685883E0,1.904984236E0,5.049309328E0
2.636633356E1,-1.383611321E0,-4.965829849E0,9.850057364E-1,5.248245677E0
2.638574274E1,-1.535569310E0,-4.427906990E0,7.046791315E-1,4.739293840E0
2.640509089E1,-6.283066273E-1,-3.697856903E0,5.841065645E-1,3.796063141E0
2.642450007E1,1.687414646E-1,-2.888509750E0,7.962034941E-1,3.000983549E0
2.644384821E1,2.654027939E-2,-2.867739677E0,3.647880554E-1,2.890969659E0
2.646319636E1,-4.099552631E-1,-3.105072975E0,-1.094388962E-1,3.133930180E0
2.648257502E1,1.329715252E-1,-2.869031906E0,-1.250742435E0,3.132631824E0
2.650195368E1,1.691338897E0,-3.440914154E0,-3.380259037E0,5.111425304E0
2.652133234E1,2.934983253E0,-3.062672615E0,-3.906437874E0,5.766658227E0
2.654068049E1,4.047903538E0,9.719285965E-1,4.640090466E-1,4.188731627E0
2.656005915E1,3.171240330E0,5.283730507E0,8.203964233E0,1.026058490E1
2.657943781E1,1.047546268E0,2.613941193E0,-7.738072395E0,8.234549541E0
2.659878596E1,3.328081369E0,4.236698151E-1,-1.193335533E1,1.239599093E1
2.661816462E1,5.799180984E0,3.170538902E0,9.546525478E-1,6.677887279E0
2.663754328E1,2.053629398E0,8.643876076E0,9.185818672E0,1.277940734E1
2.665692194E1,-5.045460701E0,8.976420403E0,1.856852770E-1,1.029889683E1
2.667630061E1,-4.447629929E0,2.708799362E0,-1.429966927E0,5.400352894E0
2.669567927E1,-3.621647358E0,-1.487452507E0,2.755599499E0,4.787710637E0
2.671502741E1,-3.633971214E0,2.529911995E0,3.170001030E0,5.445650376E0
2.673440607E1,-2.281471968E0,8.352428436E0,6.166316271E-1,8.680346173E0
2.675378474E1,-8.324422836E-1,5.168651581E0,5.429162979E-1,5.263333300E0
2.677313288E1,-5.148001909E-1,5.967483521E-1,1.066027284E0,1.325723200E0
2.679251154E1,-1.128226519E0,-1.521866798E0,9.031022787E-1,2.098706115E0
2.681189020E1,-1.622616887E0,-3.049984932E0,1.116589427E0,3.630711445E0
2.683123835E1,-2.041219950E0,-4.147221565E0,1.463658094E0,4.848537987E0
2.685061701E1,-2.322933197E0,-4.206524849E0,1.116897106E0,4.933389209E0
2.686999567E1,-2.234094143E0,-4.486466408E0,3.160500526E-1,5.021896564E0
2.688937434E1,-1.798219323E0,-4.747646332E0,1.974229217E-1,5.080621442E0
2.690872248E1,-8.594805002E-1,-4.157207489E0,3.544213772E-1,4.259893819E0
2.692810114E1,5.911469460E-3,-3.402625084E0,-2.468907833E-2,3.402719788E0
2.694747980E1,3.394384384E-1,-2.691246033E0,-2.874741256E-1,2.727758243E0
2.696685847E1,5.253111720E-1,-1.838524818E0,-5.525970459E-1,1.990348922E0
2.698623713E1,7.632851005E-1,-1.496936798E0,-6.255559921E-1,1.792970781E0
2.700561579E1,7.686269283E-1,-8.186750412E-1,-1.311572075E0,1.726626041E0
2.702496394E1,6.005519032E-1,-1.439800262E-1,-2.055990696E0,2.146739523E0
2.704434260E1,4.596563578E-1,5.988016129E-1,-2.964289427E0,3.058898355E0
2.706372126E1,1.314792991E0,1.026288033E0,-3.955803156E0,4.293055595E0
2.708306940E1,2.313869715E0,1.250073433E0,-3.441378117E0,4.331253858E0
2.710244807E1,1.390211344E0,1.870281219E0,-3.104872227E0,3.882121967E0
2.712182673E1,-1.333854675E0,3.146953583E0,-1.793132424E0,3.859768003E0
2.714117487E1,-2.492681503E0,2.817160606E0,-4.941307306E-1,3.793945194E0
2.716055354E1,-1.415774107E0,1.176980972E0,3.484513521E0,3.941006852E0
2.717993220E1,9.342346191E-1,-2.112157822E0,4.198180676E0,4.791526476E0
2.719928034E1,6.223009825E-1,-5.233945847E-1,1.525602579E0,1.728775183E0
2.721865900E1,-1.003410816E0,5.154901505E0,-1.581776857E0,5.484693320E0
2.723806818E1,-1.172279358E0,1.030562687E1,2.503671169E0,1.066998376E1
2.725744685E1,2.331029415E0,9.749650955E0,4.843165398E0,1.113308775E1
2.727679499E1,2.592650414E0,4.869662285E0,1.983166218E0,5.862456412E0
2.729617365E1,2.124812603E0,1.396440506E0,1.678510308E0,3.046682054E0
2.731555232E1,1.709126353E0,-1.313965797E0,8.692234755E-1,2.324471651E0
2.733490046E1,8.436657190E-1,-3.246447563E0,1.421332955E0,3.642990666E0
2.735427912E1,-4.069167376E-1,-5.072317123E0,1.390088320E0,5.275066613E0
2.737365778E1,-2.150597572E0,-5.582745552E0,2.200034857E-1,5.986695194E0
2.739300593E1,-2.544667244E0,-5.521256447E0,3.758413792E-1,6.091047601E0
2.741238459E1,-1.934388876E0,-4.702626228E0,6.785384417E-1,5.130006646E0
2.743176325E1,-7.280519009E-1,-3.520986557E0,8.803027868E-1,3.701667044E0
2.745111140E1,2.188744545E-1,-3.315125465E0,6.735032797E-1,3.389921761E0
2.747049006E1,3.997932673E-1,-3.230679512E0,1.716914177E-1,3.259847038E0
2.748986872E1,1.285403013E0,-3.565969467E0,-1.388862610E0,4.036996222E0
2.750921687E1,2.932907104E0,-4.354586601E0,-3.232483864E0,6.165494342E0
2.752862605E1,4.239203930E0,-1.970701218E0,-2.898535252E0,5.500547232E0
2.754800471E1,4.605184555E0,3.302959442E0,2.086070538E0,6.038953233E0
2.756735285E1,1.175632000E0,6.195520401E0,5.555994034E0,8.404501969E0
2.758673151E1,7.397354841E-1,1.814946175E0,-9.566387177E0,9.765090978E0
2.760614069E1,3.666511297E0,-8.395004272E-1,-1.006010914E1,1.074029152E1
2.762548884E1,6.231394768E0,2.073600769E0,-1.070923805E-1,6.568224241E0
2.764483698E1,3.119286060E0,8.050372124E0,1.151126671E1,1.438915210E1
2.766421565E1,-6.333217621E0,1.123877811E1,3.098765612E0,1.326733309E1
2.768359431E1,-5.924782276E0,4.672316551E0,-2.571026802E0,7.971434362E0
2.770294245E1,-3.673268318E0,-2.851832390E0,5.820171833E-1,4.686639747E0
2.772232111E1,-1.961519122E0,-2.690752029E0,3.233086348E0,4.641179923E0
2.774169978E1,-1.872835040E0,4.778335571E0,2.474634171E0,5.697702712E0
2.776104792E1,-9.556345940E-1,5.976192474E0,5.232526064E-1,6.074694005E0
2.778042658E1,-1.078753471E0,2.246527672E0,5.380166769E-1,2.549521049E0
2.779980524E1,-1.372770309E0,-7.120981216E-1,7.191560268E-1,1.705510905E0
2.781918391E1,-1.706917405E0,-2.734822273E0,9.050742388E-1,3.348429374E0
2.783856257E1,-2.039266586E0,-3.676055908E0,1.261026144E0,4.388870263E0
2.785794123E1,-1.997416019E0,-4.117103577E0,1.255234957E0,4.745084553E0
2.787728938E1,-1.777353048E0,-4.285300255E0,7.727742791E-1,4.703186390E0
2.789666804E1,-1.483164907E0,-4.174961090E0,-3.934830427E-2,4.430759137E0
2.791604670E1,-6.400377750E-1,-3.814303398E0,-3.551080227E-1,3.883897588E0
2.793542536E1,8.547079563E-2,-3.415833473E0,-5.387933254E-1,3.459121539E0
2.795477351E1,4.237948656E-1,-2.639604568E0,-5.378222466E-1,2.726970322E0
2.797415217E1,7.935036421E-1,-2.041621208E0,-7.404443622E-1,2.312168472E0
2.799353083E1,9.693387151E-1,-1.232571602E0,-6.529228091E-1,1.698575430E0
2.801287898E1,1.220764399E0,-7.376966476E-1,-7.466427684E-1,1.609949529E0
2.803225764E1,7.767898440E-1,-4.454298019E-1,-6.653638482E-1,1.115580217E0
2.805163630E1,-3.186863065E-1,-4.224777222E-3,-1.665110707E0,1.695338455E0
2.807097396E1,7.651495934E-2,6.774072647E-1,-3.625966072E0,3.689493881E0
2.809038314E1,1.903172135E0,1.895008087E-1,-3.220457077E0,3.745573190E0
2.810976181E1,1.259970546E0,7.316417694E-1,-2.226276875E0,2.660664236E0
2.812910995E1,-8.363457918E-1,2.727807045E0,-1.667132854E0,3.304502612E0
2.814848861E1,-1.735257864E0,3.838000298E0,-1.112363935E0,4.356457237E0
2.816786728E1,-1.702358127E-1,2.324591637E0,8.784858584E-1,2.490872119E0
2.818721542E1,1.455018997E0,9.151239395E-1,1.008148193E0,1.992710437E0
2.820659408E1,1.052550554E0,2.211651802E0,2.462087870E0,3.472915640E0
2.822597274E1,-1.072884798E0,5.076494217E0,2.618595123E0,5.811963157E0
2.824532089E1,-1.134125590E0,7.617828369E0,2.174823761E0,8.002962471E0
2.826469955E1,1.148066044E0,6.711215019E0,3.028832197E0,7.451998870E0
2.828407821E1,5.893209577E-1,3.762180328E0,1.563521385E0,4.116539704E0
2.830345688E1,6.417620182E-1,8.721380234E-1,8.827137947E-1,1.397020710E0
2.832280502E1,1.528144956E0,-1.133724213E0,9.281986952E-1,2.117099528E0
2.834218368E1,8.231782913E-1,-2.733223915E0,1.446548939E0,3.200099889E0
2.836156234E1,-7.059721947E-1,-4.676312447E0,9.605251551E-1,4.825857790E0
2.838094101E1,-1.756589055E0,-5.750351906E0,3.543980122E-1,6.023101369E0
2.840031967E1,-2.487618685E0,-5.931316376E0,1.219743490E-1,6.433011613E0
2.841969833E1,-1.932189465E0,-4.831797600E0,6.951215267E-1,5.250030296E0
2.843904647E1,-9.325028658E-1,-3.794428825E0,8.435708284E-1,3.997357058E0
2.845842514E1,-3.769928217E-1,-2.974605560E0,8.424071074E-1,3.114490578E0
2.847780380E1,-1.394269466E-1,-2.534257889E0,7.168331146E-1,2.637376089E0
2.849715194E1,1.491062641E-1,-2.386000633E0,-1.007740498E-1,2.392778115E0
2.851653061E1,1.269624114E0,-2.733927727E0,-1.727278590E0,3.474161415E0
2.853590927E1,3.127074480E0,-2.885382652E0,-2.692702293E0,5.035342441E0
2.855525741E1,4.238309860E0,-3.510732651E-1,-2.067596912E0,4.728792647E0
2.857463607E1,3.887996435E0,4.348291397E0,4.739028931E0,7.515487314E0
2.859401474E1,1.810981154E0,5.072018623E0,1.341408014E0,5.550171269E0
2.861336288E1,2.320436954E0,2.727333069E0,-1.033940983E1,1.094194539E1
2.863274154E1,4.358943939E0,4.598444939E0,-5.153651714E0,8.167387227E0
2.865212021E1,4.206093311E0,9.529456139E0,4.564681053E0,1.137268958E1
2.867152938E1,-1.925211191E0,6.797371864E0,2.140945435E0,7.382028837E0
2.869087753E1,-2.468533039E0,4.582614899E-1,2.964290380E-1,2.528147372E0
2.871025619E1,-2.318218231E0,-2.231142044E0,1.645036578E0,3.613623657E0
2.872963485E1,-3.508852959E0,-9.982786179E-1,2.977753162E0,4.709100039E0
2.874898300E1,-3.596000433E0,4.365602493E0,1.338106990E0,5.812076613E0
2.876836166E1,-2.000204086E0,6.353589058E0,-5.937331915E-1,6.687408273E0
2.878777084E1,-4.244723320E-1,2.532169342E0,2.516127825E-1,2.579799862E0
2.880708847E1,5.743622780E-2,-9.900960922E-1,1.308455467E-1,1.000354812E0
2.882646713E1,-4.497425556E-1,-2.185843468E0,7.459532022E-1,2.353003657E0
2.884584579E1,-1.056579947E0,-2.942907333E0,1.121676922E0,3.321930745E0
2.886519394E1,-1.648684978E0,-3.582880974E0,1.159192085E0,4.110830150E0
2.888457260E1,-1.630038977E0,-4.265459061E0,6.126235723E-1,4.607219954E0
2.890395126E1,-1.751262665E0,-4.480285645E0,-1.516104341E-1,4.812781535E0
2.892329940E1,-1.904113650E0,-4.425817490E0,-4.599063993E-1,4.839940407E0
2.894267807E1,-1.686866045E0,-3.918972015E0,-7.202770114E-1,4.326968648E0
2.896208725E1,-7.201368809E-1,-3.019589424E0,-1.076950669E0,3.285778471E0
2.898146591E1,7.698273659E-2,-2.007459641E0,-6.005115509E-1,2.096767673E0
2.900081405E1,4.002822638E-1,-6.831789017E-1,7.668624818E-2,7.955124657E-1
2.902019272E1,3.470892906E-1,-2.062978745E-1,1.491409242E-1,4.304332747E-1
2.903957138E1,-3.019391298E-1,-1.019678116E-1,-6.516859531E-1,7.254372848E-1
2.905891952E1,-7.977992296E-1,-2.044591904E-1,-1.527198911E0,1.735114891E0
2.907829818E1,-8.818876743E-1,-2.004146576E-1,-2.466145515E0,2.626740491E0
2.909767685E1,5.439935923E-1,2.223577499E-1,-4.044774055E0,4.087244690E0
2.911702499E1,2.200006247E0,3.123817444E-1,-5.430077553E0,5.867141729E0
2.913640365E1,6.996828318E-1,1.313899994E0,-3.099589348E0,3.438508890E0
2.915578231E1,-1.730054140E0,3.896471024E0,-3.172730803E-1,4.275071458E0
2.917513046E1,-1.057909369E0,5.378367424E0,1.153015375E0,5.601379548E0
2.919450912E1,1.029757380E0,4.782811165E0,3.058445454E0,5.769728893E0
2.921388778E1,8.475170135E-1,2.669804573E0,3.778766155E0,4.703744806E0
2.923326644E1,-5.451409817E-1,2.274215698E0,1.946979523E0,3.043019059E0
2.925264511E1,-8.765423298E-2,2.935764313E0,1.099499464E0,3.136127299E0
2.927202377E1,1.157864571E0,3.571217537E0,2.643487453E0,4.591543420E0
2.929137191E1,7.272623777E-1,4.094667435E0,1.312709451E0,4.361011129E0
2.931075058E1,7.486522198E-2,2.095336914E0,1.966979384E0,2.874899908E0
2.933012924E1,3.214175701E-1,-4.996566772E-1,1.949061990E0,2.037598756E0
2.934950790E1,2.964856625E-1,-2.634649277E0,1.550274730E0,3.071259074E0
2.936885604E1,9.640574455E-3,-3.991412163E0,-3.836629391E-1,4.009820600E0
2.938823471E1,-2.950286865E-1,-4.540817261E0,-2.679029703E-1,4.558271089E0
2.940761337E1,-9.434980154E-1,-4.498724937E0,2.882241011E-1,4.605625658E0
2.942696151E1,-1.043844700E0,-3.997328758E0,1.464796305E0,4.383363683E0
2.944634018E1,-8.541017771E-1,-3.461813927E0,1.252069592E0,3.779063875E0
2.946571884E1,-6.522789001E-1,-3.054749489E0,6.402916908E-1,3.188563258E0
2.948506698E1,-1.868197918E-1,-3.012144089E0,2.182052135E-1,3.025810166E0
2.950444564E1,2.955883741E-1,-3.136120796E0,-2.492501736E-1,3.159865786E0
2.952385482E1,1.280991316E0,-3.181962967E0,-1.402215481E0,3.705676096E0
2.954320297E1,2.696228981E0,-3.342164040E0,-2.727810383E0,5.087303870E0
2.956258163E1,3.849645138E0,-1.959360123E0,-2.706004143E0,5.097187283E0
2.958196029E1,3.563847542E0,2.940021515E0,3.992788315E0,6.106315938E0
2.960130844E1,1.428308368E0,5.693166733E0,6.123209476E0,8.482093287E0
2.962068710E1,9.931981564E-1,2.246196747E0,-8.759523392E0,9.097312375E0
2.964006576E1,3.519974232E0,1.106401443E0,-1.024778652E1,1.089180753E1
2.965944442E1,5.495833397E0,3.883971214E0,-1.152088642E0,6.827644203E0
2.967879257E1,2.729702473E0,8.904393196E0,9.336694717E0,1.318762155E1
2.969817123E1,-3.366430759E0,9.645219803E0,2.077328920E0,1.042489408E1
2.971754989E1,-2.555814743E0,2.541594505E0,-1.449270248E0,3.884877847E0
2.973689804E1,-2.045476437E0,-3.228546143E0,2.417724371E0,4.522485509E0
2.975627670E1,-2.602798223E0,-1.599475861E0,3.694936037E0,4.794312666E0
2.977565536E1,-2.310402393E0,4.243098259E0,9.964864254E-1,4.933034284E0
2.979500351E1,-1.427571416E0,5.300349236E0,-8.281283379E-1,5.551347468E0
2.981441268E1,-1.269556284E-1,8.128595352E-1,9.663331509E-2,8.283696959E-1
2.983379135E1,-2.372084856E-1,-1.818736076E0,7.472935915E-1,1.980534396E0
2.985313949E1,-1.049660087E0,-2.945604324E0,1.117460251E0,3.320706031E0
2.987251815E1,-1.727032423E0,-3.618056297E0,1.215221167E0,4.189240366E0
2.989189682E1,-2.142691135E0,-3.669190407E0,1.262588143E0,4.432630411E0
2.991124496E1,-2.032873392E0,-3.347679138E0,4.781607389E-1,3.945651725E0
2.993062362E1,-1.998576164E0,-3.964205742E0,-2.611840963E-1,4.447184613E0
2.995000229E1,-1.434715033E0,-4.240871429E0,-3.165053129E-1,4.488159235E0
2.996935043E1,-4.634023905E-1,-3.973319054E0,-1.793419123E-1,4.004268922E0
2.998872909E1,1.893688440E-1,-3.125412941E0,-6.969609261E-1,3.207775108E0
