"Time (s)","Linear Acceleration x (m/s^2)","Linear Acceleration y (m/s^2)","Linear Acceleration z (m/s^2)","Absolute acceleration (m/s^2)"
2.153970300E-2,0.000000000E0,0.000000000E0,0.000000000E0,0.000000000E0
2.653991100E-2,-1.800632477E-2,3.852546215E-2,-5.307340622E-2,6.800900980E-2
3.154048400E-2,-2.558040619E-2,7.053422928E-2,-1.017227173E-1,1.263999442E-1
3.654163000E-2,-1.186943054E-2,1.179058552E-1,-9.913444519E-2,1.545002016E-1
4.154350500E-2,-5.811119080E-2,9.131771326E-2,-1.079916954E-2,1.087770992E-1
4.654621300E-2,-1.780309677E-1,2.214843035E-2,1.017581224E-1,2.062529852E-1
5.154980700E-2,-2.894296646E-1,-6.753313541E-2,2.482717037E-1,3.872584331E-1
5.655433800E-2,-3.632898331E-1,-8.217090368E-2,3.988873959E-1,5.457496814E-1
6.155980700E-2,-3.878993988E-1,-6.439781189E-2,5.549550056E-1,6.801382801E-1
6.656616100E-2,-4.237260818E-1,-3.867697716E-2,6.786185503E-1,8.009761781E-1
7.157334900E-2,-4.042692184E-1,-7.942974567E-2,7.822054029E-1,8.840746449E-1
7.658126500E-2,-3.637094498E-1,-1.862630248E-1,8.591054678E-1,9.513362618E-1
8.158975500E-2,-2.714366913E-1,-2.980813384E-1,8.766914606E-1,9.649447025E-1
8.659866100E-2,-1.916999817E-1,-4.378019571E-1,8.705956340E-1,9.931546680E-1
9.160782800E-2,-9.111785889E-2,-5.511167049E-1,8.741590977E-1,1.037393953E0
9.661709900E-2,7.759094238E-3,-6.358965635E-1,8.469986916E-1,1.059165439E0
1.016261090E-1,1.195030212E-1,-6.854741573E-1,8.501596451E-1,1.098602391E0
1.066314740E-1,1.853666306E-1,-6.888917685E-1,8.732352853E-1,1.127595903E0
1.116368380E-1,1.899280548E-1,-6.807624102E-1,9.019858837E-1,1.145900807E0
1.166422030E-1,1.542911530E-1,-6.393767595E-1,9.361975193E-1,1.144147803E0
1.216475670E-1,5.713558197E-2,-6.077202559E-1,9.750773311E-1,1.150375672E0
1.266529320E-1,-1.451091766E-1,-5.626026392E-1,9.993147850E-1,1.155944827E0
1.316582970E-1,-4.076366425E-1,-4.996759892E-1,1.008377552E0,1.196941525E0
1.366636610E-1,-6.876659393E-1,-3.635970354E-1,1.019748569E0,1.282565550E0
1.416690260E-1,-8.705177307E-1,-1.604928970E-1,1.027090311E0,1.355903240E0
1.466743900E-1,-1.034094810E0,8.527815342E-2,1.011108994E0,1.448780811E0
1.516797550E-1,-1.068802834E0,3.547638655E-1,9.397765994E-1,1.466757292E0
1.566851200E-1,-1.062336922E0,5.831851959E-1,8.377934694E-1,1.473282935E0
1.616904840E-1,-1.015957832E0,7.771310806E-1,7.107809782E-1,1.463322464E0
1.666958490E-1,-9.029731750E-1,9.242655039E-1,5.643342733E-1,1.410000159E0
1.717012130E-1,-7.344598770E-1,1.063318491E0,4.081836939E-1,1.355245901E0
1.767065780E-1,-5.488433838E-1,1.185222149E0,2.659749985E-1,1.332937846E0
1.817119420E-1,-3.926506042E-1,1.267289519E0,1.141673326E-1,1.331627351E0
1.867173070E-1,-2.321443558E-1,1.338486195E0,-3.278779984E-2,1.358863987E0
1.917226720E-1,-7.641315460E-2,1.366493464E0,-1.653681397E-1,1.378582597E0
1.967280360E-1,6.564235687E-2,1.394239187E0,-2.885105610E-1,1.425289505E0
2.017334010E-1,1.899986267E-1,1.407716870E0,-3.696316481E-1,1.467785345E0
2.067387650E-1,3.299283981E-1,1.407062769E0,-4.332191348E-1,1.508760154E0
2.117441300E-1,4.152460098E-1,1.402061820E0,-4.753367901E-1,1.537579806E0
2.167494950E-1,4.660644531E-1,1.378825426E0,-4.924197197E-1,1.536506691E0
2.217548590E-1,5.019521713E-1,1.361288190E0,-4.995592833E-1,1.534477434E0
2.267602240E-1,5.185804367E-1,1.335401893E0,-4.882635474E-1,1.513481145E0
2.317655880E-1,5.350885391E-1,1.320067644E0,-4.639248252E-1,1.498040244E0
2.367709530E-1,5.420980453E-1,1.305773973E0,-4.225023389E-1,1.475609768E0
2.417763170E-1,5.210819244E-1,1.283112526E0,-3.971071839E-1,1.440693667E0
2.467816820E-1,4.351348877E-1,1.224072337E0,-3.639363647E-1,1.349127546E0
2.517870470E-1,2.621345520E-1,1.162389994E0,-3.089819551E-1,1.230989386E0
2.567924110E-1,1.444005966E-1,1.088806748E0,-2.607043982E-1,1.128857144E0
2.617977760E-1,6.196308136E-2,1.013161898E0,-1.718975306E-1,1.029507268E0
2.668031400E-1,-9.391784668E-3,9.399886131E-1,-7.576394081E-2,9.430837572E-1
2.718085050E-1,-9.338951111E-2,8.593686819E-1,3.753679991E-2,8.652428235E-1
2.768138700E-1,-2.039117813E-1,7.429376245E-1,1.400486827E-1,7.830389275E-1
2.818192340E-1,-3.264293671E-1,6.432594657E-1,2.648891807E-1,7.684433290E-1
2.868246510E-1,-4.044399261E-1,6.118109822E-1,3.549195528E-1,8.147712690E-1
2.918300670E-1,-5.093326569E-1,5.250368714E-1,4.342882037E-1,8.506995448E-1
2.968354840E-1,-6.360177994E-1,4.448963404E-1,4.936257601E-1,9.198466099E-1
3.018409010E-1,-7.277059555E-1,3.807669878E-1,5.288237333E-1,9.768285405E-1
3.068463170E-1,-7.897882462E-1,3.132950664E-1,5.730553865E-1,1.024847183E0
3.118517340E-1,-8.698816299E-1,2.753418982E-1,6.026023626E-1,1.093451791E0
3.168571510E-1,-8.547410965E-1,2.614631355E-1,6.411200762E-1,1.099991030E0
3.218625670E-1,-9.578676224E-1,2.197504640E-1,6.693847775E-1,1.189065443E0
3.268679840E-1,-9.418802261E-1,2.306322455E-1,6.778380871E-1,1.183128930E0
3.318734010E-1,-9.123935699E-1,2.315211296E-1,6.805222034E-1,1.161539724E0
3.368788170E-1,-9.261989594E-1,1.797877848E-1,6.490485072E-1,1.145177770E0
3.418842340E-1,-8.930444717E-1,1.046974659E-1,5.744014978E-1,1.066970978E0
3.468896510E-1,-7.522592545E-1,1.201422513E-1,4.905189872E-1,9.060557506E-1
3.518950670E-1,-5.194816589E-1,2.250485420E-1,3.977897763E-1,6.919138287E-1
3.569004840E-1,-3.469018936E-1,3.382559419E-1,3.105964661E-1,5.755242573E-1
3.619059010E-1,-1.438684464E-1,4.502615333E-1,2.103393078E-1,5.173743351E-1
3.669113170E-1,-4.284763336E-2,5.377460718E-1,1.540918350E-1,5.610267828E-1
3.719167340E-1,8.510303497E-2,7.000205517E-1,6.105750799E-2,7.078130534E-1
3.769221510E-1,4.134368896E-2,7.608783245E-1,1.701325178E-2,7.621906429E-1
3.819275670E-1,2.657413483E-2,7.451856136E-1,1.197957993E-2,7.457555187E-1
3.869329840E-1,-1.630592346E-2,6.730386615E-1,-6.821811199E-3,6.732707183E-1
3.919384010E-1,-9.166145325E-2,6.022281647E-1,-1.577758789E-2,6.093681290E-1
3.969438170E-1,-1.471242905E-1,5.564406514E-1,3.680622578E-2,5.767377685E-1
4.019492340E-1,-1.735324860E-1,4.693312347E-1,7.904744148E-2,5.065903962E-1
4.069546510E-1,-1.996307373E-1,4.123679101E-1,1.204907298E-1,4.737274961E-1
4.119600670E-1,-1.308460236E-1,3.803390563E-1,1.615037322E-1,4.334304271E-1
4.169654840E-1,-1.564025879E-2,3.629554212E-1,1.927510500E-1,4.112593133E-1
4.219709010E-1,4.613590240E-2,3.171684742E-1,2.050527930E-1,3.804878585E-1
4.269763170E-1,5.989646912E-2,2.621546388E-1,2.177256942E-1,3.460016178E-1
4.319817340E-1,3.098869324E-2,2.171772122E-1,2.262920737E-1,3.151735129E-1
4.369871510E-1,-2.189636230E-3,2.015126944E-1,2.452573180E-1,3.174323747E-1
4.419925670E-1,-1.695632935E-3,2.009122074E-1,2.559303045E-1,3.253750313E-1
4.469979840E-1,1.316165924E-2,1.868728101E-1,2.963634133E-1,3.506079708E-1
4.520034010E-1,8.007907867E-2,1.829835474E-1,2.904796004E-1,3.525252271E-1
4.570088170E-1,8.953952789E-2,1.651003361E-1,2.619714141E-1,3.223421627E-1
4.620142340E-1,8.947658539E-2,1.332243383E-1,2.436723709E-1,2.917721851E-1
4.670196510E-1,7.048702240E-2,9.671142697E-2,1.878134012E-1,2.227002338E-1
4.720250670E-1,8.481884003E-2,3.171801567E-2,1.180701852E-1,1.487979730E-1
4.770304840E-1,4.209995270E-2,-1.421910524E-2,3.438365459E-2,5.618562694E-2
4.820359010E-1,-1.443481445E-2,-5.548113585E-2,-4.890382290E-2,7.535319633E-2
4.870413170E-1,-6.567764282E-2,-6.824824214E-2,-1.079729795E-1,1.436298703E-1
4.920467340E-1,-1.117153168E-1,-4.804003239E-2,-1.480296850E-1,1.915749054E-1
4.970521510E-1,-1.336469650E-1,2.865880728E-2,-1.644961834E-1,2.138734038E-1
5.020575670E-1,-1.933450699E-1,6.670865417E-2,-1.530836821E-1,2.554740188E-1
5.070629840E-1,-2.667531967E-1,1.234576404E-1,-1.284527183E-1,3.207789858E-1
5.120684010E-1,-3.489961624E-1,1.373097301E-1,-9.068059921E-2,3.858435621E-1
5.170738170E-1,-4.163112640E-1,1.845444739E-1,-3.999125957E-2,4.571334950E-1
5.220792340E-1,-4.072246552E-1,2.127290666E-1,2.350312471E-2,4.600412725E-1
5.270846510E-1,-3.225202560E-1,2.409094274E-1,8.990967274E-2,4.124808081E-1
5.320900670E-1,-2.055940628E-1,2.499212921E-1,1.402965188E-1,3.527218225E-1
5.370954840E-1,-1.373443604E-1,2.587475181E-1,2.034416795E-1,3.566542701E-1
5.421009010E-1,-7.929611206E-2,2.625928223E-1,2.465915680E-1,3.688499222E-1
5.471063170E-1,-3.127765656E-2,2.615655363E-1,2.990011573E-1,3.984928025E-1
5.521117340E-1,-1.684284210E-2,2.937658131E-1,3.611442447E-1,4.658403157E-1
5.571171510E-1,-4.987716675E-2,3.066666424E-1,4.000803828E-1,5.065535254E-1
5.621225670E-1,-2.105884552E-1,3.434594274E-1,4.303079844E-1,5.894716593E-1
5.671279840E-1,-4.314479828E-1,4.089689851E-1,5.036550760E-1,7.791478860E-1
5.721334010E-1,-6.171007156E-1,4.651902914E-1,5.479590893E-1,9.473512886E-1
5.771388170E-1,-7.537212372E-1,4.980472326E-1,6.339573264E-1,1.103652410E0
5.821442340E-1,-7.658920288E-1,4.934809804E-1,6.847460270E-1,1.139732951E0
5.871496510E-1,-7.022171021E-1,4.755083919E-1,7.143753767E-1,1.108850426E0
5.921550670E-1,-5.585727692E-1,4.681348801E-1,6.994472742E-1,1.010138750E0
5.971604840E-1,-4.162721634E-1,4.475898743E-1,6.503347158E-1,8.924989928E-1
6.021659010E-1,-2.419595718E-1,4.329301119E-1,5.777145624E-1,7.613980771E-1
6.071713170E-1,-8.803462982E-2,4.049605131E-1,5.348009467E-1,6.765760606E-1
6.121767340E-1,7.423305511E-2,4.063068330E-1,4.697142243E-1,6.254816077E-1
6.171821510E-1,2.400522232E-1,3.888894618E-1,4.065708220E-1,6.116861259E-1
6.221875670E-1,3.571405411E-1,3.667634726E-1,3.881164491E-1,6.424166786E-1
6.271929840E-1,4.970912933E-1,3.251486421E-1,3.283672333E-1,6.787093879E-1
6.321984010E-1,5.077142715E-1,2.352019250E-1,3.081993461E-1,6.388118377E-1
6.372038170E-1,4.755191803E-1,1.396012902E-1,2.938488722E-1,5.761546413E-1
6.422092340E-1,3.723154068E-1,9.572535753E-3,2.563905716E-1,4.521576282E-1
6.472146510E-1,2.603750229E-1,-8.334884048E-2,2.096755505E-1,3.445373974E-1
6.522200670E-1,1.729621887E-1,-1.154842675E-1,1.911687851E-1,2.824854672E-1
6.572254840E-1,4.816055298E-2,-6.804081798E-2,1.911868453E-1,2.085698962E-1
6.622309010E-1,-7.570743561E-2,1.596149802E-2,2.048625946E-1,2.189864560E-1
6.672363170E-1,-2.033414841E-1,1.081980765E-1,2.181792855E-1,3.172645324E-1
6.722417340E-1,-3.061876297E-1,1.949408948E-1,2.691612840E-1,4.518856203E-1
6.772470990E-1,-4.129295349E-1,2.432659566E-1,3.100004196E-1,5.707796305E-1
6.822524630E-1,-4.855632782E-1,2.965038419E-1,3.642106652E-1,6.755261905E-1
6.872578280E-1,-5.291395187E-1,3.260709047E-1,3.982914388E-1,7.382052123E-1
6.922631920E-1,-5.961732864E-1,3.274643421E-1,4.451991618E-1,8.129315940E-1
6.972685570E-1,-6.437444687E-1,3.152119517E-1,4.951303899E-1,8.711599271E-1
7.022739220E-1,-5.723085403E-1,3.130072057E-1,4.293033183E-1,7.809045494E-1
7.072792860E-1,-5.015535355E-1,2.968310118E-1,3.533721864E-1,6.815691459E-1
7.122846510E-1,-4.504394531E-1,2.620782852E-1,3.342126906E-1,6.190951874E-1
7.172900150E-1,-3.522815704E-1,2.517311871E-1,3.147745728E-1,5.353073203E-1
7.222953800E-1,-2.454366684E-1,2.227869034E-1,2.715743184E-1,4.285157791E-1
7.273007450E-1,-1.632022858E-1,1.991480887E-1,2.619887590E-1,3.673323525E-1
7.323061090E-1,-7.684326172E-2,1.856157780E-1,2.291574478E-1,3.047478298E-1
7.373114740E-1,-1.014423370E-2,1.440689862E-1,1.969658136E-1,2.442423182E-1
7.423168380E-1,7.031917572E-2,8.424368501E-2,1.181704998E-1,1.612639202E-1
7.473222030E-1,1.407070160E-1,3.931680322E-2,5.524951220E-2,1.561946989E-1
7.523275670E-1,1.868801117E-1,-9.832054377E-3,-2.486634254E-2,1.887834220E-1
7.573329320E-1,1.995429993E-1,-9.650117159E-2,-8.399772644E-2,2.370348133E-1
7.623382970E-1,2.312059402E-1,-1.680930555E-1,-1.413631439E-1,3.188965358E-1
7.673436610E-1,2.247476578E-1,-2.529728413E-1,-2.348647118E-1,4.119080006E-1
7.723490260E-1,2.422122955E-1,-2.655015886E-1,-3.025729060E-1,4.697959697E-1
7.773543900E-1,2.976398468E-1,-2.632513344E-1,-3.305639625E-1,5.168783965E-1
7.823597550E-1,3.811950684E-1,-2.274886370E-1,-3.383703232E-1,5.581713319E-1
7.873651200E-1,3.881378174E-1,-2.061191201E-1,-3.977929354E-1,5.927691594E-1
7.923704840E-1,3.475933075E-1,-1.941611171E-1,-4.420804977E-1,5.949410166E-1
7.973758490E-1,3.311891556E-1,-1.772987843E-1,-4.808010459E-1,6.101563418E-1
8.023812130E-1,3.244647980E-1,-1.651154757E-1,-5.378963947E-1,6.495175570E-1
8.073865780E-1,2.893495560E-1,-1.528779268E-1,-5.989654660E-1,6.825353145E-1
8.123919420E-1,2.593135834E-1,-1.597529650E-1,-6.069791317E-1,6.791083939E-1
8.173973070E-1,2.295455933E-1,-1.571502090E-1,-6.243048310E-1,6.834792532E-1
8.224026720E-1,1.857719421E-1,-1.690608859E-1,-6.320598722E-1,6.801415144E-1
8.274080360E-1,1.423254013E-1,-1.479946971E-1,-6.448113322E-1,6.767130887E-1
8.324134010E-1,1.086711884E-1,-1.609129906E-1,-6.294246912E-1,6.586940561E-1
8.374187650E-1,7.996463776E-2,-1.363712549E-1,-6.052188873E-1,6.255248708E-1
8.424241300E-1,5.142688751E-2,-1.174656153E-1,-5.721191764E-1,5.863132674E-1
8.474294950E-1,3.254508972E-2,-1.136478186E-1,-5.207520127E-1,5.340015621E-1
8.524348590E-1,-1.473712921E-2,-1.151362062E-1,-4.844642282E-1,4.981757896E-1
8.574402760E-1,-5.217838287E-2,-8.367919922E-2,-4.488462806E-1,4.595517116E-1
8.624456920E-1,-9.880161285E-2,-8.592587709E-2,-4.181423187E-1,4.381643684E-1
8.674511090E-1,-1.212587357E-1,-3.590744734E-2,-3.731256723E-1,3.939743559E-1
8.724565260E-1,-1.102590561E-1,8.762240410E-3,-3.423596025E-1,3.597831760E-1
8.774619420E-1,-1.467943192E-1,-3.950655460E-3,-3.209300041E-1,3.529309385E-1
8.824673590E-1,-1.924715042E-1,7.241189480E-3,-3.324924111E-1,3.842511135E-1
8.874727760E-1,-2.377080917E-1,2.809756994E-2,-3.103463650E-1,3.919304486E-1
8.924781920E-1,-2.730073929E-1,5.855262280E-2,-2.737261057E-1,3.910082188E-1
8.974836090E-1,-3.032360077E-1,8.419042826E-2,-2.088143229E-1,3.776817788E-1
9.024890260E-1,-3.569955826E-1,1.142235994E-1,-1.922895908E-1,4.212697039E-1
9.074944420E-1,-3.676290512E-1,9.648275375E-2,-1.812126637E-1,4.210677743E-1
9.124998590E-1,-3.640089035E-1,8.835929632E-2,-1.662474871E-1,4.098146825E-1
9.175052760E-1,-3.699626923E-1,8.498048782E-2,-1.660724878E-1,4.143357916E-1
9.225106920E-1,-3.379249573E-1,1.052852273E-1,-1.425668001E-1,3.815803301E-1
9.275161090E-1,-3.014507294E-1,1.016311049E-1,-1.244090796E-1,3.415831419E-1
9.325215260E-1,-2.083559036E-1,1.075751781E-1,-1.212326288E-1,2.639733923E-1
9.375269420E-1,-1.018371582E-1,1.278752089E-1,-1.043645144E-1,1.939454245E-1
9.425323590E-1,-1.520156860E-2,1.672713757E-1,-1.068142653E-1,1.990479542E-1
9.475377760E-1,1.419591904E-1,2.442594767E-1,-1.137822866E-1,3.045677469E-1
9.525431920E-1,1.981468201E-1,2.776238024E-1,-1.200456619E-1,3.615910659E-1
9.575486090E-1,2.064771652E-1,2.866825461E-1,-1.157195568E-1,3.717670209E-1
9.625540260E-1,2.053737640E-1,2.339551449E-1,-1.149907112E-1,3.318678298E-1
9.675594420E-1,2.756443024E-1,1.865295172E-1,-9.888184071E-2,3.472040619E-1
9.725648590E-1,3.217353821E-1,1.634998322E-1,-7.226514816E-2,3.680599175E-1
9.775702760E-1,2.726373672E-1,1.929867566E-1,-2.077269554E-2,3.346737622E-1
9.825756920E-1,1.718215942E-1,2.361524105E-1,1.710653305E-2,2.925461583E-1
9.875811090E-1,3.867053986E-2,1.975276172E-1,6.029784679E-2,2.101152078E-1
9.925865260E-1,-2.213859558E-2,1.491143703E-1,1.271527410E-1,1.972131649E-1
9.975919420E-1,-2.074241638E-2,1.199056506E-1,1.884480715E-1,2.243218414E-1
1.002597359E0,-4.791164398E-2,1.054598689E-1,2.579662204E-1,2.827788543E-1
1.007602776E0,-2.274131775E-2,9.609240294E-2,3.162260056E-1,3.312850797E-1
1.012608192E0,-1.210594177E-2,9.180921316E-2,3.446525335E-1,3.568765253E-1
1.017613609E0,3.166770935E-2,8.790582418E-2,3.535223007E-1,3.656614484E-1
1.022619026E0,3.232097626E-2,1.267901063E-1,3.573813438E-1,3.805808738E-1
1.027624442E0,6.620693207E-2,1.413332820E-1,3.470706940E-1,3.805476594E-1
1.032629859E0,6.654357910E-2,1.218359470E-1,3.084658980E-1,3.382650679E-1
1.037635276E0,7.632827759E-2,1.255338788E-1,2.891539931E-1,3.243374669E-1
1.042640692E0,4.800796509E-2,1.046870947E-1,2.463436127E-1,2.719362573E-1
1.047646109E0,2.464675903E-2,1.212440729E-1,2.040418983E-1,2.386224721E-1
1.052651526E0,1.095008850E-2,1.038031578E-1,2.001383901E-1,2.257218979E-1
1.057656942E0,2.580356598E-2,1.285675168E-1,1.771340966E-1,2.203903777E-1
1.062662359E0,2.478599548E-3,1.288998723E-1,1.587336063E-1,2.044937122E-1
1.067667776E0,-3.020191193E-2,1.715951264E-1,1.354445219E-1,2.206858885E-1
1.072673192E0,-8.166408539E-2,2.135698795E-1,1.404937506E-1,2.683646963E-1
1.077678609E0,-1.185007095E-1,2.501944304E-1,1.404488087E-1,3.104279933E-1
1.082684026E0,-1.978464127E-1,3.052688241E-1,1.398445368E-1,3.897290757E-1
1.087689442E0,-2.338504791E-1,3.409016430E-1,1.339867115E-1,4.345715311E-1
1.092694859E0,-2.506408691E-1,3.904449046E-1,1.655058861E-1,4.926055898E-1
1.097700276E0,-3.338556290E-1,3.921280205E-1,2.102870345E-1,5.562774509E-1
1.102705692E0,-3.737125397E-1,3.701866865E-1,2.350334525E-1,5.761423166E-1
1.107711109E0,-4.180421829E-1,3.345211744E-1,2.637025714E-1,5.968272187E-1
1.112716526E0,-4.098167419E-1,2.900570035E-1,2.678161860E-1,5.690415949E-1
1.117721942E0,-4.016923904E-1,2.654146552E-1,2.904134989E-1,5.622648096E-1
1.122727359E0,-3.936376572E-1,2.320498526E-1,3.220384121E-1,5.590227885E-1
1.127732776E0,-3.618965149E-1,2.184951007E-1,3.152731657E-1,5.273579103E-1
1.132738192E0,-3.208999634E-1,2.006990910E-1,3.038245440E-1,4.853516922E-1
1.137743609E0,-2.897005081E-1,1.929484606E-1,2.973756790E-1,4.578075877E-1
1.142749026E0,-2.777204514E-1,1.856431067E-1,2.673528194E-1,4.278662668E-1
1.147754442E0,-2.563180923E-1,1.503251791E-1,2.565946579E-1,3.926034162E-1
1.152759859E0,-2.398290634E-1,1.629797220E-1,2.174664140E-1,3.624527702E-1
1.157765276E0,-2.377328873E-1,1.614638269E-1,1.927475333E-1,3.460333867E-1
1.162770692E0,-2.119369507E-1,1.507371366E-1,1.679258347E-1,3.095771977E-1
1.167776109E0,-1.579179764E-1,1.400624812E-1,1.524053812E-1,2.603516586E-1
1.172781526E0,-9.966659546E-2,1.247839630E-1,1.364651918E-1,2.100647906E-1
1.177786942E0,-3.721618652E-2,8.574712276E-2,1.154597998E-1,1.485549695E-1
1.182792359E0,3.890609741E-2,4.683017731E-2,8.953595161E-2,1.082748196E-1
1.187797776E0,1.190929413E-1,3.636783361E-2,5.883634090E-2,1.377224128E-1
1.192803192E0,1.463527679E-1,-1.274126768E-2,3.798913956E-2,1.517387469E-1
1.197808609E0,1.638727188E-1,-2.899742126E-2,1.276588440E-2,1.669074181E-1
1.202814026E0,1.764669418E-1,-3.163132071E-2,-7.443428040E-3,1.794339060E-1
1.207819442E0,1.699638367E-1,-2.986216545E-2,-3.584742546E-3,1.726044758E-1
1.212824859E0,1.207780838E-1,-5.676728487E-2,-1.394617558E-2,1.341803487E-1
1.217830276E0,1.100006104E-1,-7.391434908E-2,-5.172133446E-3,1.326281126E-1
1.222835692E0,7.085704803E-2,-8.613321185E-2,2.752530575E-2,1.148794755E-1
1.227841109E0,3.681659698E-2,-1.124525666E-1,4.590642452E-2,1.269190347E-1
1.232846526E0,-6.433486938E-3,-1.576089859E-1,7.843482494E-2,1.761647069E-1
1.237851942E0,-4.458236694E-2,-1.642084122E-1,1.247910261E-1,2.110089815E-1
1.242857359E0,-9.668540955E-2,-1.513235569E-1,1.798651814E-1,2.541620955E-1
1.247862776E0,-1.436347961E-1,-1.521387398E-1,2.387288809E-1,3.174407494E-1
1.252868140E0,-1.759824753E-1,-1.475398242E-1,2.585622072E-1,3.458211190E-1
1.257873505E0,-1.986036301E-1,-1.423085332E-1,2.633783817E-1,3.592537995E-1
1.262878870E0,-2.020597458E-1,-1.459536254E-1,2.677494287E-1,3.658146501E-1
1.267884234E0,-1.817626953E-1,-1.110159755E-1,2.526851892E-1,3.304724332E-1
1.272889599E0,-1.379013062E-1,-9.030559659E-2,2.327944040E-1,2.852456933E-1
1.277894963E0,-5.642223358E-2,-6.007295847E-2,1.559382081E-1,1.763773045E-1
1.282900328E0,6.714820862E-2,-4.429477453E-2,7.522463799E-2,1.101347136E-1
1.287905692E0,1.707296371E-1,-3.823101521E-2,-4.724013805E-2,1.812232054E-1
1.292911057E0,2.450218201E-1,-4.190564156E-2,-1.538254023E-1,2.923252119E-1
1.297916422E0,3.378000259E-1,-5.036327243E-2,-2.632989883E-1,4.312443321E-1
1.302921786E0,3.824748993E-1,-3.981536627E-2,-3.467998505E-1,5.178247274E-1
1.307927151E0,3.889780045E-1,-5.320110917E-2,-4.042472839E-1,5.635158494E-1
1.312932515E0,3.528652191E-1,-5.701428652E-2,-4.217684269E-1,5.528590215E-1
1.317937880E0,2.982177734E-1,-5.616533756E-2,-3.998026848E-1,5.019268595E-1
1.322943245E0,2.013692856E-1,-6.963166595E-2,-3.298814297E-1,3.927084360E-1
1.327948609E0,1.195840836E-1,-6.408619881E-2,-2.556966543E-1,2.894618679E-1
1.332953974E0,3.366947174E-2,-5.868738890E-2,-1.921248436E-1,2.036904477E-1
1.337959338E0,-3.739452362E-2,-3.928795457E-2,-1.394268274E-1,1.496052605E-1
1.342964703E0,-8.425617218E-2,-2.985900640E-2,-9.760665894E-2,1.323545340E-1
1.347970067E0,-1.545801163E-1,-6.624579430E-3,-4.738020897E-2,1.618140340E-1
1.352975432E0,-1.911697388E-1,6.464630365E-3,-2.186059952E-2,1.925241447E-1
1.357980797E0,-1.515569687E-1,5.222374201E-2,-2.073967457E-2,1.616383868E-1
1.362986161E0,-1.408338547E-1,8.294531703E-2,-1.027822495E-3,1.634477184E-1
1.367991526E0,-1.254882812E-1,9.876734018E-2,-1.486957073E-2,1.603851625E-1
1.372996890E0,-1.197490692E-1,1.142087877E-1,-3.784465790E-2,1.697518922E-1
1.378002255E0,-1.045036316E-1,1.293972433E-1,-4.589569569E-2,1.725429525E-1
1.383007620E0,-9.879779816E-2,1.301265657E-1,-6.743383408E-2,1.767519448E-1
1.388012984E0,-1.215419769E-1,1.451203227E-1,-7.386088371E-2,2.031939723E-1
1.393018349E0,-1.630172729E-1,1.553154886E-1,-7.494902611E-2,2.373075827E-1
1.398023713E0,-2.040872574E-1,1.513484418E-1,-8.513522148E-2,2.679663513E-1
1.403029078E0,-2.447834015E-1,1.666076779E-1,-6.659710407E-2,3.034999279E-1
1.408034442E0,-2.329130173E-1,1.915046573E-1,-6.261634827E-2,3.079664177E-1
1.413039807E0,-2.259140015E-1,2.022038698E-1,-4.947340488E-2,3.071988913E-1
1.418045172E0,-1.905212402E-1,2.179297209E-1,-5.588901043E-2,2.948139883E-1
1.423050536E0,-1.554679871E-1,2.292185128E-1,-7.226157188E-2,2.862396834E-1
1.428055953E0,-1.587162018E-1,2.504327893E-1,-6.986069679E-2,3.046111154E-1
1.433061370E0,-1.999282837E-1,2.577666640E-1,-7.719147205E-2,3.352215612E-1
1.438066786E0,-2.597637177E-1,2.420677543E-1,-7.977151871E-2,3.639196091E-1
1.443072203E0,-3.047962189E-1,2.370347679E-1,-6.800115108E-2,3.920591445E-1
1.448077620E0,-3.161602020E-1,1.810528636E-1,-4.685020447E-2,3.673313959E-1
1.453083036E0,-2.751741409E-1,1.505154073E-1,-4.513430595E-2,3.168797899E-1
1.458088453E0,-1.870584488E-1,1.071292162E-1,-1.545679569E-2,2.161167387E-1
1.463093870E0,-4.271984100E-2,6.984624267E-2,-3.882539272E-2,9.061398099E-2
1.468099286E0,9.089565277E-2,2.410334349E-2,-7.670450211E-2,1.213530861E-1
1.473104703E0,2.424173355E-1,-1.119598746E-2,-1.428176165E-1,2.815819353E-1
1.478110120E0,3.500089645E-1,-3.159379959E-2,-1.890461445E-1,3.990524880E-1
1.483115536E0,4.568328857E-1,-7.547527552E-2,-2.387425900E-1,5.209518471E-1
1.488120953E0,5.201959610E-1,-1.188710332E-1,-2.821249962E-1,6.035964495E-1
1.493126370E0,5.357236862E-1,-1.144549251E-1,-3.048475981E-1,6.269225278E-1
1.498131786E0,4.895887375E-1,-1.055737138E-1,-3.068771362E-1,5.873810668E-1
1.503137203E0,4.012889862E-1,-1.112661362E-1,-2.837328911E-1,5.039021304E-1
1.508142620E0,2.758769989E-1,-7.445997000E-2,-2.359794378E-1,3.705923646E-1
1.513148036E0,1.136302948E-1,-5.260562897E-2,-1.782608032E-1,2.178442335E-1
1.518153453E0,-4.245567322E-2,-5.027246475E-2,-1.015636921E-1,1.210164801E-1
1.523158870E0,-1.497802734E-1,-5.303353071E-2,-1.614904404E-2,1.597106049E-1
1.528164286E0,-2.088232040E-1,-7.503598928E-2,5.361878872E-2,2.282816347E-1
1.533169703E0,-2.343063354E-1,-1.064035892E-1,1.310082674E-1,2.887634824E-1
1.538175120E0,-2.645225525E-1,-9.958022833E-2,1.968169212E-1,3.444202421E-1
1.543180536E0,-2.899675369E-1,-9.298628569E-2,2.367330790E-1,3.857073664E-1
1.548185953E0,-2.821607590E-1,-7.706618309E-2,2.511687279E-1,3.855380919E-1
1.553191370E0,-2.461175919E-1,-3.760254383E-2,2.688777447E-1,3.664465335E-1
1.558196786E0,-1.963090897E-1,-7.974267006E-3,2.423948050E-1,3.120193729E-1
1.563202203E0,-1.660461426E-1,5.005133152E-2,2.435574532E-1,2.989927930E-1
1.568207620E0,-1.076498032E-1,9.841167927E-2,2.057986259E-1,2.522427664E-1
1.573213036E0,-4.030609131E-2,1.704058647E-1,1.534914970E-1,2.328569934E-1
1.578218453E0,-1.631355286E-2,2.420159578E-1,9.634351730E-2,2.609979486E-1
1.583223870E0,2.724647522E-3,2.892972827E-1,3.484380245E-2,2.914008100E-1
1.588229286E0,-3.535556793E-2,3.314260542E-1,-1.177012920E-2,3.335142899E-1
1.593234703E0,-1.110687256E-1,3.493160009E-1,-7.192134857E-2,3.735379642E-1
1.598240120E0,-2.288398743E-1,3.333901465E-1,-1.120432615E-1,4.196074002E-1
1.603245536E0,-3.598594666E-1,3.170706034E-1,-1.230036020E-1,4.951388586E-1
1.608250953E0,-4.850683212E-1,3.002479672E-1,-9.104073048E-2,5.776924205E-1
1.613256370E0,-5.570917130E-1,2.735708654E-1,-5.978989601E-2,6.235118497E-1
1.618261786E0,-5.289363861E-1,2.707565129E-1,3.450751305E-3,5.942177189E-1
1.623267203E0,-4.869728088E-1,2.916683853E-1,6.467485428E-2,5.713105988E-1
1.628272620E0,-3.885583878E-1,3.029379249E-1,1.097435951E-1,5.047699116E-1
1.633278036E0,-2.911224365E-1,3.094491363E-1,1.436853409E-1,4.485047582E-1
1.638283453E0,-1.993236542E-1,2.874686420E-1,1.909177303E-1,3.985194086E-1
1.643288870E0,-1.083030701E-1,2.656809092E-1,2.043349743E-1,3.522338459E-1
1.648294286E0,-8.507728577E-3,2.346228659E-1,2.083129883E-1,3.138703104E-1
1.653299703E0,6.678485870E-2,1.848249435E-1,2.079741955E-1,2.861358822E-1
1.658305120E0,1.130504608E-1,1.067914963E-1,1.941072941E-1,2.487216757E-1
1.663310536E0,1.685552597E-1,-4.349052906E-3,1.815711260E-1,2.477859230E-1
1.668315953E0,2.094411850E-1,-1.250847578E-1,1.466187239E-1,2.846205488E-1
1.673321370E0,2.120466232E-1,-1.841820478E-1,1.366394758E-1,3.123413894E-1
1.678326786E0,1.291494370E-1,-2.534500957E-1,9.405887127E-2,2.996057398E-1
1.683332203E0,8.014202118E-2,-3.042448759E-1,8.060038090E-2,3.247831730E-1
1.688337620E0,8.366870880E-2,-2.982004881E-1,6.194841862E-2,3.158505826E-1
1.693343036E0,7.753181458E-2,-2.644300461E-1,4.274678230E-2,2.788578831E-1
1.698348453E0,1.428985596E-2,-2.414556146E-1,3.710091114E-2,2.447069500E-1
1.703353870E0,-2.290153503E-1,-2.439023256E-1,5.010616779E-2,3.383001673E-1
1.708359286E0,-5.274419785E-1,-2.958121300E-1,1.102089882E-1,6.146916934E-1
1.713364703E0,-8.331298828E-1,-3.825795054E-1,2.163290977E-1,9.419505073E-1
1.718370120E0,-1.117621422E0,-4.752319455E-1,3.481576443E-1,1.263383073E0
1.723375536E0,-1.343206882E0,-5.496886373E-1,5.091254115E-1,1.538041291E0
1.728380953E0,-1.401225567E0,-6.106717587E-1,6.554560065E-1,1.663122263E0
1.733386370E0,-1.316895008E0,-6.630291939E-1,7.530685067E-1,1.655576138E0
1.738391786E0,-1.143599510E0,-7.300484180E-1,7.877645493E-1,1.568873327E0
1.743397203E0,-8.914928436E-1,-7.445473075E-1,7.647939920E-1,1.390690488E0
1.748402620E0,-6.133184433E-1,-6.782147884E-1,6.805632114E-1,1.139868895E0
1.753408036E0,-4.183797836E-1,-5.933486819E-1,5.742412210E-1,9.256658585E-1
1.758413453E0,-2.535772324E-1,-5.374935865E-1,4.140414596E-1,7.243142264E-1
1.763418870E0,-2.609128952E-1,-4.717970490E-1,2.209323049E-1,5.826483311E-1
1.768424286E0,-1.063938141E-1,-3.104904890E-1,3.960806131E-2,3.305945946E-1
1.773429703E0,1.279382706E-1,-2.254056334E-1,-1.246194243E-1,2.875863376E-1
1.778435120E0,3.986759186E-1,-1.063242555E-1,-2.528868914E-1,4.839412311E-1
1.783440536E0,7.197256088E-1,6.059134007E-2,-3.835676908E-1,8.178021986E-1
1.788445953E0,8.959589005E-1,1.322255135E-1,-4.641552567E-1,1.017676786E0
1.793451370E0,9.428157806E-1,1.852847636E-1,-5.898259878E-1,1.127442564E0
1.798456786E0,9.706039429E-1,2.055691779E-1,-6.882167459E-1,1.207465523E0
1.803462203E0,9.035081863E-1,2.076384127E-1,-7.638881803E-1,1.201235158E0
1.808467620E0,7.945461273E-1,1.821928918E-1,-7.928711772E-1,1.137164237E0
1.813473036E0,7.485113144E-1,1.533103287E-1,-7.613492608E-1,1.078622242E0
1.818478453E0,7.173395157E-1,1.634157002E-1,-6.654205918E-1,9.920006229E-1
1.823483870E0,5.916271210E-1,1.691652834E-1,-5.775509477E-1,8.439221768E-1
1.828489286E0,3.721208572E-1,8.972331882E-2,-4.696232975E-1,6.058632254E-1
1.833494651E0,1.070604324E-1,-1.715713739E-2,-3.043667674E-1,3.231028206E-1
1.838500015E0,-1.272048950E-1,-1.132316887E-1,-1.535555720E-1,2.293072488E-1
1.843505380E0,-3.214550018E-1,-2.033793926E-1,-2.686849236E-2,3.813376606E-1
1.848510745E0,-4.095745087E-1,-2.545913756E-1,1.087232530E-1,4.943569484E-1
1.853516109E0,-4.684572220E-1,-3.101175427E-1,1.908094585E-1,5.933239491E-1
1.858521474E0,-4.461355209E-1,-3.413780332E-1,2.905151844E-1,6.324357176E-1
1.863526838E0,-4.002857208E-1,-3.819043934E-1,3.550033867E-1,6.573484834E-1
1.868532203E0,-3.453493118E-1,-4.173771441E-1,3.843736947E-1,6.642386354E-1
1.873537567E0,-3.288736343E-1,-4.667838514E-1,4.027632475E-1,6.987583737E-1
1.878542932E0,-2.270708084E-1,-5.300093889E-1,3.675299883E-1,6.837758380E-1
1.883548297E0,-9.763813019E-2,-5.741040707E-1,3.078219295E-1,6.586979799E-1
1.888553661E0,6.961822510E-3,-6.469640732E-1,2.716315389E-1,7.017083952E-1
1.893559026E0,1.011800766E-1,-6.869180799E-1,2.116785944E-1,7.258799375E-1
1.898564390E0,1.091299057E-1,-7.132914066E-1,1.520185024E-1,7.374303982E-1
1.903569755E0,6.477642059E-2,-7.260011435E-1,9.726036340E-2,7.353456488E-1
1.908575120E0,6.537437439E-3,-7.536505461E-1,1.087538302E-1,7.614849173E-1
1.913580484E0,-6.546783447E-2,-7.770631313E-1,1.239160821E-1,7.896001158E-1
1.918585849E0,-1.796112061E-1,-7.581766248E-1,1.089731157E-1,7.867446343E-1
1.923591213E0,-3.165369034E-1,-7.305759192E-1,9.252416342E-2,8.015594212E-1
1.928596578E0,-4.712953568E-1,-7.228631973E-1,1.315582693E-1,8.729021100E-1
1.933601942E0,-6.152467728E-1,-6.971197724E-1,1.586252153E-1,9.432213565E-1
1.938607307E0,-8.766479492E-1,-6.483881474E-1,1.922711432E-1,1.107197818E0
1.943612672E0,-1.149991035E0,-5.571581125E-1,2.699352503E-1,1.306051141E0
1.948618036E0,-1.371755123E0,-4.395564795E-1,3.309792280E-1,1.477995016E0
1.953623401E0,-1.444606304E0,-3.109871447E-1,4.115997255E-1,1.533953947E0
1.958628765E0,-1.464375973E0,-1.711762547E-1,4.590578973E-1,1.544160760E0
1.963634130E0,-1.440680027E0,-5.628138781E-3,5.068176389E-1,1.527237616E0
1.968639495E0,-1.316240311E0,1.616530716E-1,5.547772646E-1,1.437497160E0
1.973644859E0,-1.139009476E0,3.066237867E-1,5.935375094E-1,1.320472456E0
1.978650224E0,-9.663705826E-1,4.050009549E-1,6.184504032E-1,1.216708173E0
1.983655588E0,-7.743663788E-1,4.851051867E-1,6.344391108E-1,1.112422274E0
1.988660953E0,-5.486431122E-1,5.370203257E-1,6.415825486E-1,1.000513999E0
1.993666317E0,-3.369932175E-1,5.939518809E-1,6.690237522E-1,9.560000243E-1
1.998671682E0,-1.584186554E-1,6.462262869E-1,6.548766494E-1,9.335782293E-1
2.003677099E0,3.119506836E-1,8.652572632E-1,6.621452570E-1,1.133322417E0
2.008682515E0,3.139085770E-1,9.633545876E-1,5.768935084E-1,1.165931720E0
2.013687932E0,3.502464294E-1,8.364593983E-1,6.476041675E-1,1.114328517E0
2.018693349E0,6.405448914E-1,9.674675465E-1,7.267537117E-1,1.369109991E0
2.023698765E0,8.066539764E-1,9.443629980E-1,7.059268951E-1,1.428581426E0
2.028704182E0,9.012060165E-1,9.634349346E-1,7.159614563E-1,1.500992993E0
2.033709599E0,1.014903069E0,1.019440889E0,7.483412027E-1,1.621512418E0
2.038715015E0,1.061557770E0,1.030981302E0,7.270776033E-1,1.648778089E0
2.043720432E0,9.744272232E-1,9.648531079E-1,6.901798248E-1,1.535186674E0
2.048725849E0,7.538995743E-1,8.696339130E-1,6.226942539E-1,1.308577795E0
2.053731265E0,5.580339432E-1,7.650936842E-1,5.764213800E-1,1.108617082E0
2.058736682E0,3.917636871E-1,6.994668245E-1,5.834029913E-1,9.915097959E-1
2.063742099E0,2.505245209E-1,6.250627041E-1,5.655241013E-1,8.793653556E-1
2.068747515E0,9.156703949E-2,5.465968251E-1,5.452864170E-1,7.774894781E-1
2.073752932E0,-1.181898117E-1,4.545489252E-1,5.453308821E-1,7.197008600E-1
2.078758349E0,-2.684669495E-1,4.011318088E-1,5.407305956E-1,7.248246739E-1
2.083763765E0,-4.737892151E-1,3.286048770E-1,5.308399200E-1,7.837400119E-1
2.088769182E0,-7.050132751E-1,2.558488548E-1,5.768945217E-1,9.462080341E-1
2.093774599E0,-9.378509521E-1,1.829504967E-1,5.874624252E-1,1.121671696E0
2.098780015E0,-1.162418842E0,1.147274375E-1,6.148495674E-1,1.320007553E0
2.103785432E0,-1.368805408E0,6.585705280E-2,6.204969883E-1,1.504321079E0
2.108790849E0,-1.518601894E0,6.507161260E-2,6.286242008E-1,1.644856959E0
2.113796265E0,-1.640357494E0,1.076299846E-1,6.299629211E-1,1.760457385E0
2.118801682E0,-1.772297859E0,2.028645575E-1,6.110663414E-1,1.885628756E0
2.123807099E0,-1.904891968E0,3.123776913E-1,5.205359459E-1,1.999287599E0
2.128812515E0,-1.976291656E0,4.313616455E-1,4.603838921E-1,2.074549327E0
2.133817932E0,-2.106463909E0,5.357390642E-1,3.079617023E-1,2.195232779E0
2.138823349E0,-2.286339283E0,6.016604304E-1,7.020473480E-2,2.365221194E0
2.143828765E0,-2.511945724E0,6.769438982E-1,-2.360484600E-1,2.612248694E0
2.148834182E0,-2.731698990E0,7.472978234E-1,-5.271582603E-1,2.880716793E0
2.153839599E0,-2.989508152E0,8.271661997E-1,-8.303127289E-1,3.211040663E0
2.158845015E0,-3.276493073E0,9.308096170E-1,-1.087176323E0,3.575439239E0
2.163850432E0,-3.550108910E0,1.038986325E0,-1.268841743E0,3.910591416E0
2.168855849E0,-3.863217831E0,1.118071556E0,-1.456852436E0,4.277494013E0
2.173861265E0,-4.163314819E0,1.163411140E0,-1.613341808E0,4.614064104E0
2.178866682E0,-4.450452805E0,1.260851145E0,-1.824919462E0,4.972585527E0
2.183872099E0,-4.710463524E0,1.400298953E0,-2.063074112E0,5.329688411E0
2.188877515E0,-4.924582005E0,1.523802280E0,-2.275172710E0,5.634704267E0
2.193882932E0,-5.093311310E0,1.568980694E0,-2.518328428E0,5.894531244E0
2.198888349E0,-5.226877689E0,1.564833879E0,-2.772749901E0,6.120220377E0
2.203893765E0,-5.292754173E0,1.397555113E0,-2.989529371E0,6.237282493E0
2.208899182E0,-5.381935120E0,1.144867659E0,-3.183286190E0,6.356827712E0
2.213904599E0,-5.393456459E0,9.082667828E-1,-3.345749378E0,6.411580150E0
2.218910015E0,-5.345677376E0,7.078083754E-1,-3.512130260E0,6.435240343E0
2.223915432E0,-5.185361862E0,5.679254532E-1,-3.674322367E0,6.380529901E0
2.228920849E0,-4.840231895E0,4.268082380E-1,-3.628376245E0,6.064249686E0
2.233926265E0,-4.247066498E0,2.749851346E-1,-3.405932426E0,5.451015167E0
2.238931682E0,-3.304341793E0,1.980659366E-1,-3.077079296E0,4.519548849E0
2.243937099E0,-2.144921303E0,1.423061192E-1,-2.654262066E0,3.415559331E0
2.248942515E0,-7.917218208E-1,1.112424135E-1,-2.144633770E0,2.288810242E0
2.253947932E0,7.176752090E-1,1.656053662E-1,-1.583271742E0,1.746205100E0
2.258953349E0,2.355260849E0,2.322029173E-1,-9.953794479E-1,2.567479719E0
2.263958765E0,4.101977825E0,2.954086959E-1,-4.049415588E-1,4.132489086E0
2.268964182E0,5.761441231E0,2.544742525E-1,1.173624992E-1,5.768252435E0
2.273969599E0,7.303899288E0,1.766149402E-1,4.786157608E-1,7.321694523E0
2.278975015E0,8.708593369E0,1.771188974E-1,7.253932953E-1,8.740547179E0
2.283980432E0,1.014513683E1,2.035148740E-1,7.950181961E-1,1.017827459E1
2.288985849E0,1.153256226E1,2.224993408E-1,6.603116989E-1,1.155359293E1
2.293991265E0,1.292681122E1,3.631432652E-1,4.727478027E-1,1.294054913E1
2.298996682E0,1.402513504E1,5.532579422E-1,3.976049423E-1,1.404167358E1
2.304002099E0,1.461954117E1,7.834281921E-1,6.767983437E-1,1.465615228E1
2.309007515E0,1.463071442E1,1.073022604E0,1.026255131E0,1.470586215E1
2.314012932E0,1.418653488E1,1.307756305E0,1.289995193E0,1.430496718E1
2.319018349E0,1.338195801E1,1.393610001E0,1.335545063E0,1.352045227E1
2.324023765E0,1.240234661E1,1.337412119E0,1.217354774E0,1.253350810E1
2.329029182E0,1.137948799E1,1.083509684E0,1.138588905E0,1.148752040E1
2.334034599E0,1.058663750E1,6.813761592E-1,1.136795521E0,1.066927697E1
2.339040015E0,1.026128578E1,1.939631999E-1,1.376059055E0,1.035495756E1
2.344045432E0,1.033955288E1,-3.079883456E-1,2.091743469E0,1.055351133E1
2.349050849E0,1.056868362E1,-8.646568060E-1,3.181381226E0,1.107094808E1
2.354056265E0,1.079348183E1,-1.395517468E0,4.048338890E0,1.161188041E1
2.359061682E0,1.113112736E1,-1.755924463E0,4.656499386E0,1.219295918E1
2.364067099E0,1.174494362E1,-1.901181698E0,5.119845867E0,1.295264506E1
2.369072515E0,1.265238190E1,-1.820937157E0,5.474373817E0,1.390565887E1
2.374077932E0,1.383060455E1,-1.606643915E0,6.037019253E0,1.517605115E1
2.379083349E0,1.518026733E1,-1.317115903E0,6.656969070E0,1.662800493E1
2.384088765E0,1.663212967E1,-9.447538853E-1,7.292784691E0,1.818529642E1
2.389094182E0,1.791836929E1,-5.443342924E-1,7.829129219E0,1.956168506E1
2.394099599E0,1.873167038E1,-1.996114254E-1,8.126721382E0,2.041957199E1
2.399105015E0,1.909181976E1,8.692443371E-2,8.090638161E0,2.073556277E1
2.404110432E0,1.908132172E1,3.703019619E-1,7.761527061E0,2.060279749E1
2.409115849E0,1.841460419E1,5.099087954E-1,6.999865532E0,1.970674432E1
2.414121265E0,1.720625114E1,4.580006301E-1,6.183611870E0,1.828939307E1
2.419126682E0,1.555985546E1,3.653362393E-1,5.393692017E0,1.647223379E1
2.424132099E0,1.350558090E1,-1.724210382E-2,4.492937088E0,1.423332345E1
2.429137463E0,1.144473934E1,-5.417892933E-1,3.696930885E0,1.203922307E1
2.434142828E0,9.552240372E0,-9.705966711E-1,3.033629179E0,1.006927306E1
2.439148192E0,7.801692963E0,-1.197162032E0,2.499910116E0,8.279442047E0
2.444153557E0,6.052280426E0,-1.474640131E0,1.940781355E0,6.524668125E0
2.449158922E0,4.584342003E0,-1.621296287E0,1.737026095E0,5.163531050E0
2.454164286E0,3.453467369E0,-1.625273466E0,1.627207756E0,4.149187365E0
2.459169651E0,2.318720818E0,-1.637489080E0,1.589340448E0,3.253281386E0
2.464175015E0,1.260638237E0,-1.626283765E0,1.658189178E0,2.642649995E0
2.469180380E0,2.690935135E-1,-1.520815253E0,1.809706569E0,2.379144430E0
2.474185745E0,-6.801738739E-1,-1.369272351E0,2.018796444E0,2.532406435E0
2.479191109E0,-1.568274498E0,-1.209855914E0,2.212104559E0,2.969283215E0
2.484196474E0,-2.433664799E0,-1.018354535E0,2.350008011E0,3.533030988E0
2.489201838E0,-3.243017197E0,-8.232274652E-1,2.460252523E0,4.153035814E0
2.494207203E0,-3.996494293E0,-6.435424089E-1,2.528118610E0,4.772577624E0
2.499212567E0,-4.703827381E0,-4.554619193E-1,2.516167879E0,5.353927380E0
2.504217932E0,-5.369897366E0,-2.637260854E-1,2.459153891E0,5.912088212E0
2.509223297E0,-5.999566078E0,-7.827404141E-2,2.325349092E0,6.434917898E0
2.514228661E0,-6.635879040E0,1.053642333E-1,2.135665655E0,6.971876365E0
2.519234026E0,-7.240550995E0,2.391290963E-1,1.906307578E0,7.491112736E0
2.524239390E0,-7.827903748E0,3.661383092E-1,1.681809664E0,8.014899755E0
2.529244755E0,-8.369153976E0,4.480538964E-1,1.410460353E0,8.498993410E0
2.534250120E0,-8.849908829E0,5.090063810E-1,1.117075443E0,8.934642204E0
2.539255484E0,-9.251019478E0,5.445303321E-1,8.168088198E-1,9.302959277E0
2.544260849E0,-9.644206047E0,5.691483021E-1,5.200668573E-1,9.674973365E0
2.549266213E0,-9.995913506E0,5.449079275E-1,2.085042000E-1,1.001292592E1
2.554271578E0,-1.026316643E1,5.248271227E-1,-8.819234371E-2,1.027695512E1
2.559276942E0,-1.051776600E1,5.042659640E-1,-3.645061255E-1,1.053615444E1
2.564282307E0,-1.071206665E1,4.642360806E-1,-5.760927200E-1,1.073758678E1
2.569287672E0,-1.084627819E1,4.379694760E-1,-8.798438311E-1,1.089071591E1
2.574293036E0,-1.090186787E1,4.109404683E-1,-1.163466811E0,1.097147438E1
2.579298401E0,-1.095118713E1,3.685234189E-1,-1.429880142E0,1.105028807E1
2.584303765E0,-1.098996544E1,3.151637912E-1,-1.605974913E0,1.111115763E1
2.589309130E0,-1.090875244E1,2.651041448E-1,-1.762539148E0,1.105340239E1
2.594314495E0,-1.093293571E1,2.275417745E-1,-1.903246045E0,1.109969387E1
2.599319911E0,-1.096246243E1,1.736912131E-1,-2.046319485E0,1.115316881E1
2.604325328E0,-1.100254154E1,1.180597097E-1,-2.162471533E0,1.121365871E1
2.609330745E0,-1.103440952E1,5.598747730E-2,-2.275297642E0,1.126669017E1
2.614336161E0,-1.107284546E1,-2.502262592E-3,-2.341305256E0,1.131766863E1
2.619341578E0,-1.115170002E1,-2.382797003E-2,-2.417501450E0,1.141075345E1
2.624346995E0,-1.120889473E1,-1.724998653E-2,-2.537618160E0,1.149256823E1
2.629352411E0,-1.127803230E1,8.174747229E-3,-2.668423653E0,1.158941604E1
2.634357828E0,-1.199514389E1,-1.762784868E-1,-2.427050114E0,1.223949032E1
2.639363245E0,-2.080080795E1,-4.307142258E0,3.005817413E0,2.145367158E1
2.644368661E0,-2.966012955E1,-1.047035694E1,1.050356865E1,3.316137231E1
2.649374078E0,-2.086109543E1,-6.625562668E0,4.226296425E0,2.229226244E1
2.654379495E0,-2.139966965E1,-4.386294842E0,-1.805923581E0,2.191909677E1
2.659384911E0,-2.151623154E1,-4.447733402E0,-4.813492775E0,2.249222676E1
2.664390328E0,-1.694837570E1,-3.238209724E0,-2.756562710E0,1.747375401E1
2.669395745E0,-1.490494537E1,-2.572094202E0,-2.029189348E0,1.526075603E1
2.674401161E0,-1.329925537E1,-2.197624683E0,-2.207637787E0,1.365918783E1
2.679406578E0,-1.172969723E1,-1.536771059E0,-2.146450281E0,1.202309075E1
2.684411995E0,-1.028388596E1,-6.673656106E-1,-1.947333097E0,1.048788794E1
2.689417411E0,-9.441437721E0,2.960890830E-1,-1.840264797E0,9.623668194E0
2.694422828E0,-9.149757385E0,1.122392416E0,-1.966276407E0,9.425713122E0
2.699428245E0,-9.121239662E0,1.616257429E0,-2.167570829E0,9.513551616E0
2.704433661E0,-9.235792160E0,1.932604432E0,-2.344620228E0,9.722759934E0
2.709439078E0,-9.397478104E0,2.216465235E0,-2.493378162E0,9.972073380E0
2.714444495E0,-9.367181778E0,2.449627161E0,-2.557132721E0,1.001417473E1
2.719449911E0,-9.240824699E0,2.522185802E0,-2.579795361E0,9.920161614E0
2.724455328E0,-9.200244904E0,2.491806269E0,-2.466323376E0,9.845626225E0
2.729460745E0,-9.250061989E0,2.435564756E0,-2.422903299E0,9.867425342E0
2.734466161E0,-9.280307770E0,2.387834072E0,-2.449002743E0,9.890575226E0
2.739471578E0,-9.300779343E0,2.301633120E0,-2.452821255E0,9.890315642E0
2.744476995E0,-9.297246933E0,2.197277784E0,-2.586644173E0,9.897351073E0
2.749482411E0,-9.317792892E0,2.094783783E0,-2.815407515E0,9.956701409E0
2.754487828E0,-9.343374252E0,1.947237492E0,-2.722066164E0,9.924717652E0
2.759493245E0,-9.278430939E0,1.836561441E0,-2.645938396E0,9.821569559E0
2.764498661E0,-9.161337852E0,1.705621243E0,-2.495964050E0,9.647232329E0
2.769504078E0,-8.968209267E0,1.640340328E0,-2.310830355E0,9.405287384E0
2.774509495E0,-8.808980942E0,1.592492580E0,-2.110449314E0,9.197182947E0
2.779514911E0,-8.659623146E0,1.537718296E0,-1.962323427E0,9.011346393E0
2.784520328E0,-8.491373062E0,1.509223342E0,-1.790386319E0,8.808328715E0
2.789525745E0,-8.394973755E0,1.525708437E0,-1.614704013E0,8.683929965E0
2.794531734E0,-8.379667282E0,1.524946570E0,-1.369647503E0,8.626715486E0
2.799537307E0,-8.316140175E0,1.511927366E0,-1.099200368E0,8.523634977E0
2.804542672E0,-8.175811768E0,1.506121635E0,-8.081684113E-1,8.352570659E0
2.809548036E0,-7.719922066E0,1.612451792E0,-4.821012616E-1,7.901241618E0
2.814553401E0,-7.446160316E0,1.667797327E0,-8.801281452E-2,7.631159652E0
2.819558765E0,-6.594072342E0,1.881871104E0,7.975296974E-1,6.903570274E0
2.824564130E0,-5.374469280E0,2.233267546E0,2.760131121E0,6.441329659E0
2.829569495E0,-2.597005844E0,2.980992317E0,4.918171406E0,6.310242826E0
2.834574859E0,-4.460334778E-3,3.342725754E0,4.480913639E0,5.590386606E0
2.839580224E0,1.241517067E0,2.658520699E0,2.879052639E0,4.110722690E0
2.844585588E0,4.786878586E0,2.044779301E0,2.572640896E0,5.806359459E0
2.849590953E0,1.652016449E1,1.848198771E-1,4.379321098E0,1.709176546E1
2.854596317E0,3.010189438E1,-7.497354746E-1,8.506007195E0,3.128958783E1
2.859601682E0,3.633628845E1,2.256712914E0,9.517473221E0,3.762978751E1
2.864607047E0,4.235599518E1,4.947405815E0,1.077583313E1,4.398438054E1
2.869612411E0,4.836683655E1,4.607855797E0,1.213183308E1,5.007758567E1
2.874617776E0,5.248888779E1,3.833884478E0,1.562801933E1,5.490006375E1
2.879623140E0,5.667517090E1,2.225543499E0,2.114800835E1,6.053318344E1
2.884628505E0,5.783388519E1,4.732371569E-1,2.422554398E1,6.270453900E1
2.889633870E0,5.282837677E1,-1.037191987E0,1.725880241E1,5.558578433E1
2.894639234E0,4.323637390E1,-2.558041334E0,3.933444023E0,4.349022402E1
2.899644599E0,3.277226257E1,-2.687955856E0,-3.439253330E0,3.306168121E1
2.904649963E0,2.364137459E1,-2.038628817E0,-7.513249397E0,2.489014898E1
2.909655328E0,1.646312714E1,-1.344199300E0,-9.235271454E0,1.892436698E1
2.914660692E0,1.060736561E1,-1.038781524E0,-9.795165062E0,1.447551487E1
2.919666057E0,5.802948952E0,-9.568336606E-1,-9.287006378E0,1.099264457E1
2.924671422E0,1.003902435E0,-1.672766566E0,-7.686978340E0,7.930674882E0
2.929676786E0,-4.034433842E0,-3.065584183E0,-4.267116547E0,6.624405364E0
2.934682151E0,-6.196084023E0,-3.470351219E0,1.576699495E0,7.274666734E0
2.939687515E0,-6.155384064E0,-2.673190594E0,-9.022458196E-1,6.771170389E0
2.944692880E0,-5.768013954E0,-2.411499977E0,-1.458704591E0,6.419745805E0
2.949698245E0,-5.525289536E0,-2.277216673E0,-6.183849573E-1,6.008072918E0
2.954703609E0,-5.494663239E0,-2.120293140E0,-1.954925060E-2,5.889596699E0
2.959708974E0,-5.609682083E0,-1.762038589E0,1.664350033E-1,5.882262632E0
2.964714338E0,-5.850010872E0,-1.358488441E0,6.252946854E-1,6.038138081E0
2.969719755E0,-5.803200722E0,-1.102610230E0,1.590260506E0,6.117337363E0
2.974725172E0,-5.810153961E0,-8.844137192E-1,2.424856424E0,6.357672951E0
2.979730588E0,-5.769693375E0,-6.652607322E-1,3.095446110E0,6.581315985E0
2.984736005E0,-5.838454723E0,-4.104865193E-1,3.431876898E0,6.784823637E0
2.989741422E0,-5.923415661E0,-9.001642466E-2,3.603632450E0,6.934055299E0
2.994712880E0,-5.988680363E0,2.398093939E-1,3.607528687E0,6.995431670E0
2.999687099E0,-6.094076157E0,5.322000980E-1,3.477629662E0,7.036683111E0
3.004665172E0,-6.041281223E0,8.883254528E-1,3.443423510E0,7.010232977E0
3.009648036E0,-5.929107189E0,1.289012074E0,3.350167751E0,6.931052456E0
3.014636422E0,-5.765498161E0,1.671630859E0,3.263118267E0,6.832514881E0
3.019630797E0,-5.668657303E0,1.987682223E0,3.040934563E0,6.732892339E0
3.024631370E0,-5.546421051E0,2.332019329E0,2.838573456E0,6.652713724E0
3.029638088E0,-5.474260330E0,2.650958776E0,2.600004673E0,6.614766277E0
3.034650640E0,-5.465476036E0,2.914974928E0,2.293061256E0,6.605046333E0
3.039668505E0,-5.423411369E0,3.152087688E0,1.967590809E0,6.574227047E0
3.044690953E0,-5.433366776E0,3.228138447E0,1.649713755E0,6.531761464E0
3.049717151E0,-5.293876648E0,3.392369270E0,1.441236973E0,6.450617276E0
3.054746109E0,-5.238972664E0,3.386548996E0,1.237568378E0,6.359805356E0
3.059776786E0,-5.100799084E0,3.378774643E0,1.026021242E0,6.203788276E0
3.064808088E0,-4.979754925E0,3.221491098E0,7.486274242E-1,5.977993562E0
3.069829078E0,-4.890461445E0,2.968514204E0,6.200856566E-1,5.754406654E0
3.074834442E0,-4.823963642E0,2.587905645E0,4.906049371E-1,5.496232715E0
3.079839807E0,-4.733438015E0,2.038470745E0,3.830013275E-1,5.167928834E0
3.084845172E0,-4.534191132E0,1.451193333E0,4.297749996E-1,4.780121113E0
3.089850536E0,-4.290030479E0,8.611319065E-1,5.331634283E-1,4.407966982E0
3.094855901E0,-3.969067097E0,3.646940291E-1,8.050950766E-1,4.066284967E0
3.099861265E0,-3.486563206E0,-5.290052295E-2,1.159443021E0,3.674674077E0
3.104866630E0,-2.882020473E0,-4.358182251E-1,1.533657312E0,3.293643011E0
3.109871995E0,-2.323751450E0,-8.429825902E-1,1.970097065E0,3.160968664E0
3.114877359E0,-1.725907803E0,-1.204289317E0,2.418672323E0,3.206095181E0
3.119882724E0,-1.131547451E0,-1.593333721E0,2.857542038E0,3.461886549E0
3.124888088E0,-6.358556747E-1,-2.021475315E0,3.254447222E0,3.883568154E0
3.129893453E0,-2.189073563E-1,-2.413776398E0,3.562619925E0,4.308885895E0
3.134898817E0,7.227993011E-2,-2.781085968E0,3.855347633E0,4.754300046E0
3.139904182E0,3.147945404E-1,-3.047741413E0,4.015931129E0,5.051289554E0
3.144909547E0,4.896488190E-1,-3.214044333E0,4.077545166E0,5.214998707E0
3.149914911E0,5.681238174E-1,-3.394297600E0,4.107657433E0,5.358812411E0
3.154920276E0,6.410131454E-1,-3.524830818E0,4.001896858E0,5.371266947E0
3.159925640E0,7.080926895E-1,-3.537243843E0,3.871298552E0,5.291544362E0
3.164931005E0,8.598909378E-1,-3.430449724E0,3.697813034E0,5.116758639E0
3.169936370E0,1.153267860E0,-3.223097801E0,3.544689417E0,4.927799636E0
3.174941734E0,1.539983749E0,-2.862855434E0,3.369209766E0,4.681780178E0
3.179947099E0,1.933513641E0,-2.412788391E0,3.081138849E0,4.365024562E0
3.184952463E0,2.338000298E0,-1.893092155E0,2.662956238E0,4.017633535E0
3.189957828E0,2.771840096E0,-1.305062294E0,2.202535629E0,3.773254339E0
3.194959911E0,3.162658691E0,-7.645400167E-1,1.758795500E0,3.698688017E0
3.199961995E0,3.381281853E0,-3.197963834E-1,1.327315331E0,3.646519256E0
3.204964495E0,3.409193993E0,3.456175327E-2,1.012594461E0,3.556563754E0
3.209967515E0,3.309677124E0,3.143352270E-1,6.739780903E-1,3.392199252E0
3.214971109E0,3.155563354E0,6.165580153E-1,3.524167538E-1,3.234489363E0
3.219975328E0,2.986132622E0,8.563343287E-1,4.078745842E-2,3.106760392E0
3.224980224E0,2.787902832E0,1.106119275E0,-2.679681778E-1,3.011263688E0
3.229985745E0,2.494642258E0,1.337363482E0,-5.662565231E-1,2.886594451E0
3.234991890E0,2.078263283E0,1.478619456E0,-8.555278778E-1,2.690245661E0
3.239998609E0,1.563076973E0,1.573174000E0,-1.107910156E0,2.479022180E0
3.245005797E0,1.016394615E0,1.568668604E0,-1.243050575E0,2.244761443E0
3.250013401E0,4.960794449E-1,1.489603281E0,-1.238869190E0,1.999952405E0
3.255021317E0,-1.640319824E-2,1.379441261E0,-1.112363696E0,1.772140020E0
3.260029390E0,-4.964361191E-1,1.228934765E0,-9.526705742E-1,1.632271638E0
3.265037515E0,-9.338598251E-1,1.095565557E0,-7.911862135E-1,1.642660552E0
3.270045224E0,-1.399928570E0,9.743306637E-1,-6.205120087E-1,1.814980825E0
3.275050588E0,-1.808162212E0,8.745133877E-1,-4.754855633E-1,2.064052028E0
3.280055953E0,-2.215710640E0,8.003288507E-1,-3.569200039E-1,2.382706822E0
3.285061317E0,-2.612685680E0,7.039332390E-1,-2.938425541E-1,2.721762649E0
3.290066682E0,-2.970209122E0,6.616472006E-1,-2.475492954E-1,3.053064018E0
3.295072047E0,-3.264321804E0,6.301308870E-1,-2.026994228E-1,3.330757996E0
3.300077411E0,-3.557310581E0,5.898814797E-1,-2.485218048E-1,3.614440734E0
3.305082776E0,-3.858749390E0,5.217558146E-1,-2.685012817E-1,3.903110160E0
3.310088140E0,-4.097048759E0,4.401680529E-1,-3.515458107E-1,4.135594384E0
3.315093505E0,-4.282104015E0,3.402722776E-1,-4.190070629E-1,4.315989683E0
3.320098870E0,-4.414196491E0,3.034813106E-1,-4.739234447E-1,4.449925280E0
3.325104234E0,-4.507971764E0,3.102303445E-1,-5.004632473E-1,4.546263933E0
3.330109599E0,-4.625670433E0,3.361382186E-1,-5.408704281E-1,4.669299378E0
3.335114963E0,-4.757711411E0,3.810288906E-1,-6.326189041E-1,4.814686652E0
3.340120328E0,-4.889739037E0,4.637356997E-1,-7.415459156E-1,4.967342246E0
3.345125692E0,-5.021875858E0,5.505652428E-1,-8.907337189E-1,5.129889451E0
3.350131057E0,-5.135194302E0,6.270114183E-1,-1.088847160E0,5.286676836E0
3.355136422E0,-5.225271225E0,7.167455554E-1,-1.320534706E0,5.437002435E0
3.360141786E0,-5.268892288E0,8.098539710E-1,-1.536570311E0,5.547804766E0
3.365147151E0,-5.305182457E0,8.534316421E-1,-1.816870451E0,5.672241594E0
3.370152515E0,-5.344445229E0,8.332453966E-1,-2.021591425E0,5.774445825E0
3.375157880E0,-5.406078815E0,7.258531451E-1,-2.160134077E0,5.866747837E0
3.380163245E0,-5.361191750E0,6.320922375E-1,-2.261119604E0,5.852741190E0
3.385168609E0,-5.214936733E0,5.664047003E-1,-2.357993841E0,5.751218512E0
3.390173974E0,-5.001071930E0,4.522478878E-1,-2.379103422E0,5.556562039E0
3.395176057E0,-4.667177677E0,3.134965897E-1,-2.358183384E0,5.238497538E0
3.400178140E0,-4.199000359E0,1.501663327E-1,-2.223912001E0,4.753939264E0
3.405180640E0,-3.611196756E0,-2.820992470E-2,-1.966938257E0,4.112223720E0
3.410183661E0,-2.923214912E0,-2.219061255E-1,-1.697457790E0,3.387593645E0
3.415187255E0,-2.087948799E0,-2.877576947E-1,-1.386362553E0,2.522763526E0
3.420191474E0,-1.053701401E0,-1.353922486E-1,-1.066675186E0,1.505461277E0
3.425196370E0,1.352372169E-1,1.420086622E-2,-7.568554878E-1,7.689739910E-1
3.430201890E0,1.472213268E0,1.700406671E-1,-5.081553459E-1,1.566699586E0
3.435208036E0,2.878379345E0,2.839415669E-1,-2.948904037E-1,2.907344289E0
3.440214755E0,4.246482849E0,2.896525264E-1,-4.858016968E-2,4.256627210E0
3.445221942E0,5.522630692E0,1.218586564E-1,1.407680511E-1,5.525768266E0
3.450229547E0,6.872429848E0,-1.137852669E-2,2.029733658E-1,6.875435962E0
3.455237463E0,8.250734329E0,-7.930219173E-2,2.258310318E-1,8.254205320E0
3.460245536E0,9.570031166E0,-1.000646949E-1,1.816067696E-1,9.572277184E0
3.465253661E0,1.090509987E1,-4.071447253E-1,1.531238556E-1,1.091377189E1
3.470261370E0,1.231959057E1,-5.773808956E-1,1.055002213E-1,1.233356440E1
3.475266786E0,1.361721802E1,-3.854969144E-1,-2.287054062E-2,1.362269274E1
3.480272203E0,1.397654533E1,1.001008749E-1,-4.236102104E-1,1.398332168E1
3.485277567E0,1.351541710E1,5.229266882E-1,-1.255930901E0,1.358371503E1
3.490282932E0,1.239124203E1,4.700489044E-1,-1.991885185E0,1.255911747E1
3.495288297E0,1.083840942E1,4.693859816E-2,-2.391645432E0,1.109924727E1
3.500293661E0,9.293403625E0,-4.347526431E-1,-2.422761917E0,9.613851263E0
3.505299026E0,7.910717487E0,-7.792110443E-1,-2.173197746E0,8.240716562E0
3.510304390E0,6.753817558E0,-9.974747896E-1,-1.721484184E0,7.040775196E0
3.515309755E0,5.804872513E0,-1.105817795E0,-1.256262779E0,6.041322211E0
3.520315120E0,5.035646439E0,-1.120704532E0,-7.882475853E-1,5.218720912E0
3.525320484E0,4.351129055E0,-1.110867620E0,-2.900414467E-1,4.500052773E0
3.530325849E0,3.843540192E0,-1.034425616E0,1.646995544E-1,3.983712277E0
3.535331213E0,3.508038998E0,-8.734661341E-1,6.137218475E-1,3.666869946E0
3.540336578E0,3.246876240E0,-6.813510656E-1,1.125678539E0,3.503369345E0
3.545341942E0,3.172702312E0,-4.961901903E-1,1.731234074E0,3.648207243E0
3.550347307E0,3.312376499E0,-1.738021374E-1,2.432022572E0,4.113001221E0
3.555352672E0,3.631124020E0,1.767704487E-1,3.200512886E0,4.843510315E0
3.560358036E0,4.065705299E0,5.659652352E-1,3.999458313E0,5.731138022E0
3.565363401E0,4.581255913E0,9.799345732E-1,4.734690189E0,6.660740852E0
3.570368765E0,5.109545231E0,1.251644850E0,5.388644218E0,7.530707391E0
3.575374130E0,5.668301582E0,1.415251255E0,5.982356071E0,8.361887533E0
3.580379495E0,6.351814270E0,1.361373425E0,6.599018574E0,9.259909733E0
3.585384859E0,7.249751091E0,1.324866176E0,7.178043842E0,1.028778279E1
3.590390224E0,8.255863190E0,1.205149055E0,7.677874088E0,1.133849248E1
3.595392255E0,9.374101639E0,1.079147100E0,8.219805717E0,1.251413385E1
3.600394286E0,1.059463310E1,8.129876256E-1,8.867107391E0,1.383953731E1
3.605396734E0,1.187972260E1,5.073726773E-1,9.514898300E0,1.522887145E1
3.610399703E0,1.321542835E1,1.236678958E-1,9.920066833E0,1.652484694E1
3.615403245E0,1.440077782E1,-3.333854675E-1,1.016127968E1,1.762796506E1
3.620407411E0,1.543222237E1,-7.291133404E-1,1.021566772E1,1.852147296E1
3.625412255E0,1.628391266E1,-9.334517121E-1,1.017782211E1,1.922563930E1
3.630417776E0,1.677809715E1,-1.012690067E0,9.929780960E0,1.952256733E1
3.635423922E0,1.685199547E1,-1.009371400E0,9.453365326E0,1.934876476E1
3.640430640E0,1.667666626E1,-1.017956614E0,8.687361717E0,1.883129541E1
3.645437880E0,1.615460205E1,-9.793438911E-1,7.804950237E0,1.796795843E1
3.650445536E0,1.527907753E1,-9.172053933E-1,6.882469654E0,1.678272518E1
3.655453505E0,1.422918224E1,-8.419549465E-1,6.072648525E0,1.549372697E1
3.660461682E0,1.302037334E1,-8.074468970E-1,5.418654442E0,1.412600115E1
3.665469911E0,1.157649136E1,-8.624282479E-1,4.768617630E0,1.254984656E1
3.670477567E0,9.959334373E0,-9.686636925E-1,4.130537987E0,1.082534039E1
3.675482932E0,8.383052826E0,-1.087551117E0,3.528570175E0,9.160193753E0
3.680488297E0,6.874931335E0,-1.190044403E0,3.016258478E0,7.601230279E0
3.685493661E0,5.448044777E0,-1.362155914E0,2.589743614E0,6.184127474E0
3.690499026E0,4.101242065E0,-1.483736038E0,2.211893082E0,4.890207574E0
3.695504390E0,2.843047142E0,-1.554806948E0,1.888693810E0,3.750667408E0
3.700509755E0,1.658072472E0,-1.561431527E0,1.645541668E0,2.809818520E0
3.705515120E0,5.456771851E-1,-1.527900457E0,1.554754019E0,2.247110023E0
3.710520484E0,-5.232734680E-1,-1.483178973E0,1.425133944E0,2.122414132E0
3.715525849E0,-1.501328945E0,-1.398828983E0,1.362274885E0,2.463027403E0
3.720531213E0,-2.360097885E0,-1.313498497E0,1.303933859E0,2.999263883E0
3.725536578E0,-3.133406162E0,-1.155797005E0,1.259843588E0,3.569496710E0
3.730541942E0,-3.922077656E0,-9.932481050E-1,1.106247902E0,4.194403337E0
3.735547307E0,-4.640335083E0,-8.070134521E-1,9.159042835E-1,4.798214361E0
3.740552672E0,-5.327096939E0,-6.116647124E-1,6.381087303E-1,5.399933173E0
3.745558036E0,-5.992502213E0,-4.169980288E-1,2.986609936E-1,6.014413397E0
3.750563401E0,-6.680170059E0,-2.325105667E-1,-1.912832260E-2,6.684242596E0
3.755568765E0,-7.280535698E0,-9.635591507E-2,-2.945742607E-1,7.287129648E0
3.760574130E0,-7.822782516E0,3.487467766E-2,-5.215780735E-1,7.840228710E0
3.765579495E0,-8.331050873E0,1.042076349E-1,-6.948077679E-1,8.360623524E0
3.770584859E0,-8.762402534E0,1.885253191E-1,-8.284221888E-1,8.803494948E0
3.775590224E0,-9.179090500E0,2.736247778E-1,-9.416165352E-1,9.231317058E0
3.780595588E0,-9.518767357E0,3.975632787E-1,-1.082977176E0,9.588421566E0
3.785600953E0,-9.795703888E0,5.263202190E-1,-1.205382109E0,9.883611367E0
3.790606317E0,-1.000500011E1,6.306154728E-1,-1.328849196E0,1.011254386E1
3.795611682E0,-1.018490696E1,7.147810459E-1,-1.472953081E0,1.031565958E1
3.800617047E0,-1.036425972E1,7.784843445E-1,-1.680462599E0,1.052843160E1
3.805622411E0,-1.046678638E1,8.028680682E-1,-1.845219016E0,1.065847304E1
3.810627776E0,-1.053113461E1,8.359391689E-1,-2.009317160E0,1.075364802E1
3.815633140E0,-1.060546589E1,8.681705594E-1,-2.057037592E0,1.083794402E1
3.820638505E0,-1.061808681E1,8.660720587E-1,-2.002728701E0,1.083996175E1
3.825643870E0,-1.066472435E1,8.488044143E-1,-1.970869303E0,1.087847141E1
3.830649234E0,-1.076919746E1,8.309321404E-1,-1.889802575E0,1.096528230E1
3.835654651E0,-1.084537125E1,8.268599510E-1,-1.831259489E0,1.102992684E1
3.840660067E0,-1.085981560E1,8.222869039E-1,-1.766469598E0,1.103323005E1
3.845665484E0,-1.087476826E1,8.173742294E-1,-1.724134207E0,1.104089326E1
3.850670901E0,-1.098600578E1,8.361580372E-1,-1.679820299E0,1.114510115E1
3.855676317E0,-1.100691795E1,8.498914242E-1,-1.638260841E0,1.116057601E1
3.860681734E0,-1.105244160E1,9.062430263E-1,-1.584986329E0,1.120222850E1
3.865687151E0,-1.113211250E1,9.428707957E-1,-1.534369588E0,1.127684460E1
3.870692567E0,-1.126019478E1,9.406207800E-1,-1.419573784E0,1.138823707E1
3.875697984E0,-1.136963272E1,9.426531196E-1,-1.288595319E0,1.148118552E1
3.880703401E0,-1.139808655E1,9.538403749E-1,-1.146834850E0,1.149527810E1
3.885708817E0,-1.164206886E1,9.168643355E-1,-9.945532084E-1,1.172039008E1
3.890714234E0,-1.187174225E1,8.754765391E-1,-8.076667786E-1,1.193134732E1
3.895719651E0,-1.209671021E1,8.683093190E-1,-6.768771410E-1,1.214670826E1
3.900725067E0,-1.220217705E1,8.526970744E-1,-5.590114594E-1,1.224470134E1
3.905730484E0,-1.235096169E1,8.575106859E-1,-4.585061073E-1,1.238918105E1
3.910735901E0,-1.249040318E1,8.352959752E-1,-3.895070553E-1,1.252436053E1
3.915741317E0,-1.265393066E1,8.056398630E-1,-3.471977711E-1,1.268430381E1
3.920746734E0,-1.285579967E1,7.308412194E-1,-3.267114162E-1,1.288070086E1
3.925752151E0,-1.295235825E1,6.499680281E-1,-3.233761787E-1,1.297268726E1
3.930757567E0,-1.293434334E1,6.395403147E-1,-3.746993542E-1,1.295556440E1
3.935762984E0,-1.299816036E1,6.471726298E-1,-3.839883804E-1,1.301992520E1
3.940768401E0,-1.298128796E1,7.012820244E-1,-4.317611456E-1,1.300738449E1
3.945773817E0,-1.308468914E1,7.159199715E-1,-4.266759157E-1,1.311120451E1
3.950779234E0,-1.303081799E1,7.770783305E-1,-4.067583084E-1,1.306030323E1
3.955784651E0,-1.299218464E1,8.265240192E-1,-4.191060066E-1,1.302519303E1
3.960790067E0,-1.292096329E1,9.205361009E-1,-3.965784311E-1,1.295978215E1
3.965795484E0,-1.267851830E1,1.081181049E0,-4.542183876E-1,1.273263888E1
3.970800901E0,-1.257107735E1,1.220525980E0,-4.346861839E-1,1.263766677E1
3.975806317E0,-1.238273716E1,1.281262636E0,-3.877664804E-1,1.245488564E1
3.980811734E0,-1.222791290E1,1.283362389E0,-4.249008894E-1,1.230241496E1
3.985817151E0,-1.199145508E1,1.251789808E0,-4.702494144E-1,1.206578249E1
3.990822567E0,-1.171169376E1,1.268011928E0,-5.571651459E-1,1.179330565E1
3.995827984E0,-1.151302910E1,1.269748092E0,-6.758050919E-1,1.160253471E1
4.000833401E0,-1.126620674E1,1.333463550E0,-7.591224313E-1,1.137021575E1
4.005838817E0,-1.111961079E1,1.386962414E0,-8.067454696E-1,1.123477846E1
4.010844234E0,-1.098223591E1,1.477737188E0,-8.235297799E-1,1.111176917E1
4.015849651E0,-1.084921455E1,1.528580785E0,-8.246580958E-1,1.098735986E1
4.020855067E0,-1.066784191E1,1.563334227E0,-7.534141541E-1,1.080807558E1
4.025860484E0,-1.062460327E1,1.562493682E0,-6.205202937E-1,1.075679444E1
4.030865901E0,-1.054705811E1,1.569143176E0,-4.320415854E-1,1.067189322E1
4.035871317E0,-1.054034233E1,1.511846185E0,-1.560013294E-1,1.064935828E1
4.040876734E0,-1.069506836E1,1.381902099E0,2.153733373E-1,1.078612657E1
4.045882151E0,-1.085311127E1,1.232970119E0,6.664193869E-1,1.094323326E1
4.050887567E0,-1.082798481E1,1.089734674E0,1.235211730E0,1.095255791E1
4.055892984E0,-1.038118172E1,1.042447329E0,1.794731617E0,1.058662797E1
4.060898401E0,-9.666932106E0,9.935206771E-1,2.211301088E0,9.966268719E0
4.065903817E0,-8.868062973E0,8.740382791E-1,2.662083626E0,9.300170592E0
4.070909234E0,-7.473388195E0,7.313632369E-1,3.288372040E0,8.197549266E0
4.075914651E0,-5.927779198E0,6.124449372E-1,4.104578972E0,7.236105552E0
4.080920067E0,-4.588366032E0,5.025227070E-1,4.929211617E0,6.752981495E0
4.085925484E0,-3.328800678E0,3.060654402E-1,5.746872902E0,6.648393653E0
4.090930901E0,-2.325308323E0,3.700578213E-2,6.061917782E0,6.492709405E0
4.095936317E0,-1.688138008E0,-8.876669407E-2,6.007638454E0,6.240946183E0
4.100941734E0,-1.394543171E0,-8.545339108E-2,5.596372128E0,5.768139555E0
4.105947151E0,-9.436049461E-1,-1.577714682E-1,5.018840790E0,5.109211779E0
4.110952567E0,1.226911545E0,-5.537172556E-1,5.268291950E0,5.437537569E0
4.115957984E0,8.288775444E0,-1.703738332E0,6.373851776E0,1.059398457E1
4.120963401E0,2.176585388E1,-4.270516396E0,5.539151192E0,2.286201875E1
4.125968817E0,3.240578461E1,-6.955902100E0,7.016907930E-1,3.315134718E1
4.130974234E0,3.772644424E1,-7.348930359E0,6.273381710E-1,3.844066761E1
4.135979651E0,4.004711914E1,-6.935003757E0,-3.152551651E0,4.076523777E1
4.140985067E0,4.392121506E1,-7.570248127E0,-5.369109631E0,4.489108071E1
4.145990484E0,4.731010056E1,-8.842708588E0,-7.935866356E0,4.877926900E1
4.150995901E0,5.307578278E1,-1.018844414E1,-1.137730885E1,5.522939677E1
4.156001317E0,5.707048035E1,-1.057489109E1,-1.742353821E1,6.060072386E1
4.161006734E0,5.460537338E1,-9.794649124E0,-2.185152626E1,5.962525600E1
4.166012151E0,4.511841202E1,-8.527010918E0,-2.633205986E1,5.293163888E1
4.171017567E0,2.218957520E1,-3.512924433E0,-3.283810806E1,3.978767682E1
4.176022984E0,9.245981216E0,-3.183343410E-1,-3.774964142E1,3.886675871E1
4.181028401E0,-2.582124710E0,1.179522276E0,-3.747167206E1,3.757904799E1
4.186033817E0,-4.789811134E0,9.252761006E-1,-3.214296341E1,3.251105233E1
4.191039234E0,-2.973331451E0,1.794353724E-1,-2.503514099E1,2.521172706E1
4.196044651E0,-8.021650314E-1,-4.232535362E-1,-1.851367188E1,1.853587491E1
4.201050067E0,-1.351451397E0,-1.931655407E-1,-1.372882557E1,1.379653526E1
4.206055484E0,-2.562998295E0,-6.388080120E-2,-1.054802608E1,1.085513221E1
4.211060901E0,-2.616072178E0,-2.713073492E-1,-8.180955887E0,8.593339313E0
4.216066317E0,-1.632289410E0,-6.974159479E-1,-5.889329433E0,6.151012835E0
4.221071734E0,-9.432554245E-1,-8.058252335E-1,-4.138235092E0,4.320193836E0
4.226077151E0,-5.203628540E-1,-6.041557789E-1,-2.717217684E0,2.831793362E0
4.231082567E0,-1.111545563E-1,-4.248895645E-1,-1.337944746E0,1.408184157E0
4.236087984E0,-8.208274841E-3,-2.168308496E-1,-2.465090752E-1,3.284048070E-1
4.241093401E0,-8.167743683E-2,3.282022476E-2,7.978453636E-1,8.026864862E-1
4.246098817E0,-1.839952469E-1,3.364440203E-1,1.975960255E0,2.012825814E0
4.251104234E0,-2.760400772E-1,6.068265438E-1,3.123809576E0,3.194154481E0
4.256109651E0,-4.882311821E-1,8.628685474E-1,4.152633667E0,4.269341658E0
4.261115067E0,-8.077654839E-1,1.052331090E0,5.061934948E0,5.232883643E0
4.266120484E0,-1.145070076E0,1.180466175E0,5.930384159E0,6.154197116E0
4.271125901E0,-1.453073978E0,1.257489681E0,6.747957706E0,7.016240980E0
4.276131317E0,-1.789078712E0,1.370007277E0,7.386923790E0,7.722976476E0
4.281136734E0,-2.194130421E0,1.460914731E0,7.808309555E0,8.241248586E0
4.286142151E0,-2.659612656E0,1.482705593E0,8.061111450E0,8.617045501E0
4.291147567E0,-3.189754009E0,1.469484925E0,8.104567528E0,8.832775973E0
4.296152984E0,-3.715600491E0,1.393307924E0,8.042567253E0,8.968270848E0
4.301158401E0,-4.167614937E0,1.365229964E0,7.964734077E0,9.092296522E0
4.306163817E0,-4.547789574E0,1.328754902E0,7.817097664E0,9.140842165E0
4.311169234E0,-4.910801888E0,1.284877419E0,7.612373829E0,9.149596738E0
4.316174651E0,-5.263576508E0,1.253717422E0,7.324750900E0,9.106537255E0
4.321180067E0,-5.598729134E0,1.236046910E0,6.966767311E0,9.022717254E0
4.326185484E0,-5.975752831E0,1.227300286E0,6.575305939E0,8.969422282E0
4.331190901E0,-6.239017487E0,1.108367324E0,6.220716476E0,8.879815922E0
4.336196317E0,-6.473051071E0,1.047386408E0,5.804829597E0,8.757479952E0
4.341201734E0,-6.566314697E0,9.914322495E-1,5.425932407E0,8.575556489E0
4.346207151E0,-6.566013336E0,9.063686728E-1,5.109428883E0,8.369008233E0
4.351212567E0,-6.500593185E0,8.579637408E-1,4.770189762E0,8.108546350E0
4.356217984E0,-6.379321098E0,8.256032467E-1,4.462075233E0,7.828631668E0
4.361223401E0,-6.240535259E0,7.984208465E-1,4.180817604E0,7.553872650E0
4.366228817E0,-6.065113068E0,7.752782702E-1,4.027454853E0,7.321683243E0
4.371234234E0,-5.867950439E0,7.075608373E-1,3.900884151E0,7.081693432E0
4.376239651E0,-5.582519531E0,6.330378652E-1,3.838899851E0,6.804587667E0
4.381245067E0,-5.238066196E0,5.228804946E-1,3.783319950E0,6.482611459E0
4.386250484E0,-4.796594620E0,3.965377808E-1,3.762514353E0,6.109097840E0
4.391255901E0,-4.296749592E0,2.591060996E-1,3.785432577E0,5.732250241E0
4.396261317E0,-3.772278786E0,1.255201101E-1,3.837110043E0,5.382309543E0
4.401266734E0,-3.166024685E0,-1.327723265E-2,3.830799818E0,4.969800382E0
4.406272151E0,-2.530680180E0,-1.712071300E-1,3.823863029E0,4.588636238E0
4.411277567E0,-1.803954124E0,-3.144255877E-1,3.701838970E0,4.129978898E0
4.416282984E0,-1.019135952E0,-4.475814104E-1,3.547040462E0,3.717588365E0
4.421288401E0,-1.472864151E-1,-5.993309021E-1,3.336682796E0,3.393279078E0
4.426293817E0,7.736711502E-1,-7.503507137E-1,3.101181984E0,3.283127006E0
4.431299234E0,1.701087952E0,-9.435437322E-1,2.794683456E0,3.405030193E0
4.436304599E0,2.616420746E0,-1.130747557E0,2.439081430E0,3.751448491E0
4.441309963E0,3.553667068E0,-1.307155967E0,1.975021005E0,4.270587117E0
4.446315328E0,4.480170250E0,-1.482178450E0,1.545544624E0,4.965630535E0
4.451320692E0,5.454110146E0,-1.651324987E0,9.014490843E-1,5.769471566E0
4.456326057E0,6.452733994E0,-1.805352688E0,1.636493206E-1,6.702526048E0
4.461331422E0,7.610042572E0,-1.897235155E0,-7.716407776E-1,7.880842510E0
4.466336786E0,8.848145485E0,-1.971066952E0,-1.803378344E0,9.242670442E0
4.471342151E0,9.569694519E0,-2.027306318E0,-2.758050680E0,1.016345747E1
4.476347515E0,9.934627533E0,-1.884857416E0,-3.517240763E0,1.070609613E1
4.481352880E0,9.882011414E0,-1.645347118E0,-4.138378143E0,1.083916465E1
4.486358245E0,9.043642998E0,-1.371320248E0,-4.420998573E0,1.015939104E1
4.491363609E0,7.421896935E0,-1.028492928E0,-4.331549644E0,8.654748646E0
4.496368974E0,5.461767197E0,-7.068440914E-1,-4.021926880E0,6.819561959E0
4.501374338E0,3.571727753E0,-3.812360764E-1,-3.628489256E0,5.105733480E0
4.506379703E0,1.476079941E0,-1.074957252E-1,-3.236670017E0,3.558988638E0
4.511385067E0,-3.264999390E-1,2.738550305E-1,-2.945132017E0,2.975802646E0
4.516390432E0,-1.900985718E0,6.245111227E-1,-2.881393671E0,3.508018006E0
4.521395797E0,-2.919116020E0,7.708388567E-1,-3.010015726E0,4.263288115E0
4.526401161E0,-3.589529514E0,7.880439162E-1,-3.292387962E0,4.934121385E0
4.531406526E0,-4.290565014E0,7.567660213E-1,-3.480484724E0,5.576326467E0
4.536411890E0,-4.871589661E0,7.152923346E-1,-3.561931372E0,6.077119716E0
4.541417255E0,-5.303023338E0,6.303920746E-1,-3.704754829E0,6.499589144E0
4.546422620E0,-5.579755783E0,4.508709311E-1,-3.662528992E0,6.689624639E0
4.551427984E0,-5.630411148E0,2.019436955E-1,-3.550179482E0,6.659285645E0
4.556433349E0,-5.254991531E0,1.844245195E-2,-3.307185411E0,6.209086202E0
4.561438713E0,-4.441036701E0,-4.309886694E-2,-2.966456890E0,5.340836168E0
4.566444078E0,-3.539745808E0,-8.485746384E-2,-2.504048347E0,4.336733713E0
4.571449442E0,-2.653057575E0,-5.089765787E-2,-1.986540556E0,3.314762201E0
4.576454807E0,-1.915890694E0,9.919881821E-3,-1.460181236E0,2.408913613E0
4.581460172E0,-1.381155491E0,3.533083200E-2,-9.217793941E-1,1.660878084E0
4.586465588E0,-9.819259644E-1,3.093487024E-2,-4.059345722E-1,1.062976219E0
4.591471005E0,-6.847419739E-1,7.473051548E-3,1.056227684E-1,6.928806438E-1
4.596476422E0,-4.706420898E-1,-5.511760712E-3,5.878040791E-1,7.530258904E-1
4.601481838E0,-2.776451111E-1,1.642447710E-2,1.010816693E0,1.048383021E0
4.606487255E0,-1.154880524E-1,2.086466551E-2,1.388276339E0,1.393227913E0
4.611492672E0,6.842231750E-2,2.663940191E-2,1.710437536E0,1.712012803E0
4.616498088E0,2.407131195E-1,2.376371622E-2,1.972909451E0,1.987681871E0
4.621503505E0,3.681707382E-1,4.030877352E-2,2.162164688E0,2.193656908E0
4.626508922E0,4.607172012E-1,6.631731987E-2,2.360460997E0,2.405916549E0
4.631514338E0,4.709348679E-1,1.444877982E-1,2.506708384E0,2.554651306E0
4.636519755E0,4.567642212E-1,1.693513393E-1,2.640676260E0,2.685234541E0
4.641525172E0,3.804302216E-1,1.793347001E-1,2.706484556E0,2.738968189E0
4.646530588E0,2.663192749E-1,1.700479388E-1,2.772511005E0,2.790458660E0
4.651536005E0,9.081363678E-2,1.610143781E-1,2.830064297E0,2.836095321E0
4.656541422E0,-1.220474243E-1,1.478592753E-1,2.855407000E0,2.861836311E0
4.661546838E0,-3.482618332E-1,1.548811197E-1,2.800910234E0,2.826724714E0
4.666552255E0,-5.543785095E-1,1.965448856E-1,2.733503819E0,2.796070198E0
4.671557672E0,-7.357263565E-1,2.298117876E-1,2.600310802E0,2.712143617E0
4.676563088E0,-8.828659058E-1,2.497500777E-1,2.434609890E0,2.601759525E0
4.681568505E0,-9.910688400E-1,2.945691347E-1,2.236475706E0,2.463901785E0
4.686573922E0,-1.007857323E0,3.543783128E-1,2.058346748E0,2.319084239E0
4.691579338E0,-9.860181808E-1,4.192474186E-1,1.962247133E0,2.235713323E0
4.696584755E0,-9.687747955E-1,4.458551705E-1,1.866284609E0,2.149495215E0
4.701590172E0,-9.466810226E-1,4.578462541E-1,1.779535532E0,2.067020769E0
4.706595588E0,-9.772081375E-1,4.550977051E-1,1.696856618E0,2.010316405E0
4.711601005E0,-1.007693291E0,4.233728051E-1,1.584621787E0,1.925023768E0
4.716606422E0,-1.062062263E0,3.867581487E-1,1.495264292E0,1.874399482E0
4.721611838E0,-1.145051003E0,3.406409025E-1,1.404772878E0,1.844062054E0
4.726617255E0,-1.227913857E0,3.045056462E-1,1.351226330E0,1.851029098E0
4.731622672E0,-1.301083088E0,2.977671623E-1,1.324733019E0,1.880531855E0
4.736628088E0,-1.378925800E0,2.870829105E-1,1.344073772E0,1.946891693E0
4.741633505E0,-1.471038342E0,2.534060478E-1,1.370413661E0,2.026376576E0
4.746638922E0,-1.591736317E0,2.255840302E-1,1.408254623E0,2.137216353E0
4.751644338E0,-1.717036724E0,1.942436695E-1,1.433379412E0,2.245110744E0
4.756649755E0,-1.875607967E0,1.498678327E-1,1.464592218E0,2.384406840E0
4.761655172E0,-2.033892155E0,1.117354631E-1,1.491928697E0,2.524886799E0
4.766660588E0,-2.206172943E0,1.132282615E-1,1.462650180E0,2.649408470E0
4.771666005E0,-2.416230202E0,1.350499392E-1,1.400972724E0,2.796270990E0
4.776671422E0,-2.682981014E0,1.671848297E-1,1.255399227E0,2.966878007E0
4.781676838E0,-2.972714901E0,2.281506658E-1,1.056297421E0,3.163044554E0
4.786682255E0,-3.309123039E0,3.173931241E-1,7.583696246E-1,3.409715263E0
4.791687672E0,-3.677666187E0,3.864855170E-1,4.267586768E-1,3.722461902E0
4.796693088E0,-4.030396938E0,4.305398464E-1,5.948323011E-2,4.053763966E0
4.801698505E0,-4.309960365E0,5.020123720E-1,-2.023518085E-1,4.343814110E0
4.806703922E0,-4.535691261E0,5.482000709E-1,-4.152061939E-1,4.587528171E0
4.811709338E0,-4.750755787E0,5.694678426E-1,-6.402307153E-1,4.827408160E0
4.816714755E0,-4.854780674E0,7.000222802E-1,-8.764896989E-1,4.982686101E0
4.821720172E0,-4.771553516E0,1.001520395E0,-1.225032568E0,5.027073786E0
4.826725588E0,-4.616342068E0,1.329620600E0,-1.850737333E0,5.148177707E0
4.831731005E0,-4.384836197E0,1.492684364E0,-2.347871065E0,5.193013925E0
4.836736422E0,-4.187542915E0,1.629939556E0,-2.729176283E0,5.257434908E0
4.841741838E0,-3.795158863E0,1.861222506E0,-3.210773468E0,5.308149044E0
4.846747255E0,-2.930628300E0,2.105021238E0,-3.822939873E0,5.256858940E0
4.851752672E0,-1.814430714E0,2.322796106E0,-4.511763573E0,5.389206908E0
4.856758088E0,-4.800930023E-1,2.457091093E0,-5.144425869E0,5.721267644E0
4.861763505E0,9.623003006E-1,2.508598804E0,-5.768000126E0,6.363090073E0
4.866768922E0,2.622676849E0,2.430444717E0,-6.418865681E0,7.347607230E0
4.871774338E0,4.209211349E0,2.142529964E0,-7.003981113E0,8.447700650E0
4.876779755E0,5.435434341E0,1.603074670E0,-7.311403275E0,9.250427705E0
4.881785172E0,6.383481979E0,1.037576437E0,-7.415926456E0,9.839785173E0
4.886790588E0,7.159085274E0,4.414169192E-1,-6.998589993E0,1.002135783E1
4.891796005E0,7.862782478E0,-1.758869886E-1,-6.275873661E0,1.006185245E1
4.896801422E0,8.446699142E0,-9.049209356E-1,-5.347380638E0,1.003793246E1
4.901806838E0,8.934792519E0,-1.711597919E0,-4.477683067E0,1.013951332E1
4.906812255E0,9.475365639E0,-2.447379589E0,-3.797310352E0,1.049722757E1
4.911817672E0,1.008257484E1,-3.031493902E0,-3.358391285E0,1.105111138E1
4.916823088E0,1.076088047E1,-3.417614937E0,-3.077375412E0,1.170243051E1
4.921828505E0,1.156246090E1,-3.636804104E0,-2.832269669E0,1.244743337E1
4.926833922E0,1.227164268E1,-3.744044781E0,-2.683793783E0,1.310777764E1
4.931839338E0,1.282611752E1,-3.770233154E0,-2.587574959E0,1.361688264E1
4.936844755E0,1.312076664E1,-3.693067551E0,-2.543042660E0,1.386579717E1
4.941850172E0,1.320863628E1,-3.494102955E0,-2.602951765E0,1.390870899E1
4.946855588E0,1.331507206E1,-3.024844408E0,-2.729753971E0,1.392452457E1
4.951861005E0,1.348824310E1,-2.337755680E0,-2.877274036E0,1.398844200E1
4.956866422E0,1.380496120E1,-1.518533826E0,-3.028887749E0,1.421467762E1
4.961871838E0,1.416968536E1,-7.340807915E-1,-3.173635483E0,1.453928541E1
4.966877255E0,1.450602436E1,5.451178551E-2,-3.429228067E0,1.490594913E1
4.971882672E0,1.492895031E1,7.712858915E-1,-3.648612261E0,1.538768373E1
4.976888088E0,1.540020752E1,1.426117778E0,-3.894544840E0,1.594890852E1
4.981893505E0,1.580030537E1,1.947770119E0,-4.143457413E0,1.645027956E1
4.986898922E0,1.603872681E1,2.251776695E0,-4.361592293E0,1.677303619E1
4.991904338E0,1.629292870E1,2.450026035E0,-4.519665718E0,1.708477484E1
4.996909755E0,1.644842148E1,2.481852531E0,-4.597682476E0,1.725829787E1
5.001915172E0,1.651523781E1,2.305617809E0,-4.561080933E0,1.728792679E1
5.006920588E0,1.633124161E1,1.975103140E0,-4.461534977E0,1.704452344E1
5.011926005E0,1.584931183E1,1.405452251E0,-4.298230648E0,1.648183146E1
5.016931422E0,1.492198944E1,6.747930050E-1,-4.017925739E0,1.546818806E1
5.021936838E0,1.353556347E1,-9.189087152E-2,-3.554934025E0,1.399490901E1
5.026942255E0,1.194349003E1,-8.235181570E-1,-2.965926170E0,1.233376886E1
5.031947672E0,1.021664047E1,-1.568746090E0,-2.385486841E0,1.060807496E1
5.036953088E0,8.411425591E0,-2.237172842E0,-1.827317715E0,8.893599542E0
5.041958505E0,6.723160744E0,-2.824175835E0,-1.260102034E0,7.400318687E0
5.046963922E0,5.184691429E0,-3.334598064E0,-6.507711411E-1,6.198715395E0
5.051969338E0,3.833727837E0,-3.730067492E0,5.836486816E-4,5.348913250E0
5.056974755E0,2.664935112E0,-4.020194054E0,6.269924641E-1,4.863841993E0
5.061980172E0,1.663381577E0,-4.133416176E0,1.218719244E0,4.619225492E0
5.066985588E0,7.806119919E-1,-4.166121483E0,1.827998757E0,4.616005064E0
5.071991005E0,-2.681827545E-2,-4.090409279E0,2.340148449E0,4.712585495E0
5.076996422E0,-8.499259949E-1,-3.983823538E0,2.741608143E0,4.910156758E0
5.082001838E0,-1.650201321E0,-3.794665337E0,3.067430258E0,5.150900679E0
5.087007255E0,-2.422595024E0,-3.509428501E0,3.304821014E0,5.395080814E0
5.092012672E0,-3.152400970E0,-3.277028084E0,3.493750572E0,5.734355936E0
5.097018088E0,-3.820233822E0,-3.016569853E0,3.659420490E0,6.089765057E0
5.102023505E0,-4.440330505E0,-2.690559387E0,3.802753448E0,6.435571350E0
5.107028922E0,-5.079710007E0,-2.313855886E0,3.952673435E0,6.839664473E0
5.112034338E0,-5.633269310E0,-1.901429653E0,4.051644325E0,7.194788363E0
5.117039755E0,-6.144373894E0,-1.477846146E0,4.156760216E0,7.564126867E0
5.122045172E0,-6.603817940E0,-1.019732833E0,4.238673210E0,7.913066221E0
5.127050588E0,-7.011915684E0,-6.326623559E-1,4.277751446E0,8.238105404E0
5.132056005E0,-7.392951965E0,-3.023208976E-1,4.364129066E0,8.590271195E0
5.137061422E0,-7.747362614E0,-2.375733852E-2,4.448767185E0,8.933852548E0
5.142066838E0,-8.132820129E0,1.843006015E-1,4.511705399E0,9.302269378E0
5.147072255E0,-8.525522232E0,3.174808025E-1,4.538012981E0,9.663275077E0
5.152077672E0,-8.911205292E0,3.957773447E-1,4.560569763E0,1.001823418E1
5.157083088E0,-9.222939491E0,4.678719342E-1,4.511894226E0,1.027806920E1
5.162088505E0,-9.465504646E0,5.582984090E-1,4.454008579E0,1.047595665E1
5.167093922E0,-9.610196114E0,6.102826595E-1,4.319629192E0,1.055402817E1
5.172099338E0,-9.680647850E0,7.148662210E-1,4.056896687E0,1.052066477E1
5.177104755E0,-9.729075432E0,7.811744213E-1,3.805589676E0,1.047605150E1
5.182110172E0,-9.779005051E0,8.090218306E-1,3.619102001E0,1.045855417E1
5.187115588E0,-9.777489662E0,8.078390360E-1,3.397495985E0,1.038243165E1
5.192121005E0,-9.810454369E0,8.015905619E-1,3.317867994E0,1.038729081E1
5.197126422E0,-9.805994034E0,8.045739532E-1,3.198044777E0,1.034564394E1
5.202131838E0,-9.864397049E0,8.072689772E-1,3.066616058E0,1.036157065E1
5.207137255E0,-9.860933304E0,8.715282679E-1,2.895288467E0,1.031408079E1
5.212142672E0,-9.891254425E0,9.201295376E-1,2.788811684E0,1.031799511E1
5.217148088E0,-9.883440018E0,9.765552878E-1,2.713141203E0,1.029549329E1
5.222153505E0,-9.942453384E0,1.049761295E0,2.567954302E0,1.032224624E1
5.227158922E0,-9.933925629E0,1.077258229E0,2.435027122E0,1.028458656E1
5.232164338E0,-9.924654961E0,1.116127253E0,2.361771107E0,1.026267406E1
5.237169755E0,-9.947850227E0,1.137324333E0,2.247177601E0,1.026172685E1
5.242175172E0,-1.000788498E1,1.164560795E0,2.148438931E0,1.030192960E1
5.247180588E0,-1.014720345E1,1.154788256E0,2.075934887E0,1.042155359E1
5.252186005E0,-1.012629509E1,1.108348489E0,1.980177999E0,1.037744639E1
5.257191422E0,-1.006448936E1,1.073476195E0,1.940680146E0,1.030594667E1
5.262196838E0,-1.024335289E1,1.098069906E0,1.741374731E0,1.044817792E1
5.267202255E0,-1.023135757E1,1.291843295E0,1.355221152E0,1.040125768E1
5.272207672E0,-1.028632832E1,1.437842250E0,1.004010916E0,1.043474861E1
5.277213088E0,-1.019716263E1,1.501098394E0,6.220916510E-1,1.032581329E1
5.282218505E0,-1.014045906E1,1.552162409E0,2.972663045E-1,1.026286926E1
5.287223922E0,-1.016828156E1,1.499733686E0,9.261935949E-2,1.027870270E1
5.292229338E0,-1.026573277E1,1.397231102E0,-9.593296051E-2,1.036082656E1
5.297234703E0,-1.052812862E1,1.183737993E0,-1.468455195E-1,1.059548449E1
5.302240067E0,-1.116097832E1,9.239373803E-1,-7.205486298E-2,1.119938789E1
5.307245432E0,-1.192541122E1,6.448048353E-1,1.708441973E-1,1.194405266E1
5.312250797E0,-1.275559998E1,3.014089167E-1,3.183143139E-1,1.276313058E1
5.317256161E0,-1.346191406E1,4.482963681E-2,1.784853935E-1,1.346317188E1
5.322261526E0,-1.336246681E1,-2.385359108E-1,-3.649592400E-1,1.336957793E1
5.327266890E0,-1.339180374E1,-4.718488455E-1,-8.200592995E-1,1.342518328E1
5.332272255E0,-1.343615532E1,-5.978372097E-1,-1.162769794E0,1.349961898E1
5.337277620E0,-1.321445656E1,-7.029582858E-1,-1.555561543E0,1.332425548E1
5.342282984E0,-1.281379509E1,-7.780061960E-1,-1.860522509E0,1.297151426E1
5.347288349E0,-1.242161179E1,-9.003610015E-1,-2.015830994E0,1.261628566E1
5.352293713E0,-1.215839958E1,-1.042274714E0,-2.173904657E0,1.239511510E1
5.357299078E0,-1.206756973E1,-1.151438117E0,-2.268089771E0,1.233273207E1
5.362304442E0,-1.207260895E1,-1.251758218E0,-2.385491371E0,1.236953332E1
5.367309807E0,-1.214475250E1,-1.371620774E0,-2.469810486E0,1.246901442E1
5.372315172E0,-1.228381062E1,-1.491338611E0,-2.560654163E0,1.263617995E1
5.377320536E0,-1.232208633E1,-1.615287542E0,-2.635430813E0,1.270387583E1
5.382325901E0,-1.222601795E1,-1.700055599E0,-2.719145298E0,1.263959869E1
5.387331265E0,-1.202422142E1,-1.760200739E0,-2.783950090E0,1.246718034E1
5.392336630E0,-1.179308128E1,-1.772266626E0,-2.811439753E0,1.225242379E1
5.397341995E0,-1.152825642E1,-1.675037026E0,-2.700036764E0,1.195812040E1
5.402347359E0,-1.125500965E1,-1.521949053E0,-2.575469494E0,1.164579814E1
5.407352724E0,-1.106133461E1,-1.323187470E0,-2.379848719E0,1.139155952E1
5.412358088E0,-1.088742256E1,-1.050279975E0,-2.053369999E0,1.112903349E1
5.417363453E0,-1.074622345E1,-7.893637419E-1,-1.585093379E0,1.089114019E1
5.422368817E0,-1.023947430E1,-5.736857653E-1,-1.223890185E0,1.032830366E1
5.427374182E0,-9.612659454E0,-4.115377665E-1,-8.037496805E-1,9.654977922E0
5.432379547E0,-8.811177254E0,-2.672224045E-1,-3.906335831E-1,8.823879363E0
5.437384911E0,-7.719274521E0,-1.970554292E-1,2.343859673E-1,7.725345737E0
5.442390328E0,-6.044456482E0,-1.146232486E-1,1.697315812E0,6.279289261E0
5.447395745E0,-3.893301964E0,-9.227460623E-2,3.195920467E0,5.037878762E0
5.452401161E0,-1.801710129E0,-1.440501213E-1,4.884023666E0,5.207743945E0
5.457406578E0,4.673137665E-1,-1.590671241E-1,6.568953514E0,6.587475600E0
5.462411995E0,2.862051964E0,-2.535936832E-1,8.001316071E0,8.501571035E0
5.467417411E0,6.409312248E0,-4.289002120E-1,8.875059128E0,1.095581642E1
5.472422828E0,1.323156452E1,-5.205689073E-1,1.035269737E1,1.680843939E1
5.477428245E0,2.245693207E1,-3.675875068E-1,1.039233780E1,2.474771916E1
5.482433661E0,3.354378510E1,2.705112100E-1,7.777481556E0,3.443469056E1
5.487439078E0,4.162979126E1,-3.123022318E-1,1.811621666E0,4.167036148E1
5.492444495E0,4.773889542E1,-1.555907011E0,-2.700266123E0,4.784051023E1
5.497449911E0,5.153540039E1,-3.445215702E0,-8.789266586E0,5.239292139E1
5.502455328E0,5.230268097E1,-5.117530823E0,-1.738863754E1,5.535453255E1
5.507460745E0,5.231766510E1,-5.054930210E0,-2.244266701E1,5.715211023E1
5.512466161E0,4.510787964E1,-4.813869476E0,-2.622342873E1,5.239811408E1
5.517471578E0,2.247236824E1,-3.380367994E0,-2.410610962E1,3.312912228E1
5.522476995E0,8.946313858E0,-1.165483952E0,-4.152732086E1,4.249603820E1
5.527482411E0,1.339231491E0,-1.045207381E0,-4.447926712E1,4.451169737E1
5.532487828E0,-4.795578957E0,-3.367829323E0,-4.453400421E1,4.491789602E1
5.537493245E0,-7.031074524E0,-3.477439404E0,-4.176663971E1,4.249683266E1
5.542498661E0,-7.125865936E0,-2.080194950E0,-3.702246475E1,3.775934418E1
5.547504078E0,-6.408239365E0,-9.090180397E-1,-3.179436493E1,3.244647110E1
5.552509495E0,-5.361434937E0,-3.251516819E-1,-2.626310921E1,2.680674567E1
5.557514911E0,-4.683158875E0,-1.695230007E-1,-2.127569389E1,2.178568029E1
5.562520328E0,-2.977677822E0,-4.891407490E-1,-1.670562744E1,1.697597750E1
5.567525745E0,-7.806072235E-1,-7.677963972E-1,-1.239702034E1,1.244527912E1
5.572531161E0,1.816766739E0,-7.966824770E-1,-8.569217682E0,8.795841974E0
5.577536578E0,4.191795349E0,-6.733207703E-1,-5.011876106E0,6.568364425E0
5.582541995E0,6.020413399E0,-7.232074738E-1,-1.515310764E0,6.250165858E0
5.587547411E0,6.699202061E0,-9.006797075E-1,1.612260818E0,6.949094699E0
5.592552828E0,6.808576107E0,-1.058577895E0,4.138262749E0,8.037568932E0
5.597558245E0,6.908767700E0,-1.121214390E0,6.255022526E0,9.386879121E0
5.602563661E0,6.827925205E0,-1.113026142E0,8.012535095E0,1.058584472E1
5.607569078E0,6.601259708E0,-1.044611692E0,9.698129654E0,1.177801181E1
5.612574495E0,5.955682278E0,-1.003750086E0,1.048907471E1,1.210365043E1
5.617579911E0,5.047884464E0,-9.660450220E-1,1.048140907E1,1.167365910E1
5.622585328E0,4.322967052E0,-8.511549830E-1,1.025827312E1,1.116443803E1
5.627590745E0,3.417191982E0,-8.847824335E-1,1.008052826E1,1.068068776E1
5.632596161E0,2.281403542E0,-9.099675417E-1,9.781537056E0,1.008520254E1
5.637601578E0,1.102955818E0,-8.368818760E-1,9.498880386E0,9.599250565E0
5.642606995E0,8.172178268E-2,-6.568564177E-1,9.354432106E0,9.377821646E0
5.647612411E0,-9.000015259E-1,-4.905005693E-1,9.176960945E0,9.234024353E0
5.652617828E0,-1.916428566E0,-3.194386363E-1,8.963110924E0,9.171264740E0
5.657623245E0,-2.817563534E0,-1.733208299E-1,8.752165794E0,9.196146501E0
5.662628661E0,-3.640489817E0,-2.882707119E-2,8.501801491E0,9.248493158E0
5.667634078E0,-4.393936157E0,1.369699836E-1,8.212568283E0,9.315133576E0
5.672639495E0,-4.948041439E0,2.944954038E-1,7.880194664E0,9.309527892E0
5.677644911E0,-5.612869740E0,4.710467458E-1,7.577264309E0,9.441457841E0
5.682650328E0,-6.299611092E0,6.699122787E-1,7.334870815E0,9.691966377E0
5.687655745E0,-6.891409874E0,8.229507208E-1,7.121649742E0,9.944177844E0
5.692661161E0,-7.343932629E0,9.534318447E-1,6.924954414E0,1.013890390E1
5.697666578E0,-7.642017365E0,1.046587586E0,6.703164101E0,1.021901091E1
5.702671995E0,-7.814270020E0,1.068547964E0,6.543182850E0,1.024782184E1
5.707677411E0,-7.832613945E0,1.038809299E0,6.396998405E0,1.016614748E1
5.712682828E0,-7.803141117E0,1.000737429E0,6.273726463E0,1.006231238E1
5.717688245E0,-7.731330395E0,8.879985213E-1,6.196745872E0,9.947948052E0
5.722693661E0,-7.507943153E0,7.733036280E-1,6.107904911E0,9.709465037E0
5.727699078E0,-7.157661438E0,7.098904252E-1,6.054446697E0,9.401722528E0
5.732704495E0,-6.589622974E0,7.269299626E-1,5.988776207E0,8.934035962E0
5.737709911E0,-5.861469269E0,7.625091672E-1,5.920616627E0,8.366118781E0
5.742715328E0,-5.054625034E0,7.929167151E-1,5.826298714E0,7.753947888E0
5.747720745E0,-4.212461948E0,7.947487831E-1,5.724778175E0,7.151891110E0
5.752726161E0,-3.307157040E0,7.782966495E-1,5.538476467E0,6.497519137E0
5.757731578E0,-2.439570427E0,7.437868714E-1,5.271860123E0,5.856383861E0
5.762736995E0,-1.613553524E0,6.769620180E-1,4.978957176E0,5.277484923E0
5.767742411E0,-7.316660881E-1,6.495323181E-1,4.629002571E0,4.731267515E0
5.772747828E0,1.936230659E-1,5.801928043E-1,4.268253326E0,4.311855754E0
5.777753245E0,1.053472042E0,4.737313986E-1,3.860664606E0,4.029758800E0
5.782758661E0,1.840089321E0,2.825579643E-1,3.299226999E0,3.788227357E0
5.787764078E0,2.617850780E0,2.638822794E-2,2.587629557E0,3.680987065E0
5.792769495E0,3.393884659E0,-2.130154371E-1,1.815849066E0,3.855014460E0
5.797774911E0,4.199084759E0,-4.451203942E-1,1.049339771E0,4.351041132E0
5.802780328E0,5.029983997E0,-6.273461580E-1,2.658319473E-2,5.069024451E0
5.807785745E0,5.877234459E0,-7.943103313E-1,-1.166600704E0,6.044317248E0
5.812791161E0,6.634161949E0,-1.033750057E0,-2.485534668E0,7.159513010E0
5.817796578E0,7.276454449E0,-1.222285986E0,-3.497147083E0,8.165219538E0
5.822801995E0,7.706141472E0,-1.431938171E0,-4.675578594E0,9.126669628E0
5.827807411E0,8.033079147E0,-1.581115961E0,-5.483622551E0,9.853953752E0
5.832812828E0,8.247383118E0,-1.746009111E0,-6.461929798E0,1.062188368E1
5.837818245E0,1.028618145E1,-2.641872883E0,-8.288331985E0,1.347150579E1
5.842823661E0,7.999230862E0,-2.684630871E0,-8.313264847E0,1.184505423E1
5.847829078E0,4.665799141E0,-2.094234943E0,-9.225069046E0,1.054786237E1
5.852834495E0,2.461948872E0,-1.528348207E0,-9.813228607E0,1.023213058E1
5.857839911E0,5.860929489E-1,-9.759753346E-1,-9.658671379E0,9.725531636E0
5.862845328E0,-9.984173775E-1,-4.876713753E-1,-9.073436737E0,9.141220643E0
5.867850745E0,-2.210238934E0,-1.848137379E-2,-8.321004868E0,8.609565594E0
5.872856161E0,-3.287038326E0,3.087806106E-1,-7.474797249E0,8.171447873E0
5.877861578E0,-4.208721161E0,4.573304355E-1,-6.682770729E0,7.910872869E0
5.882866995E0,-4.658552647E0,4.422385097E-1,-5.993218899E0,7.603707019E0
5.887872411E0,-4.317457199E0,2.580596805E-1,-5.032473564E0,6.635723144E0
5.892877828E0,-3.470968246E0,1.612119675E-1,-3.807498932E0,5.154673412E0
5.897883245E0,-2.708961964E0,2.354751229E-1,-2.533071995E0,3.716231584E0
5.902888661E0,-2.125697136E0,3.068976402E-1,-1.357719898E0,2.540900981E0
5.907894078E0,-1.684692383E0,3.178157806E-1,-2.505674362E-1,1.732622098E0
5.912899495E0,-1.372338772E0,3.307208419E-1,7.729997635E-1,1.609415613E0
5.917904911E0,-1.145632744E0,3.463644981E-1,1.698573828E0,2.077882527E0
5.922910328E0,-9.713430405E-1,3.223084807E-1,2.463723660E0,2.667831391E0
5.927915745E0,-9.266433716E-1,3.021991253E-1,3.067755461E0,3.218868717E0
5.932921161E0,-9.118862152E-1,2.913979292E-1,3.610084534E0,3.734857368E0
5.937926578E0,-9.040813446E-1,2.952314019E-1,4.027356625E0,4.138130742E0
5.942931995E0,-8.992347717E-1,3.143041134E-1,4.275581360E0,4.380411649E0
5.947937411E0,-8.496942520E-1,2.915451527E-1,4.349885464E0,4.441675635E0
5.952942828E0,-7.881879807E-1,1.890864968E-1,4.265779018E0,4.342103710E0
5.957948245E0,-6.028203964E-1,2.640217543E-2,3.949390411E0,3.995218908E0
5.962953661E0,-3.295884132E-1,-1.152179837E-1,3.528576851E0,3.545808554E0
5.967959078E0,-3.854656219E-2,-2.551452518E-1,3.001146078E0,3.012218903E0
5.972964495E0,1.518058777E-1,-4.415761232E-1,2.430957556E0,2.475396763E0
5.977969911E0,2.374114990E-1,-6.603093147E-1,1.828524828E0,1.958539164E0
5.982975328E0,3.092279434E-1,-8.111487627E-1,1.294323921E0,1.558479595E0
5.987980745E0,3.574228287E-1,-8.944627047E-1,7.753052711E-1,1.236492164E0
5.992986161E0,4.151639938E-1,-9.250128865E-1,3.188223839E-1,1.062853562E0
5.997991578E0,5.063567162E-1,-9.368051291E-1,-9.425973892E-2,1.069058404E0
6.002996995E0,5.737509727E-1,-9.061204791E-1,-4.589123726E-1,1.166552642E0
6.008002411E0,6.033225060E-1,-8.569278717E-1,-7.269120216E-1,1.275431108E0
6.013007828E0,5.095162392E-1,-8.556553721E-1,-9.024748802E-1,1.343954547E0
6.018013245E0,5.608601570E-1,-7.293918729E-1,-1.070986271E0,1.411944833E0
6.023018661E0,6.140279770E-1,-5.165081620E-1,-1.078848362E0,1.344516577E0
6.028024078E0,6.499214172E-1,-3.124662638E-1,-9.405384064E-1,1.185177416E0
6.033029495E0,6.823654175E-1,-1.413332224E-1,-7.813711166E-1,1.046966315E0
6.038034911E0,7.250843048E-1,1.110416651E-2,-6.310124397E-1,9.612737647E-1
6.043040328E0,6.962709427E-1,9.181499481E-2,-4.279952049E-1,8.224373012E-1
6.048045745E0,6.147298813E-1,1.437683105E-1,-1.921606064E-1,6.599150345E-1
6.053051161E0,5.711240768E-1,1.716831326E-1,-5.284786224E-3,5.963939454E-1
6.058056578E0,5.221290588E-1,2.185103893E-1,1.992583275E-1,6.000578517E-1
6.063061995E0,4.674940109E-1,2.506853938E-1,3.923106194E-1,6.597737786E-1
6.068067411E0,4.025201797E-1,2.538625598E-1,5.883255005E-1,7.567004618E-1
6.073072828E0,3.416881561E-1,2.711985707E-1,7.300629616E-1,8.504653953E-1
6.078078245E0,2.325315475E-1,2.644606829E-1,8.751881123E-1,9.433793538E-1
6.083083661E0,1.470937729E-1,2.768158317E-1,9.619002342E-1,1.011689499E0
6.088089078E0,9.516048431E-2,2.703059912E-1,1.014546871E0,1.054242003E0
6.093094495E0,3.835773468E-2,2.593075037E-1,1.047377110E0,1.079680743E0
6.098099911E0,9.939193726E-3,2.345200181E-1,1.036033630E0,1.062291914E0
6.103105328E0,-7.175254822E-2,1.960444450E-1,9.990811348E-1,1.020659084E0
6.108110745E0,-1.160011292E-1,1.583581567E-1,9.408707619E-1,9.611302504E-1
6.113116161E0,-2.185993195E-1,9.743094444E-2,8.611989021E-1,8.938355556E-1
6.118121578E0,-3.412461281E-1,5.634450912E-2,7.982153893E-1,8.699261068E-1
6.123126995E0,-4.840168953E-1,2.545756102E-2,7.420582771E-1,8.863243926E-1
6.128132411E0,-6.707949638E-1,-1.410996914E-2,6.973481178E-1,9.677083094E-1
6.133137828E0,-8.725686073E-1,-5.278682709E-2,6.979341507E-1,1.118603818E0
6.138143245E0,-1.113006115E0,-7.149052620E-2,7.297513485E-1,1.332828023E0
6.143148661E0,-1.358200073E0,-6.546592712E-2,7.551662922E-1,1.555400063E0
6.148154078E0,-1.645967484E0,-6.826561689E-2,8.180477619E-1,1.839312723E0
6.153159495E0,-1.865922451E0,-7.518297434E-2,9.190340042E-1,2.081331923E0
6.158164911E0,-2.018112659E0,-4.788041115E-2,1.053358793E0,2.276979576E0
6.163170328E0,-2.208032131E0,1.827520132E-2,1.172759771E0,2.500221062E0
6.168175745E0,-2.387631416E0,9.416198730E-2,1.301629066E0,2.721008726E0
6.173181161E0,-2.489566803E0,1.890220642E-1,1.440927744E0,2.882697516E0
6.178186578E0,-2.561943054E0,2.689326406E-1,1.580832958E0,3.022401333E0
6.183191995E0,-2.595303535E0,3.720588684E-1,1.687780619E0,3.118113478E0
6.188197411E0,-2.561389923E0,4.599976540E-1,1.808814645E0,3.169247008E0
6.193202828E0,-2.551451683E0,5.805219412E-1,1.871489763E0,3.217046060E0
6.198208245E0,-2.527341843E0,6.760191321E-1,1.928160310E0,3.249963205E0
6.203213661E0,-2.508193970E0,7.513139844E-1,1.930989027E0,3.253341100E0
6.208219078E0,-2.450966358E0,8.161244392E-1,1.932541370E0,3.226144965E0
6.213224495E0,-2.408251286E0,8.563539982E-1,1.889801621E0,3.178736635E0
6.218229911E0,-2.336986065E0,9.010743499E-1,1.812222481E0,3.091535083E0
6.223235328E0,-2.304210186E0,9.264907241E-1,1.656554937E0,2.985287910E0
6.228240745E0,-2.271601200E0,9.374375939E-1,1.451525331E0,2.854100040E0
6.233246161E0,-2.277511120E0,9.385245442E-1,1.220800996E0,2.749225399E0
6.238251578E0,-2.312418461E0,9.821436405E-1,9.306235313E-1,2.679168794E0
6.243256942E0,-2.376543522E0,1.039252639E0,5.945994854E-1,2.661118882E0
6.248262307E0,-2.479801655E0,1.080940843E0,1.540665627E-1,2.709536096E0
6.253267672E0,-2.622516155E0,1.059424162E0,-3.445687294E-1,2.849332930E0
6.258273036E0,-2.775914192E0,1.032226682E0,-9.351947308E-1,3.105765720E0
6.263278401E0,-2.834436417E0,1.023469448E0,-1.507320642E0,3.369500709E0
6.268283765E0,-2.845932007E0,1.066902876E0,-2.075795174E0,3.680561959E0
6.273289130E0,-2.858075142E0,1.138491392E0,-2.640651464E0,4.054355229E0
6.278294495E0,-2.865556717E0,1.204588771E0,-3.186351776E0,4.451436515E0
6.283299859E0,-2.795629978E0,1.246032834E0,-3.680870056E0,4.787165045E0
6.288305224E0,-2.566013813E0,1.320475578E0,-4.115248203E0,5.026266051E0
6.293310588E0,-2.056534767E0,1.456680536E0,-4.456802368E0,5.119994217E0
6.298315953E0,-1.348492146E0,1.620971560E0,-4.645390034E0,5.101531969E0
6.303321317E0,-4.708633423E-1,1.808290720E0,-4.674952984E0,5.034561849E0
6.308326682E0,4.611339569E-1,2.042043924E0,-4.616724014E0,5.069194072E0
6.313332047E0,1.471073151E0,2.364243984E0,-4.541912079E0,5.327538941E0
6.318337411E0,2.491610527E0,2.701915026E0,-4.474034309E0,5.790116650E0
6.323342776E0,3.445952415E0,2.977263927E0,-4.388778687E0,6.324560609E0
6.328348140E0,4.252708435E0,3.132158279E0,-4.218924522E0,6.759827560E0
6.333353505E0,4.988578796E0,3.071251631E0,-4.007339478E0,7.097695026E0
6.338358870E0,5.538939476E0,2.838821650E0,-3.835543156E0,7.310960961E0
6.343364234E0,6.090658188E0,2.393778324E0,-3.890535593E0,7.613314589E0
6.348369599E0,6.586448669E0,1.532792568E0,-3.976904392E0,7.845159506E0
6.353374963E0,6.940182686E0,3.293083310E-1,-4.019860744E0,8.027070455E0
6.358380328E0,7.080314636E0,-9.709445238E-1,-4.183186531E0,8.280859748E0
6.363385692E0,7.093304634E0,-2.265618801E0,-4.410109043E0,8.654308809E0
6.368391057E0,7.161177635E0,-3.495360613E0,-4.734705925E0,9.269166690E0
6.373396422E0,7.384391785E0,-4.529890537E0,-5.181354523E0,1.009433430E1
6.378401786E0,7.738679886E0,-5.302462578E0,-5.665207386E0,1.095891648E1
6.383407151E0,8.061101913E0,-5.862075806E0,-6.201659203E0,1.173907465E1
6.388412567E0,8.389683723E0,-6.124299526E0,-6.700987816E0,1.236111141E1
6.393417984E0,8.733675003E0,-5.942953110E0,-7.236090660E0,1.280456086E1
6.398423401E0,9.164626122E0,-5.300909519E0,-7.749995232E0,1.312068747E1
6.403428817E0,9.758855820E0,-4.281013012E0,-8.257291794E0,1.348129100E1
6.408434234E0,1.055932999E1,-3.295968771E0,-8.738250732E0,1.409680410E1
6.413439651E0,1.149913120E1,-2.538019657E0,-9.115222931E0,1.489156981E1
6.418445067E0,1.238712406E1,-2.098692656E0,-9.392003059E0,1.568614277E1
6.423450484E0,1.348216724E1,-1.791825294E0,-9.662801743E0,1.668380080E1
6.428455901E0,1.478941441E1,-1.566143870E0,-1.004536247E1,1.794683516E1
6.433461317E0,1.597483444E1,-1.432963371E0,-1.032646561E1,1.907575979E1
6.438466734E0,1.690105820E1,-1.388346434E0,-1.038434219E1,1.988486452E1
6.443472151E0,1.747868538E1,-1.298144698E0,-1.021312523E1,2.028540237E1
6.448477567E0,1.755592346E1,-1.184923172E0,-9.808593750E0,2.014504909E1
6.453482984E0,1.717663193E1,-1.122565508E0,-9.192402840E0,1.951402336E1
6.458488401E0,1.640233231E1,-1.012686729E0,-8.346098900E0,1.843147868E1
6.463493817E0,1.530688763E1,-8.958571553E-1,-7.206622601E0,1.694221881E1
6.468499234E0,1.422134399E1,-6.606728435E-1,-6.007742405E0,1.545238112E1
6.473504651E0,1.322749138E1,-4.177860618E-1,-4.761466026E0,1.406458787E1
6.478510067E0,1.225983906E1,-2.545164227E-1,-3.624904633E0,1.278703898E1
6.483515484E0,1.121379471E1,-1.769037843E-1,-2.584862232E0,1.150921368E1
6.488520901E0,1.009746170E1,-5.210369825E-2,-1.614536285E0,1.022585815E1
6.493526317E0,8.813066483E0,-4.833936691E-2,-8.470349312E-1,8.853809671E0
6.498531734E0,7.390625000E0,-1.319333911E-1,-1.220083237E-1,7.392809367E0
6.503537151E0,6.079376221E0,-2.302697897E-1,5.995802879E-1,6.113209953E0
6.508542567E0,4.927269936E0,-2.850435376E-1,1.299059868E0,5.103606115E0
6.513547984E0,3.914377213E0,-3.341403604E-1,1.884632587E0,4.357274232E0
6.518553401E0,2.962903976E0,-3.774510026E-1,2.369115829E0,3.812345610E0
6.523558817E0,2.057984352E0,-3.720803857E-1,2.833458662E0,3.521680195E0
6.528564234E0,1.170802116E0,-3.277753592E-1,3.225221395E0,3.446776368E0
6.533569651E0,2.967481613E-1,-3.022837639E-1,3.554602623E0,3.579753449E0
6.538575067E0,-5.591425896E-1,-2.575923800E-1,3.884465218E0,3.932946007E0
6.543580484E0,-1.353504181E0,-1.748909354E-1,4.162898064E0,4.380899530E0
6.548585901E0,-2.081377029E0,-5.917352438E-2,4.481329918E0,4.941452183E0
6.553591317E0,-2.704510212E0,1.083972454E-1,4.792100430E0,5.503667139E0
6.558596734E0,-3.261126518E0,2.653861642E-1,5.076422691E0,6.039490320E0
6.563602151E0,-3.813477039E0,4.354272783E-1,5.382229328E0,6.610642676E0
6.568607567E0,-4.390480995E0,5.753840208E-1,5.723567963E0,7.236478450E0
6.573612984E0,-4.944839954E0,6.472690701E-1,6.080469131E0,7.864000527E0
6.578618401E0,-5.467772484E0,6.610702276E-1,6.423144817E0,8.461107441E0
6.583623817E0,-6.065234184E0,7.129051685E-1,6.702809334E0,9.067687272E0
6.588629234E0,-6.704040051E0,7.411897182E-1,6.942917347E0,9.679752914E0
6.593634651E0,-7.241226196E0,7.943441868E-1,7.147512436E0,1.020555111E1
6.598640067E0,-7.634278774E0,8.154746294E-1,7.287372112E0,1.058550913E1
6.603645484E0,-8.093986511E0,8.525507450E-1,7.371875763E0,1.098107521E1
6.608650901E0,-8.481469154E0,8.292284012E-1,7.386854172E0,1.127779027E1
6.613656317E0,-8.734815598E0,8.126189709E-1,7.394239902E0,1.147310494E1
6.618661734E0,-9.059930801E0,8.120403290E-1,7.350747108E0,1.169509464E1
6.623667151E0,-9.227066040E0,7.795240879E-1,7.285118580E0,1.178216271E1
6.628672567E0,-9.332568169E0,7.531596422E-1,7.186837196E0,1.180316512E1
6.633677984E0,-9.324244499E0,7.232093811E-1,7.083803177E0,1.173221355E1
6.638683401E0,-9.246230125E0,6.988548636E-1,7.021947384E0,1.163137630E1
6.643688817E0,-9.027305603E0,6.654481292E-1,6.923393250E0,1.139598358E1
6.648694234E0,-8.859809875E0,6.033272743E-1,6.857682228E0,1.121998397E1
6.653699651E0,-8.772451401E0,5.456510186E-1,6.737382412E0,1.107456367E1
6.658705067E0,-8.726794243E0,4.684953988E-1,6.575527191E0,1.093681780E1
6.663710484E0,-8.832059860E0,4.053670764E-1,6.414606094E0,1.092322183E1
6.668715901E0,-8.953104973E0,3.658626676E-1,6.182607651E0,1.088653212E1
6.673721317E0,-9.074544907E0,3.403752148E-1,5.960361004E0,1.086227986E1
6.678726734E0,-9.200111389E0,2.810642123E-1,5.718350887E0,1.083607787E1
6.683732151E0,-9.304471970E0,2.692557871E-1,5.441897392E0,1.078239048E1
6.688737567E0,-9.405298233E0,2.809257507E-1,5.183176041E0,1.074261923E1
6.693742984E0,-9.414828300E0,2.919813693E-1,4.937070370E0,1.063479708E1
6.698748401E0,-9.479589462E0,2.927823961E-1,4.636451244E0,1.055675225E1
6.703753817E0,-9.669015884E0,2.547019720E-1,4.334831238E0,1.059931616E1
6.708759234E0,-9.865751266E0,1.878566146E-1,3.986186981E0,1.064227536E1
6.713764651E0,-9.976409912E0,1.550131440E-1,3.522052288E0,1.058100355E1
6.718770067E0,-1.013791752E1,8.960210532E-2,3.183858395E0,1.062649304E1
6.723775484E0,-1.026728725E1,5.942418426E-2,2.801595449E0,1.064282180E1
6.728780901E0,-1.046843910E1,1.225866377E-2,2.373137712E0,1.073406494E1
6.733786317E0,-1.050595093E1,-1.818519831E-2,1.882426381E0,1.067327807E1
6.738791734E0,-1.063770676E1,-4.660165310E-2,1.299544334E0,1.071689284E1
6.743797151E0,-1.070572758E1,-3.965197504E-2,7.774350643E-1,1.073399183E1
6.748802567E0,-1.085903358E1,-5.523997545E-2,1.635873318E-1,1.086040619E1
6.753807984E0,-1.076417542E1,-1.763676107E-2,-5.321804881E-1,1.077733731E1
6.758813401E0,-1.061475372E1,1.090028062E-1,-1.272377849E0,1.069129663E1
6.763818817E0,-1.050904179E1,2.398867011E-1,-1.837625980E0,1.067119366E1
6.768824234E0,-1.054975891E1,2.209893316E-1,-2.059549570E0,1.075118569E1
6.773829651E0,-1.060402298E1,1.262113601E-1,-2.056507587E0,1.080233568E1
6.778835067E0,-1.068668461E1,-2.352790534E-2,-2.124314785E0,1.089580170E1
6.783840484E0,-1.098967171E1,-2.027075291E-1,-2.269350052E0,1.122336510E1
6.788845901E0,-1.125081825E1,-3.525902927E-1,-2.347693920E0,1.149856069E1
6.793851317E0,-1.152900028E1,-5.204600692E-1,-2.525770903E0,1.181390049E1
6.798856734E0,-1.139941502E1,-6.246627569E-1,-2.832780838E0,1.176271710E1
6.803862151E0,-1.098781395E1,-6.180303693E-1,-3.154122829E0,1.144825348E1
6.808867567E0,-1.081156540E1,-6.350572109E-1,-3.423862696E0,1.135852454E1
6.813872984E0,-1.069396019E1,-6.286639571E-1,-3.666680813E0,1.132256822E1
6.818878401E0,-1.053486347E1,-5.849597454E-1,-3.869093418E0,1.123812307E1
6.823883817E0,-1.044933605E1,-5.854980350E-1,-4.003355980E0,1.120527960E1
6.828889234E0,-1.048015785E1,-6.060789824E-1,-4.104461670E0,1.127154142E1
6.833894651E0,-1.051224804E1,-6.508550048E-1,-4.168834686E0,1.132740719E1
6.838900067E0,-1.046904755E1,-6.955732703E-1,-4.312087536E0,1.134367126E1
6.843905484E0,-1.037899399E1,-7.588900924E-1,-4.453998566E0,1.131978505E1
6.848910901E0,-1.020378017E1,-8.024014831E-1,-4.590434551E0,1.121753392E1
6.853916317E0,-9.996206284E0,-8.739790916E-1,-4.726449966E0,1.109176761E1
6.858921734E0,-9.789912224E0,-9.498801827E-1,-4.862225533E0,1.097205044E1
6.863927151E0,-9.537450790E0,-1.068923354E0,-4.887546539E0,1.077003602E1
6.868932567E0,-9.259681702E0,-1.160145879E0,-4.810104370E0,1.049879744E1
6.873937984E0,-9.089594841E0,-1.200756788E0,-4.653953075E0,1.028211216E1
6.878943401E0,-9.187288284E0,-1.172059894E0,-4.305091858E0,1.021341306E1
6.883948817E0,-9.558054924E0,-1.175297379E0,-3.612277508E0,1.028524607E1
6.888954234E0,-9.664707184E0,-1.087368369E0,-2.951303720E0,1.016361789E1
6.893959651E0,-9.260065079E0,-9.669573307E-1,-2.698499203E0,9.693591166E0
6.898965067E0,-8.675618172E0,-8.953762054E-1,-2.122507811E0,8.976251368E0
6.903970484E0,-7.917113781E0,-7.823529243E-1,-1.624065399E0,8.119750928E0
6.908975901E0,-7.357456207E0,-6.529277563E-1,-1.127854586E0,7.471983168E0
6.913981317E0,-6.936531067E0,-4.974111319E-1,-7.804999352E-1,6.998004089E0
6.918986734E0,-6.467000961E0,-3.849093318E-1,-5.806095600E-1,6.504411125E0
6.923992151E0,-5.707714081E0,-3.813912272E-1,3.725981712E-1,5.732563885E0
6.928997567E0,-3.587149620E0,-1.129784584E0,4.036846161E0,5.517262231E0
6.934002984E0,7.256536484E0,-3.173862934E0,1.223268318E1,1.457289489E1
6.939008401E0,1.980744171E1,-1.057695448E-1,1.815182114E1,2.686697871E1
6.944013817E0,2.776723671E1,1.614644051E0,2.168384552E1,3.526777093E1
6.949019234E0,3.493947983E1,5.703628063E-3,2.299684525E1,4.182848520E1
6.954024651E0,4.053223419E1,-2.472990513E0,2.185933495E1,4.611733096E1
6.959030067E0,5.046680450E1,-3.915301323E0,2.269192505E1,5.547207769E1
6.964035484E0,6.142745209E1,-3.457649231E0,2.550200462E1,6.660059645E1
6.969040901E0,7.283334351E1,-1.359526873E0,2.576852036E1,7.726940456E1
6.974046317E0,8.288462830E1,6.034377813E-1,2.368485451E1,8.620439709E1
6.979051734E0,8.033363342E1,1.005307198E0,9.848707199E0,8.094133885E1
6.984057151E0,6.444860840E1,3.105063438E-1,-4.875006676E0,6.463346833E1
6.989062567E0,4.511065674E1,-5.482801199E-1,-1.446852493E1,4.737731711E1
6.994067984E0,2.920596313E1,-7.790540457E-1,-1.923122215E1,3.497763733E1
6.999073401E0,1.748287773E1,-1.546710134E0,-2.216966820E1,2.827609439E1
7.004078817E0,9.264282227E0,-2.557373047E0,-2.220721626E1,2.419767626E1
7.009084234E0,5.028305054E-1,-3.842560768E0,-2.375832558E1,2.407231077E1
7.014089651E0,-8.210544586E0,-4.903007984E0,-2.428395653E1,2.609910103E1
7.019095067E0,-8.793445587E0,-4.306378365E0,-1.642037773E1,1.911801205E1
7.024100484E0,-8.171684265E0,-3.434028149E0,-9.099893570E0,1.270342615E1
7.029105901E0,-7.448136330E0,-2.879459858E0,-5.476130486E0,9.682666418E0
7.034111317E0,-6.430603981E0,-2.049606562E0,-3.153050900E0,7.449515729E0
7.039116734E0,-5.273491859E0,-1.272094250E0,-1.544466496E0,5.640329505E0
7.044122151E0,-5.077418804E0,-8.672354221E-1,-6.998226643E-1,5.198271901E0
7.049127567E0,-5.295663834E0,-4.735473394E-1,-1.218724251E-1,5.318190990E0
7.054132984E0,-5.592411041E0,-2.830359936E-1,7.516592741E-1,5.649793119E0
7.059138401E0,-6.173497200E0,-6.333178282E-1,3.735077620E0,7.243201224E0
7.064143817E0,-6.346436501E0,-6.766688824E-2,2.622058153E0,6.867097205E0
7.069149234E0,-6.714020252E0,-6.548333168E-2,2.990963936E0,7.350389192E0
7.074154651E0,-7.123357773E0,-2.196586132E-2,3.470537663E0,7.923846296E0
7.079160067E0,-7.375031471E0,1.677513123E-3,4.219070435E0,8.496566798E0
7.084165484E0,-7.505073071E0,1.589500904E-2,5.029774189E0,9.034655657E0
7.089170901E0,-7.506585598E0,5.032861233E-2,5.777844429E0,9.472847859E0
7.094176317E0,-7.420466900E0,1.103476286E-1,6.449387550E0,9.832095676E0
7.099181734E0,-7.306589603E0,1.820049286E-1,7.016599655E0,1.013173471E1
7.104187151E0,-7.124272346E0,2.752784491E-1,7.494592190E0,1.034407786E1
7.109192567E0,-6.923405647E0,3.953747749E-1,7.903388023E0,1.051443813E1
7.114197984E0,-6.747862816E0,6.193659306E-1,8.054224968E0,1.052557868E1
7.119203401E0,-6.544322491E0,9.138475657E-1,7.966621399E0,1.035037829E1
7.124208817E0,-6.397306442E0,1.225883961E0,7.804688454E0,1.016570131E1
7.129214234E0,-6.295286179E0,1.440358162E0,7.717653275E0,1.006317205E1
7.134219651E0,-6.255203247E0,1.557509065E0,7.547927856E0,9.925956733E0
7.139225067E0,-6.336594582E0,1.549021125E0,7.181336403E0,9.701726128E0
7.144230484E0,-6.531091690E0,1.473364949E0,6.524847031E0,9.348774878E0
7.149235849E0,-6.782221317E0,1.360203624E0,5.740345955E0,8.988896015E0
7.154241213E0,-7.019313335E0,1.215642571E0,4.861258984E0,8.624406384E0
7.159246578E0,-7.205655098E0,1.093324423E0,4.084458351E0,8.354616910E0
7.164251942E0,-7.310028076E0,9.750441313E-1,3.439431190E0,8.137377246E0
7.169257307E0,-7.345021248E0,9.095587730E-1,2.984840870E0,7.980345188E0
7.174262672E0,-7.328798294E0,8.732826710E-1,2.555832624E0,7.810645778E0
7.179268036E0,-7.208769321E0,8.235625029E-1,1.950375438E0,7.513226649E0
7.184273401E0,-7.072249889E0,7.698888779E-1,1.590925097E0,7.289752400E0
7.189278765E0,-6.849275589E0,6.740844250E-1,1.315388918E0,7.006940410E0
7.194284130E0,-6.542222977E0,5.270494223E-1,1.172602534E0,6.667342745E0
7.199289495E0,-6.201722145E0,3.719090223E-1,1.182236671E0,6.324346404E0
7.204294859E0,-5.849693298E0,1.466399431E-1,1.266685963E0,5.987061741E0
7.209300224E0,-5.397755623E0,-2.506893873E-2,1.494234443E0,5.600815189E0
7.214305588E0,-4.900460720E0,-1.780727506E-1,2.069067001E0,5.322336275E0
7.219310953E0,-4.368513107E0,-3.429955840E-1,2.695598841E0,5.144687148E0
7.224316317E0,-3.783200741E0,-4.933521152E-1,3.335134029E0,5.067457267E0
7.229321682E0,-3.178077698E0,-6.552134156E-1,3.963598251E0,5.122459719E0
7.234327047E0,-2.619913578E0,-7.679376602E-1,4.552811623E0,5.308650401E0
7.239332411E0,-2.117725372E0,-9.087766409E-1,5.093568802E0,5.590624194E0
7.244337776E0,-1.656330585E0,-1.010576487E0,5.504371643E0,5.836334726E0
7.249343140E0,-1.196635246E0,-1.134985805E0,5.847687721E0,6.075819317E0
7.254348505E0,-7.333135605E-1,-1.257408857E0,6.029715538E0,6.202926348E0
7.259353870E0,-2.134695053E-1,-1.381917119E0,6.144944191E0,6.302031677E0
7.264359234E0,3.535051346E-1,-1.459921479E0,6.187609673E0,6.367326760E0
7.269364599E0,1.029783249E0,-1.524435639E0,6.133872986E0,6.403807880E0
7.274369963E0,1.796091080E0,-1.517984390E0,6.060469627E0,6.500731642E0
7.279375328E0,2.814810753E0,-1.435976148E0,5.963274956E0,6.748765463E0
7.284380692E0,3.865552902E0,-1.379509807E0,5.875917435E0,7.167422985E0
7.289386057E0,4.996150017E0,-1.267094731E0,5.563858032E0,7.584428802E0
7.294391422E0,6.115468979E0,-1.074736834E0,5.019087791E0,7.984063023E0
7.299396838E0,7.252011299E0,-8.118553162E-1,4.415761948E0,8.529345257E0
7.304402255E0,8.281257629E0,-6.316068172E-1,3.783873081E0,9.126656046E0
7.309407672E0,9.107532501E0,-5.718171597E-1,3.053377151E0,9.622745718E0
7.314413088E0,9.673426628E0,-5.647205114E-1,2.356533527E0,9.972328828E0
7.319418505E0,9.897961617E0,-5.713043213E-1,1.484339952E0,1.002493381E1
7.324423922E0,9.599873543E0,-6.005631685E-1,5.676337481E-1,9.635375251E0
7.329429338E0,8.990507126E0,-5.895935297E-1,-4.170266986E-1,9.019465072E0
7.334434755E0,8.032222748E0,-5.281903744E-1,-1.496931314E0,8.187575386E0
7.339440172E0,6.759304047E0,-3.681042194E-1,-2.365157366E0,7.170610942E0
7.344445588E0,5.383054733E0,-2.817556858E-1,-3.160856724E0,6.248814268E0
7.349451005E0,4.038068771E0,-2.692290545E-1,-4.066460609E0,5.737123458E0
7.354456422E0,2.920817375E0,-2.066850662E-1,-4.821979046E0,5.641398300E0
7.359461838E0,1.811669350E0,-9.505116940E-2,-5.461706161E0,5.755120742E0
7.364467255E0,7.877817154E-1,-1.192641258E-2,-6.101044178E0,6.151705644E0
7.369472672E0,-1.215686798E-1,6.573498249E-2,-6.635240078E0,6.636679209E0
7.374478088E0,-9.492464066E-1,9.462428093E-2,-7.166399956E0,7.229613463E0
7.379483505E0,-1.828757763E0,4.124927521E-2,-7.475260735E0,7.695815714E0
7.384488922E0,-2.899241924E0,1.129078865E-2,-7.566566467E0,8.103003105E0
7.389494338E0,-4.197034836E0,9.058094025E-2,-7.392734528E0,8.501519283E0
7.394500484E0,-5.798269272E0,3.644232154E-1,-7.468194962E0,9.461853244E0
7.399506265E0,-6.952453613E0,4.782435298E-1,-7.085947990E0,9.938610921E0
7.404511682E0,-6.969576359E0,3.894826770E-1,-6.030189037E0,9.224417120E0
7.409517099E0,-6.390471458E0,4.431663752E-1,-4.879390717E0,8.052513624E0
7.414522463E0,-5.512274742E0,6.289213300E-1,-3.636120796E0,6.633407067E0
7.419527828E0,-4.684657574E0,7.161271572E-1,-2.578466415E0,5.395122218E0
7.424533192E0,-3.883715153E0,7.195454240E-1,-1.731487870E0,4.312660345E0
7.429538557E0,-3.114138126E0,6.830312014E-1,-1.115345240E0,3.377629775E0
7.434543922E0,-2.418722153E0,6.266919374E-1,-6.494075060E-1,2.581606040E0
7.439549286E0,-1.730098248E0,5.180622339E-1,-3.056508303E-1,1.831679790E0
7.444554651E0,-1.109945297E0,4.010975361E-1,-4.088640213E-2,1.180901983E0
7.449560015E0,-5.384836197E-1,2.333319187E-1,1.501659751E-1,6.057707595E-1
7.454565380E0,-1.980686188E-2,1.059907675E-1,3.020088375E-1,3.206800469E-1
7.459570745E0,4.563255310E-1,5.693936348E-2,4.210081100E-1,6.234764712E-1
7.464576109E0,8.474950790E-1,8.973240852E-3,5.282894373E-1,9.987082445E-1
7.469581474E0,1.125590324E0,-4.824542999E-2,5.735276937E-1,1.264205369E0
7.474586838E0,1.252882957E0,-1.056077480E-1,5.693545938E-1,1.380229457E0
7.479592203E0,1.268045425E0,-2.159882784E-1,5.093103051E-1,1.383469235E0
7.484597567E0,1.161704063E0,-3.265342712E-1,3.872683346E-1,1.267342781E0
7.489602932E0,9.912452698E-1,-4.657995701E-1,2.731010318E-1,1.128769506E0
7.494608297E0,7.994909286E-1,-5.425682068E-1,2.219039798E-1,9.913664208E-1
7.499613661E0,7.103528976E-1,-5.518970490E-1,1.929390430E-1,9.200092750E-1
7.504619026E0,6.656446457E-1,-5.225033760E-1,2.703807354E-1,8.883683438E-1
7.509624390E0,7.028303146E-1,-4.734797478E-1,3.034276962E-1,9.001232635E-1
7.514629755E0,8.019609451E-1,-4.195050001E-1,4.750853777E-1,1.022170200E0
7.519635120E0,9.287986755E-1,-3.559889793E-1,7.432091236E-1,1.241674247E0
7.524640484E0,1.025358200E0,-3.071033955E-1,9.359133244E-1,1.421831806E0
7.529645849E0,1.086665154E0,-2.631703615E-1,1.171783686E0,1.619622425E0
7.534651213E0,1.098483086E0,-2.144441605E-1,1.386404157E0,1.781787831E0
7.539656578E0,1.003818512E0,-1.558545828E-1,1.581517458E0,1.879664791E0
7.544661942E0,8.271884918E-1,-1.205756664E-1,1.749070287E0,1.938562911E0
7.549667307E0,6.026535034E-1,-7.988214493E-2,1.881159782E0,1.976950816E0
7.554672672E0,4.024753571E-1,-3.854119778E-2,1.951177359E0,1.992627643E0
7.559678036E0,2.031116486E-1,-2.540481091E-2,1.942572951E0,1.953327780E0
7.564683453E0,1.039505005E-4,-2.618801594E-2,1.882512569E0,1.882694717E0
7.569688870E0,-1.968202591E-1,-3.626704216E-2,1.794299960E0,1.805426780E0
7.574694286E0,-3.350334167E-1,-3.652346134E-2,1.692485690E0,1.725714103E0
7.579699703E0,-4.529600143E-1,2.050435543E-2,1.563329220E0,1.627756570E0
7.584705120E0,-5.650892258E-1,5.807054043E-2,1.460230470E0,1.566834722E0
7.589710536E0,-6.620025635E-1,9.988653660E-2,1.340855837E0,1.498705805E0
7.594715015E0,-7.821044922E-1,1.171829700E-1,1.244184732E0,1.474250635E0
7.599719599E0,-9.206838608E-1,1.482766867E-1,1.161195517E0,1.489301774E0
7.604724286E0,-1.092171669E0,1.645749807E-1,1.082880259E0,1.546788135E0
7.609729130E0,-1.248722553E0,1.806051731E-1,1.028537989E0,1.627825739E0
7.614734130E0,-1.423754215E0,1.868579388E-1,9.930877686E-1,1.745913878E0
7.619739286E0,-1.607531071E0,2.027148008E-1,9.426114559E-1,1.874504145E0
7.624744599E0,-1.771173954E0,1.997709274E-1,8.958008289E-1,1.994849549E0
7.629750067E0,-1.914559364E0,2.258700728E-1,8.570001125E-1,2.109740278E0
7.634755692E0,-2.071056366E0,2.379419208E-1,8.019602299E-1,2.233613897E0
7.639761474E0,-2.183193207E0,2.454875112E-1,7.832076550E-1,2.332383100E0
7.644767411E0,-2.279541969E0,2.342244983E-1,7.524869442E-1,2.411930618E0
7.649773453E0,-2.359997272E0,2.327532768E-1,7.478237152E-1,2.486564200E0
7.654779547E0,-2.429212093E0,2.411147952E-1,7.307238579E-1,2.548168969E0
7.659785692E0,-2.487137318E0,2.400188446E-1,6.916468143E-1,2.592650458E0
7.664791838E0,-2.538521290E0,2.294524908E-1,6.642086506E-1,2.633991632E0
7.669797984E0,-2.607319355E0,2.093752623E-1,5.722243786E-1,2.677572214E0
7.674803661E0,-2.655300140E0,1.895725727E-1,4.879529476E-1,2.706409924E0
7.679809078E0,-2.716041565E0,1.653553247E-1,3.926935196E-1,2.749260331E0
7.684814442E0,-2.760961533E0,1.320712566E-1,3.061282635E-1,2.781018863E0
7.689819807E0,-2.747172356E0,1.040326357E-1,1.952168941E-1,2.756063928E0
7.694825172E0,-2.698979378E0,1.002994776E-1,1.038827896E-1,2.702839489E0
7.699830536E0,-2.607137680E0,1.445342302E-1,1.357197762E-2,2.611176215E0
7.704835901E0,-2.495986938E0,2.075160742E-1,-7.026124001E-2,2.505583836E0
7.709841265E0,-2.370873451E0,2.887768745E-1,-1.370723248E-1,2.392325611E0
7.714846630E0,-2.251259327E0,3.642252684E-1,-1.768431664E-1,2.287378873E0
7.719851995E0,-2.137282848E0,4.723278880E-1,-2.707352638E-1,2.205531498E0
7.724857359E0,-2.029072285E0,6.371145248E-1,-4.663796425E-1,2.177282532E0
7.729862724E0,-1.921927929E0,8.013261557E-1,-6.153533459E-1,2.171310736E0
7.734868088E0,-1.873087406E0,9.267866611E-1,-7.038428783E-1,2.205172271E0
7.739873453E0,-1.877403736E0,9.992671013E-1,-8.330743313E-1,2.284117416E0
7.744878817E0,-1.867777348E0,1.076383710E0,-1.012784004E0,2.381790409E0
7.749884182E0,-1.853844166E0,1.100991488E0,-1.218918085E0,2.476828970E0
7.754889547E0,-1.873892307E0,1.058922410E0,-1.408425093E0,2.572246157E0
7.759894911E0,-1.894384861E0,9.884495735E-1,-1.562333822E0,2.647000856E0
7.764900276E0,-1.910437107E0,8.992329836E-1,-1.700071812E0,2.710836414E0
7.769905640E0,-1.845417500E0,8.675615788E-1,-1.841138840E0,2.747366206E0
7.774911005E0,-1.766325474E0,8.402794003E-1,-1.985802412E0,2.787361901E0
7.779916370E0,-1.630201817E0,8.073366880E-1,-2.143675566E0,2.811529018E0
7.784921734E0,-1.489643574E0,7.491116524E-1,-2.267223120E0,2.814339517E0
7.789927099E0,-1.315981865E0,6.415234804E-1,-2.375660896E0,2.790542123E0
7.794929182E0,-1.109075546E0,5.323336124E-1,-2.445458889E0,2.737461748E0
7.799931265E0,-8.638644218E-1,4.072232246E-1,-2.505890369E0,2.681711960E0
7.804933765E0,-5.609321594E-1,2.902297974E-1,-2.538341999E0,2.615732847E0
7.809936786E0,-1.999430656E-1,2.005687952E-1,-2.567360878E0,2.582933787E0
7.814940380E0,2.287325859E-1,1.192766428E-1,-2.626532078E0,2.639169617E0
7.819944599E0,6.673121452E-1,1.091667414E-1,-2.729460716E0,2.811970604E0
7.824949495E0,1.191339016E0,2.137707472E-1,-2.860077858E0,3.105645172E0
7.829955015E0,1.813880920E0,4.330434799E-1,-3.007002592E0,3.538326615E0
7.834961161E0,2.399640560E0,7.093539238E-1,-3.087116480E0,3.973882984E0
7.839967880E0,2.914430141E0,9.328123331E-1,-2.970365524E0,4.264635183E0
7.844975067E0,3.439953804E0,1.127695560E0,-2.710166693E0,4.522165737E0
7.849982672E0,3.890758038E0,1.265668988E0,-2.422490120E0,4.754826440E0
7.854990588E0,4.267627716E0,1.304171920E0,-2.089257717E0,4.927322653E0
7.859998713E0,4.642584324E0,1.301031351E0,-1.796891928E0,5.145395260E0
7.865006890E0,5.024786949E0,1.227340341E0,-1.497032166E0,5.384789086E0
7.870014495E0,5.390072823E0,1.053899169E0,-1.084293365E0,5.598149747E0
7.875019911E0,5.747611523E0,8.898230791E-1,-6.684622765E-1,5.854371456E0
7.880025328E0,6.126057625E0,6.911676526E-1,-2.448997498E-1,6.169786920E0
7.885030745E0,6.444173336E0,3.375948668E-1,2.434654236E-1,6.457601388E0
7.890036161E0,6.712200642E0,-1.706238985E-1,8.291716576E-1,6.765373279E0
7.895041526E0,7.007525444E0,-7.988038063E-1,1.492014885E0,7.208994991E0
7.900046890E0,7.369647026E0,-1.391938686E0,2.177814484E0,7.809741770E0
7.905052255E0,7.746876240E0,-1.852711916E0,2.894987106E0,8.475115531E0
7.910057620E0,8.115848541E0,-2.194627285E0,3.580696583E0,9.138094686E0
7.915062984E0,8.409265518E0,-2.479398012E0,4.216473579E0,9.728402259E0
7.920068349E0,8.735908508E0,-2.621460438E0,4.785042286E0,1.029974669E1
7.925073713E0,9.189659119E0,-2.636214495E0,5.217039108E0,1.089114129E1
7.930079078E0,9.705387115E0,-2.477631092E0,5.463680744E0,1.140986425E1
7.935084442E0,1.022281647E1,-2.291078091E0,5.629303932E0,1.189302645E1
7.940089807E0,1.064876366E1,-2.187521935E0,5.726796627E0,1.228729503E1
7.945095172E0,1.102513885E1,-2.171607018E0,5.906564236E0,1.269476526E1
7.950100536E0,1.144735909E1,-2.213679790E0,6.164830685E0,1.318891753E1
7.955105901E0,1.196292686E1,-2.279531956E0,6.344973564E0,1.373195451E1
7.960111265E0,1.260895920E1,-2.268421650E0,6.459375381E0,1.434765204E1
7.965116630E0,1.337959957E1,-2.280677319E0,6.472957611E0,1.503709925E1
7.970121995E0,1.426028824E1,-2.315791607E0,6.579657078E0,1.587484169E1
7.975127359E0,1.527654934E1,-2.392686844E0,6.803391933E0,1.689331382E1
7.980132724E0,1.634114838E1,-2.482648134E0,7.159866333E0,1.801278318E1
7.985138088E0,1.716257858E1,-2.571938038E0,7.317295074E0,1.883379346E1
7.990143453E0,1.771142960E1,-2.570638180E0,7.189237595E0,1.928699189E1
7.995145484E0,1.829623222E1,-2.527674198E0,6.820642471E0,1.968914458E1
8.000147515E0,1.864514923E1,-2.439357519E0,6.225079536E0,1.980766695E1
8.005149963E0,1.847705460E1,-2.296926022E0,5.425601959E0,1.939367351E1
8.010152932E0,1.759775352E1,-2.124631166E0,4.371875763E0,1.825673258E1
8.015156474E0,1.609082031E1,-2.002665997E0,3.342750788E0,1.655594009E1
8.020160640E0,1.419254494E1,-1.995950580E0,2.444205523E0,1.453912966E1
8.025165484E0,1.224333858E1,-1.920686126E0,1.563434124E0,1.249130502E1
8.030171005E0,1.042462635E1,-1.728209138E0,6.228685379E-1,1.058524948E1
8.035177151E0,8.783116341E0,-1.476705432E0,-8.028960228E-2,8.906752383E0
8.040183870E0,7.154911995E0,-1.205970883E0,-4.733413458E-1,7.271257350E0
8.045191109E0,5.649261475E0,-9.123433828E-1,-5.752842426E-1,5.751302254E0
8.050198765E0,4.327973366E0,-5.154570341E-1,-4.700555801E-1,4.383834127E0
8.055206734E0,3.133357048E0,-1.502565145E-1,5.290079117E-2,3.137403688E0
8.060214911E0,1.983483315E0,2.968879342E-1,5.350440741E-1,2.075721722E0
8.065223140E0,8.776102066E-1,6.673463583E-1,9.690827131E-1,1.467880152E0
8.070230745E0,-1.754894257E-1,9.036475420E-1,1.363033295E0,1.644759916E0
8.075236161E0,-1.214835167E0,1.044394493E0,1.634708881E0,2.288855056E0
8.080241578E0,-2.336688519E0,1.095119834E0,1.717252731E0,3.099735090E0
8.085246995E0,-3.464879513E0,1.042521358E0,1.735679865E0,4.013081785E0
8.090252359E0,-4.437102795E0,1.050491929E0,1.681246638E0,4.859835878E0
8.095257724E0,-5.325542927E0,1.052756906E0,1.584128499E0,5.655012614E0
8.100263088E0,-6.116104126E0,1.021306515E0,1.503281951E0,6.380411687E0
8.105268453E0,-6.761136055E0,1.028414488E0,1.401522517E0,6.981035917E0
8.110273817E0,-7.366021156E0,9.978172183E-1,1.294286728E0,7.545136514E0
8.115279182E0,-7.873350143E0,9.489897490E-1,1.144340277E0,8.012473943E0
8.120284547E0,-8.364437103E0,8.344069719E-1,9.958810210E-1,8.464739929E0
8.125289911E0,-8.839133263E0,6.546435356E-1,8.976402283E-1,8.908680765E0
8.130295276E0,-9.273385048E0,4.917649329E-1,7.696712613E-1,9.318256105E0
8.135300640E0,-9.652781487E0,3.414795697E-1,5.754133463E-1,9.675944359E0
8.140306005E0,-9.972500801E0,1.944774389E-1,3.305972815E-1,9.979874161E0
8.145311370E0,-1.020861435E1,7.487243414E-2,1.081439257E-1,1.020946169E1
8.150316734E0,-1.051902962E1,-8.900034428E-2,-1.048460007E-1,1.051992860E1
8.155322099E0,-1.071713161E1,-2.059250474E-1,-2.736060619E-1,1.072260115E1
8.160327463E0,-1.091307735E1,-2.327845097E-1,-3.923240900E-1,1.092260794E1
8.165332828E0,-1.108781052E1,-2.702519894E-1,-5.365570784E-1,1.110407455E1
8.170338192E0,-1.123187447E1,-3.086739182E-1,-6.144703627E-1,1.125290440E1
8.175343557E0,-1.134057617E1,-3.052497506E-1,-6.257041693E-1,1.136192550E1
8.180348922E0,-1.139003468E1,-2.221385837E-1,-5.942598581E-1,1.140768952E1
8.185354286E0,-1.147117710E1,-1.652259231E-1,-5.537452698E-1,1.148572320E1
8.190359651E0,-1.151693916E1,-1.155707836E-1,-5.569547415E-1,1.153097753E1
8.195361682E0,-1.158950043E1,-8.795845509E-2,-5.273810625E-1,1.160182691E1
8.200363713E0,-1.161703682E1,-4.882264137E-2,-5.224227905E-1,1.162888016E1
