"Time (s)","Linear Acceleration x (m/s^2)","Linear Acceleration y (m/s^2)","Linear Acceleration z (m/s^2)","Absolute acceleration (m/s^2)"
2.971521500E-2,-3.975152969E-3,-3.211879730E-2,-5.990266800E-3,3.291355766E-2
3.471584000E-2,3.092646599E-2,-1.158924103E-1,-1.570601463E-1,1.976243574E-1
3.971703800E-2,1.301934719E-1,-1.784896851E-2,-4.348332882E-1,4.542564411E-1
4.471896500E-2,2.764494419E-1,-1.247539520E-1,-7.515008450E-1,8.103958060E-1
4.972172500E-2,4.662604332E-1,-2.351312637E-1,-1.058633208E0,1.180419321E0
5.472537100E-2,6.344110966E-1,-3.077249527E-1,-1.306589127E0,1.484704426E0
5.972995400E-2,7.446815968E-1,-3.231258392E-1,-1.462167382E0,1.672391833E0
6.473547500E-2,7.352007627E-1,-3.205099106E-1,-1.478079319E0,1.681655505E0
6.974188100E-2,6.235357523E-1,-2.616920471E-1,-1.337683201E0,1.498891560E0
7.474912100E-2,4.192692041E-1,-1.977071762E-1,-1.061738729E0,1.158517986E0
7.975709000E-2,2.176703215E-1,-1.888971329E-1,-6.721770167E-1,7.313579407E-1
8.476563100E-2,2.859735489E-2,-2.704277039E-1,-2.945588231E-1,4.008913219E-1
8.977464200E-2,-1.108944416E-1,-1.965179443E-1,4.650294781E-2,2.303896781E-1
9.478396500E-2,-2.187864780E-1,-1.150846481E-1,4.065307379E-1,4.757932745E-1
9.979339200E-2,-2.845919132E-1,-3.467178345E-2,7.112210989E-1,7.668312338E-1
1.048024540E-1,-3.202151060E-1,1.176061630E-1,9.479452372E-1,1.007456747E0
1.098079230E-1,-3.227343559E-1,4.834480286E-1,1.175412774E0,1.311287402E0
1.148133920E-1,-2.843811512E-1,6.316480637E-1,1.456754923E0,1.613067519E0
1.198188610E-1,-9.719061852E-2,5.779075623E-1,1.624698162E0,1.727155837E0
1.248243290E-1,4.147756100E-2,7.050065994E-1,1.637922168E0,1.783688235E0
1.298297980E-1,1.255555153E-1,7.534742355E-1,1.671233177E0,1.837527672E0
1.348352670E-1,3.773742914E-1,2.410774231E-1,1.878542781E0,1.931179085E0
1.398407360E-1,6.041907072E-1,1.752147675E-1,1.899293900E0,2.000765839E0
1.448462040E-1,1.575525999E-1,-4.722404480E-1,3.589613914E0,3.623970463E0
1.498516730E-1,8.654188514E-1,-8.371496201E-1,3.065612555E0,3.293592204E0
1.548571420E-1,1.105917692E0,-2.128105164E-1,1.720378399E0,2.056220828E0
1.598626110E-1,9.483644366E-1,4.440631866E-1,5.461444855E-1,1.181042344E0
1.648680270E-1,9.007058144E-1,-1.283884048E-1,1.472790241E-1,9.216537623E-1
1.698734440E-1,8.551316261E-1,-1.520435333E0,2.030165195E-1,1.756186040E0
1.748788610E-1,8.005713224E-1,-2.026701927E0,2.014617920E-1,2.188383421E0
1.798842770E-1,6.397331953E-1,-1.647609711E0,1.784965992E-1,1.776439517E0
1.848896940E-1,4.638212919E-1,-1.012126923E0,3.063583374E-2,1.113763733E0
1.898951110E-1,2.215722799E-1,-3.490247726E-1,-1.946716309E-1,4.569569028E-1
1.949005270E-1,6.366574764E-2,3.702325821E-1,-5.596979856E-1,6.740825820E-1
1.999059440E-1,7.205712795E-2,8.333482742E-1,-8.466963768E-1,1.190191720E0
2.049113610E-1,7.081043720E-2,9.313154221E-1,-1.030312657E0,1.390649742E0
2.099167770E-1,9.295201302E-2,8.789806366E-1,-1.136857271E0,1.440031767E0
2.149221940E-1,1.004707813E-1,8.947515488E-1,-1.163676858E0,1.471332234E0
2.199276110E-1,1.168774366E-1,7.949132919E-1,-1.149948001E0,1.402828529E0
2.249330270E-1,7.108747959E-2,8.018064499E-1,-1.106033206E0,1.367938765E0
2.299350060E-1,-3.596341610E-2,1.034466743E0,-1.074698687E0,1.492109942E0
2.349369860E-1,-1.288435459E-1,1.179354668E0,-9.946064949E-1,1.548134416E0
2.399393810E-1,-2.223937511E-1,1.158982277E0,-8.438109159E-1,1.450763854E0
2.449422980E-1,-3.300440311E-1,1.028205872E0,-6.242624521E-1,1.247333150E0
2.499458400E-1,-3.989855051E-1,7.279596329E-1,-3.896565437E-1,9.170315602E-1
2.549500590E-1,-3.867553473E-1,4.485988617E-1,-1.971566677E-1,6.242526644E-1
2.599549540E-1,-2.710154057E-1,-5.002689362E-2,2.369236946E-2,2.766104997E-1
2.649605270E-1,-9.113550186E-2,-5.202188492E-1,2.715811729E-1,5.938768090E-1
2.699667250E-1,6.311261654E-2,-7.849340439E-1,5.030000210E-1,9.344055205E-1
2.749734960E-1,9.398031235E-2,-8.721141815E-1,6.284105778E-1,1.079034429E0
2.799807880E-1,3.640437126E-2,-9.263324738E-1,5.220382214E-1,1.063927175E0
2.849884960E-1,-7.110047340E-2,-8.780822754E-1,1.911611557E-1,9.014579009E-1
2.899965170E-1,-2.108453512E-1,-8.373117447E-1,-2.205889225E-1,8.911824688E-1
2.950047460E-1,-4.067146778E-1,-7.943477631E-1,-4.347394705E-1,9.926749745E-1
3.000130790E-1,-5.730781555E-1,-5.702915192E-1,-4.587107897E-1,9.295518155E-1
3.050210480E-1,-5.506333113E-1,-2.571706772E-1,-5.011440516E-1,7.877049962E-1
3.100265170E-1,-3.996980190E-1,1.395483017E-1,-5.267726183E-1,6.758118276E-1
3.150319860E-1,-2.360708714E-1,5.392284393E-1,-5.999388695E-1,8.404899840E-1
3.200374540E-1,-1.119966507E-1,8.294572830E-1,-7.090024948E-1,1.096917122E0
3.250429230E-1,-2.683281898E-2,1.069022179E0,-7.957261801E-1,1.332932321E0
3.300483920E-1,2.090597153E-2,1.273008347E0,-8.411179781E-1,1.525931441E0
3.350538610E-1,7.574605942E-2,1.399485588E0,-7.749593258E-1,1.601517822E0
3.400593290E-1,1.114511490E-1,1.421202183E0,-5.750813484E-1,1.537190802E0
3.450647980E-1,1.489752531E-1,1.287714005E0,-3.139591217E-1,1.333780834E0
3.500702670E-1,2.266554832E-1,9.967632294E-1,-7.643318176E-2,1.025061791E0
3.550757360E-1,3.095053434E-1,6.125926971E-1,1.254553795E-1,6.977122777E-1
3.600812040E-1,2.917612791E-1,2.598142624E-1,3.504717350E-1,5.248414351E-1
3.650866730E-1,1.792575121E-1,6.083869934E-2,6.842284203E-1,7.099317813E-1
3.700920900E-1,4.973757267E-2,-5.287933350E-2,9.692964554E-1,9.720111463E-1
3.750975060E-1,2.276897430E-2,-1.208019257E-1,1.181914806E0,1.188290428E0
3.801029230E-1,8.878564835E-2,-1.253566742E-1,1.255379200E0,1.264742710E0
3.851083400E-1,2.703930140E-1,-9.633731842E-2,1.208544016E0,1.242164200E0
3.901137560E-1,4.570413828E-1,-3.461742401E-2,1.154688120E0,1.242332422E0
3.951191730E-1,5.961470604E-1,1.650333405E-2,1.068677187E0,1.223819679E0
4.001245900E-1,7.068291903E-1,1.444816589E-2,9.357764721E-1,1.172814503E0
4.051300060E-1,8.221797943E-1,1.183319092E-2,8.364684582E-1,1.172944636E0
4.101354230E-1,8.145290017E-1,3.692054749E-2,8.076860905E-1,1.147683511E0
4.151408400E-1,7.849779129E-1,1.081838608E-1,7.536864281E-1,1.093589184E0
4.201462560E-1,7.151663303E-1,1.446275711E-1,7.124667168E-1,1.019798430E0
4.251516730E-1,7.142398357E-1,1.751728058E-1,6.084711552E-1,9.544952601E-1
4.301570900E-1,6.442815661E-1,3.465080261E-1,6.788675785E-1,9.980118926E-1
4.351625060E-1,7.086995840E-1,1.125688553E-1,8.772320747E-1,1.133341502E0
4.401679230E-1,5.121884942E-1,-2.044200897E-2,7.471573353E-1,9.060899586E-1
4.451733400E-1,3.519827127E-1,-2.076625824E-2,6.424934864E-1,7.328853578E-1
4.501787560E-1,3.602466583E-1,-8.191108704E-3,4.307456017E-1,5.615928440E-1
4.551841730E-1,3.785057068E-1,-1.526832581E-3,2.275419235E-1,4.416381191E-1
4.601895900E-1,3.541190624E-1,-3.353881836E-2,3.366279602E-2,3.572930821E-1
4.651950060E-1,2.917910814E-1,-5.618858337E-2,-1.644890308E-1,3.396407416E-1
4.702004230E-1,2.058855295E-1,-6.929111481E-2,-3.138749599E-1,3.817166493E-1
4.752058400E-1,1.155738831E-1,-4.902172089E-2,-4.283993244E-1,4.464150902E-1
4.802112560E-1,3.039872646E-2,-7.604598999E-2,-4.793066978E-1,4.862530059E-1
4.852166730E-1,-3.523302078E-2,-5.020999908E-2,-5.187008381E-1,5.223150095E-1
4.902220900E-1,-7.198977470E-2,-5.247974396E-2,-5.415244102E-1,5.488035514E-1
4.952275060E-1,-8.003699780E-2,-4.931449890E-2,-5.523755550E-1,5.603182976E-1
5.002329230E-1,-6.935584545E-2,-6.437778473E-2,-5.701310635E-1,5.779309318E-1
5.052383920E-1,-5.446159840E-2,-8.329105377E-2,-6.043229103E-1,6.124619541E-1
5.102438610E-1,-6.378507614E-2,-9.184265137E-2,-6.075212955E-1,6.177262606E-1
5.152493290E-1,-6.850373745E-2,-9.972667694E-2,-5.945668221E-1,6.067519081E-1
5.202547980E-1,-8.252489567E-2,-1.071186066E-1,-5.328624249E-1,5.497518696E-1
5.252602670E-1,-5.818462372E-2,-1.379203796E-1,-4.661347866E-1,4.895805560E-1
5.302657360E-1,4.105210304E-3,-1.779003143E-1,-3.667399883E-1,4.076316887E-1
5.352712040E-1,5.638641119E-2,-1.702060699E-1,-2.924177647E-1,3.430126568E-1
5.402766730E-1,7.967579365E-2,-1.770553589E-1,-2.291209698E-1,3.003219123E-1
5.452821420E-1,8.843934536E-2,-1.794376373E-1,-1.676218510E-1,2.609913187E-1
5.502876110E-1,-1.259621382E-1,-1.145362854E-2,5.783319473E-2,1.390766849E-1
5.552930790E-1,-1.165984988E0,8.560047150E-1,1.196975231E0,1.877502269E0
5.602985480E-1,-2.525379896E0,4.064028740E0,3.153233528E-1,4.795133161E0
5.653040170E-1,-2.874811411E0,6.775659084E0,1.000545740E0,7.428000300E0
5.703094860E-1,-2.619601011E0,6.665812969E0,1.482573748E0,7.313918028E0
5.753149540E-1,-2.171146154E0,5.386593819E0,3.202104330E0,6.631948487E0
5.803204230E-1,-1.172648787E0,3.460996151E0,4.904025078E0,6.115804240E0
5.853258920E-1,1.104844213E-1,1.890385628E0,4.210582256E0,4.616791913E0
5.903313610E-1,1.775240898E0,-2.875432968E-1,2.941979647E0,3.448101744E0
5.953368290E-1,2.824997902E0,-2.014974594E0,1.519672394E0,3.788157856E0
6.003422980E-1,3.278639793E0,-2.914622307E0,5.199620724E-1,4.417562976E0
6.053477670E-1,3.188761473E0,-2.837728500E0,-2.960119247E-1,4.278846320E0
6.103532360E-1,2.761095047E0,-2.197003365E0,-9.530687332E-1,3.654970541E0
6.153587040E-1,2.036499500E0,-1.515258789E0,-1.480194211E0,2.938420377E0
6.203641730E-1,1.066763997E0,-1.016166687E0,-2.089416981E0,2.556607807E0
6.253696420E-1,1.053377390E-1,-1.044777870E0,-2.599703550E0,2.803768069E0
6.303751110E-1,-6.655555964E-1,-1.544560432E0,-2.926017523E0,3.374938477E0
6.353805790E-1,-1.112525702E0,-2.174448013E0,-3.106945276E0,3.952093945E0
6.403860480E-1,-1.231877565E0,-2.738594055E0,-3.090432167E0,4.309082352E0
6.453915170E-1,-1.053937793E0,-3.066424370E0,-2.962637901E0,4.392148292E0
6.503969860E-1,-6.570782065E-1,-3.102681160E0,-2.681053877E0,4.152882377E0
6.554024540E-1,-2.478292584E-1,-2.835247993E0,-2.303419590E0,3.661392131E0
6.604079230E-1,5.444550514E-2,-2.442048073E0,-1.948609471E0,3.124682700E0
6.654133920E-1,2.031572461E-1,-2.099735260E0,-1.530555010E0,2.606292322E0
6.704188610E-1,2.849820852E-1,-1.888612747E0,-1.068536520E0,2.188571039E0
6.754243290E-1,3.004083633E-1,-1.745880127E0,-6.768659353E-1,1.896441430E0
6.804297980E-1,3.876383901E-1,-1.528439522E0,-2.837054729E-1,1.602148460E0
6.854352670E-1,5.313975215E-1,-1.308005333E0,1.144289970E-2,1.411875425E0
6.904407360E-1,6.259333491E-1,-1.103451729E0,2.238321304E-1,1.288215470E0
6.954462040E-1,6.236200333E-1,-9.620428085E-1,3.068716526E-1,1.186843934E0
7.004516730E-1,5.484873056E-1,-9.258308411E-1,2.765402794E-1,1.111069573E0
7.054571420E-1,4.148311615E-1,-1.022305489E0,1.962375641E-1,1.120581361E0
7.104626110E-1,2.467334867E-1,-1.155246735E0,9.549760818E-2,1.185154937E0
7.154680790E-1,1.111734509E-1,-1.286289215E0,1.760601997E-2,1.291204652E0
7.204735480E-1,-1.580268145E-2,-1.348917007E0,3.652572632E-4,1.349009619E0
7.254790170E-1,-1.958387494E-1,-1.357953072E0,-3.765177727E-2,1.372518494E0
7.304844860E-1,-3.332476020E-1,-1.328083038E0,-7.735228539E-2,1.371437894E0
7.354899540E-1,-5.139539242E-1,-1.269104958E0,-1.140265465E-1,1.373964367E0
7.404954230E-1,-5.999928117E-1,-1.233564377E0,-1.288976669E-1,1.377783384E0
7.455008920E-1,-7.160470486E-1,-1.054797173E0,-1.885592937E-1,1.288749416E0
7.505063610E-1,-8.851211071E-1,-7.574892044E-1,-2.922184467E-1,1.201091541E0
7.555118290E-1,-1.115404248E0,-2.805700302E-1,-4.438254833E-1,1.232812735E0
7.605172980E-1,-1.281527758E0,1.702480316E-1,-5.712871552E-1,1.413388411E0
7.655227670E-1,-1.392646551E0,5.570068359E-1,-6.558431387E-1,1.637025123E0
7.705282360E-1,-1.415087700E0,1.022508621E0,-6.227008104E-1,1.853578533E0
7.755337040E-1,-1.438661337E0,2.021672726E0,-2.917242050E-1,2.498401502E0
7.805391730E-1,-1.334657907E0,2.598497868E0,-1.883332729E-1,2.927280704E0
7.855446420E-1,-1.199531198E0,3.026904583E0,-1.307821274E-1,3.258547286E0
7.905501110E-1,-1.043421745E0,3.274672508E0,-4.733657837E-2,3.437215403E0
7.955555790E-1,-7.104891539E-1,3.338476181E0,2.440547943E-2,3.413328826E0
8.005610480E-1,-2.604297996E-1,3.082108498E0,-2.779078484E-2,3.093216578E0
8.055665170E-1,1.989619136E-1,2.756222248E0,-2.774620056E-2,2.763533386E0
8.105719860E-1,5.427876115E-1,2.628398418E0,2.217464447E-1,2.693003550E0
8.155774540E-1,7.338575125E-1,2.392765045E0,5.713057518E-1,2.567150497E0
8.205829230E-1,8.354530334E-1,1.945110321E0,9.531557560E-1,2.321624825E0
8.255883920E-1,8.339101076E-1,1.377085686E0,1.233746052E0,2.028275221E0
8.305938610E-1,8.299652934E-1,8.513393402E-1,1.452487230E0,1.877056263E0
8.355993290E-1,7.385334373E-1,3.628416061E-1,1.686282635E0,1.876335469E0
8.406047980E-1,5.990778208E-1,6.385803223E-3,1.887309790E0,1.980119505E0
8.456102670E-1,4.462939203E-1,-1.857748032E-1,2.074279785E0,2.129865528E0
8.506157360E-1,3.622862995E-1,-2.673139572E-1,2.160754681E0,2.207163090E0
8.556212040E-1,3.854869008E-1,-2.392311096E-1,2.165296078E0,2.212315253E0
8.606266730E-1,5.341470242E-1,-2.025041580E-1,2.058255434E0,2.136056275E0
8.656321420E-1,7.260398865E-1,-1.431951523E-1,1.834131241E0,1.977795787E0
8.706376110E-1,9.077274203E-1,-1.140499115E-1,1.577980995E0,1.824006709E0
8.756430790E-1,1.012042999E0,-1.055755615E-1,1.274726868E0,1.631044395E0
8.806485480E-1,1.024897575E0,-1.035060883E-1,9.907519817E-1,1.429236873E0
8.856540170E-1,9.756484032E-1,-1.126279831E-1,6.973426342E-1,1.204517172E0
8.906594860E-1,9.030579925E-1,-1.423234940E-1,4.474816322E-1,1.017845531E0
8.956649540E-1,7.932748795E-1,-1.923437119E-1,2.178950310E-1,8.448428152E-1
9.006704230E-1,7.036868334E-1,-2.813854218E-1,4.762887955E-3,7.578757155E-1
9.056758920E-1,5.960847139E-1,-4.041481018E-1,-1.430654526E-1,7.342481856E-1
9.106813610E-1,4.609934092E-1,-5.172367096E-1,-2.769575119E-1,7.461596347E-1
9.156868290E-1,3.034422696E-1,-6.155653000E-1,-3.860316277E-1,7.874123869E-1
9.206922980E-1,1.189554334E-1,-6.893167496E-1,-4.500350952E-1,8.317689362E-1
9.256977670E-1,-6.796133518E-2,-7.334718704E-1,-5.534775257E-1,9.213778265E-1
9.307032360E-1,-2.378554940E-1,-7.431602478E-1,-6.238036156E-1,9.989961665E-1
9.357087040E-1,-3.714680076E-1,-7.563390732E-1,-7.268037796E-1,1.112780755E0
9.407141730E-1,-4.689711332E-1,-7.585058212E-1,-8.379367590E-1,1.223684198E0
9.457196420E-1,-5.354128480E-1,-7.590970993E-1,-9.520318508E-1,1.330135320E0
9.507251110E-1,-5.952228308E-1,-7.009277344E-1,-1.078647256E0,1.417416597E0
9.557305790E-1,-6.154042482E-1,-6.082086563E-1,-1.180001497E0,1.463230567E0
9.607360480E-1,-5.967394114E-1,-5.003185272E-1,-1.233049750E0,1.458364920E0
9.657415170E-1,-4.927098155E-1,-3.585042953E-1,-1.205702782E0,1.350928381E0
9.707469860E-1,-4.190735221E-1,-1.974649429E-1,-1.185183764E0,1.272507593E0
9.757524540E-1,-3.715221882E-1,-6.044483185E-2,-1.105906248E0,1.168208433E0
9.807579230E-1,-3.741156459E-1,7.142353058E-2,-1.007485747E0,1.077075377E0
9.857633920E-1,-4.027726650E-1,1.454982758E-1,-9.005081654E-1,9.971512041E-1
9.907688610E-1,-4.000205994E-1,1.475572586E-1,-7.810382843E-1,8.898373031E-1
9.957743290E-1,-3.802540302E-1,9.216499329E-2,-6.447100639E-1,7.541475850E-1
1.000779798E0,-4.100861549E-1,6.531620026E-2,-4.917356968E-1,6.436154566E-1
1.005785267E0,-4.979463220E-1,1.144428253E-1,-3.507480621E-1,6.197353491E-1
1.010790736E0,-5.474261045E-1,2.296552658E-1,-2.165930271E-1,6.319251700E-1
1.015796204E0,-4.628797174E-1,2.534761429E-1,-1.269130707E-1,5.427842253E-1
1.020801673E0,-3.118773699E-1,2.007837296E-1,-2.392482758E-2,3.716907280E-1
1.025807142E0,-7.640182972E-2,5.393981934E-3,7.353091240E-2,1.061749957E-1
1.030812611E0,2.463753819E-1,-4.891042709E-1,1.463923454E-1,5.668814122E-1
1.035818079E0,3.539919853E-1,-9.809627533E-1,2.327663898E-1,1.068540332E0
1.040823548E0,5.247193575E-2,-1.270266533E0,3.273444176E-1,1.312815576E0
1.045829017E0,-5.203098059E-1,-1.334496498E0,3.202025890E-1,1.467696459E0
1.050834486E0,-8.784766197E-1,-1.060549736E0,3.027541637E-1,1.410016666E0
1.055839954E0,-9.205378890E-1,-2.212104797E-1,2.093935013E-1,9.696234938E-1
1.060845423E0,-5.905380249E-1,6.188783646E-1,2.748274803E-2,8.558626586E-1
1.065850892E0,-1.063045263E-1,1.050263405E0,-1.989154816E-1,1.074207262E0
1.070856361E0,4.806404710E-1,7.654829025E-1,-2.834677696E-1,9.472767879E-1
1.075861829E0,5.329690576E-1,4.352016449E-1,-2.226576805E-1,7.232101567E-1
1.080867298E0,3.394977748E-1,2.738275528E-1,-1.037268639E-1,4.483297113E-1
1.085872767E0,2.081471086E-1,1.849393845E-1,-3.749608994E-3,2.784633805E-1
1.090878236E0,1.210905313E-1,2.060108185E-1,3.378438950E-2,2.413395100E-1
1.095883704E0,1.363871694E-1,3.219690323E-1,-1.054835320E-2,3.498239350E-1
1.100889173E0,2.729116082E-1,4.368629456E-1,-5.120587349E-2,5.176408220E-1
1.105894642E0,4.391516745E-1,5.173072815E-1,-1.170499325E-1,6.885940048E-1
1.110900111E0,5.390123129E-1,6.444749832E-1,-1.557993889E-1,8.544915020E-1
1.115905579E0,5.723711252E-1,8.134260178E-1,-1.246817112E-1,1.002405168E0
1.120911048E0,4.966457784E-1,9.811334610E-1,-2.858066559E-2,1.100043977E0
1.125916517E0,3.982509971E-1,1.052298546E0,7.513785362E-2,1.127644351E0
1.130921986E0,3.013066053E-1,1.046474457E0,2.009811401E-1,1.107378832E0
1.135927454E0,2.486200333E-1,8.877792358E-1,3.013379574E-1,9.699321920E-1
1.140932923E0,2.110231519E-1,6.723203659E-1,3.908615112E-1,8.058028084E-1
1.145938392E0,1.357026696E-1,4.385185242E-1,4.744422436E-1,6.601584303E-1
1.150943861E0,3.209519386E-2,2.627420425E-1,5.235111713E-1,5.866237541E-1
1.155949329E0,-8.048880100E-2,1.352453232E-1,5.622861385E-1,5.838967769E-1
1.160954798E0,-1.543626189E-1,3.374099731E-3,5.812938213E-1,6.014496732E-1
1.165960267E0,-1.471847296E-1,-1.900110245E-1,5.568761826E-1,6.065299801E-1
1.170965736E0,-4.110991955E-2,-5.208559036E-1,5.368974209E-1,7.491593545E-1
1.175971204E0,8.096909523E-2,-9.598922729E-1,5.021200180E-1,1.086311964E0
1.180976673E0,1.417425275E-1,-1.368380547E0,4.714636803E-1,1.454246976E0
1.185982142E0,8.870369196E-2,-1.627301216E0,4.018118382E-1,1.678520285E0
1.190987611E0,-1.976120472E-2,-1.703969002E0,2.886431217E-1,1.728356363E0
1.195993079E0,-1.296247244E-1,-1.589609146E0,1.803016663E-1,1.605044703E0
1.200998548E0,-2.397965789E-1,-1.351710320E0,5.350160599E-2,1.373857929E0
1.206004017E0,-3.591932058E-1,-1.000012398E0,-7.614278793E-2,1.065289763E0
1.211009486E0,-4.631099105E-1,-5.871925354E-1,-1.885180473E-1,7.712359671E-1
1.216014954E0,-5.508463383E-1,-1.609153748E-1,-2.778553963E-1,6.375963201E-1
1.221020423E0,-5.693543553E-1,2.646493912E-1,-3.339571953E-1,7.111477276E-1
1.226025892E0,-5.042456985E-1,6.418991089E-1,-3.184919357E-1,8.762050579E-1
1.231031361E0,-3.558958769E-1,9.232969284E-1,-2.796583176E-1,1.028274218E0
1.236036829E0,-1.871373057E-1,1.075600624E0,-1.994872093E-1,1.109834321E0
1.241042298E0,-7.485735416E-2,1.075179100E0,-8.889651299E-2,1.081441774E0
1.246047767E0,3.802359104E-2,9.079828262E-1,2.678847313E-2,9.091733765E-1
1.251053236E0,1.701571345E-1,6.411199570E-1,1.176724434E-1,6.736728090E-1
1.256058704E0,2.637054622E-1,3.748083115E-1,2.159264088E-1,5.066024626E-1
1.261064173E0,3.183863461E-1,5.164241791E-2,2.778594494E-1,4.257260602E-1
1.266069642E0,3.766945302E-1,-3.330659866E-1,3.649232388E-1,6.212895386E-1
1.271075111E0,3.808364570E-1,-7.075834274E-1,4.433155060E-1,9.177359923E-1
1.276080579E0,2.975344658E-1,-1.009959221E0,4.987299442E-1,1.165021864E0
1.281086048E0,1.750527620E-1,-1.144984245E0,5.317473412E-1,1.274514663E0
1.286091517E0,7.125377655E-2,-1.041575432E0,5.290331841E-1,1.170398475E0
1.291096986E0,-7.542318106E-2,-7.099304199E-1,4.537200928E-1,8.459029377E-1
1.296102454E0,-2.116457820E-1,-2.651367188E-1,3.358638287E-1,4.773844657E-1
1.301107923E0,-2.270128131E-1,2.115049362E-1,1.813466549E-1,3.593824767E-1
1.306113392E0,-1.646277905E-1,6.628656387E-1,5.458354950E-3,6.830248590E-1
1.311118861E0,-5.335021019E-2,9.889917374E-1,-1.341195107E-1,9.994693315E-1
1.316124329E0,1.063919663E-1,1.204676628E0,-2.614948750E-1,1.237313460E0
1.321129798E0,2.663658857E-1,1.291151047E0,-3.342926502E-1,1.360063744E0
1.326135267E0,4.023015499E-1,1.310747147E0,-3.486998081E-1,1.414742441E0
1.331140736E0,4.854724407E-1,1.258750916E0,-3.581635952E-1,1.395857628E0
1.336146204E0,5.158801079E-1,1.139921188E0,-3.160531521E-1,1.290520126E0
1.341151673E0,4.939247370E-1,9.542961121E-1,-2.375743389E-1,1.100492745E0
1.346157142E0,4.484597147E-1,7.019701004E-1,-1.472387314E-1,8.459062487E-1
1.351162611E0,3.368097246E-1,4.593772888E-1,-5.982732773E-2,5.727543917E-1
1.356168079E0,2.404261827E-1,2.550611496E-1,2.459216118E-2,3.513768828E-1
1.361173548E0,1.592530012E-1,9.365653992E-2,6.317448616E-2,1.952538900E-1
1.366179017E0,5.033540726E-2,-6.782722473E-2,8.990645409E-2,1.233586484E-1
1.371184486E0,-1.002907753E-2,-2.196846008E-1,1.244938374E-1,2.527065923E-1
1.376189954E0,-6.985455751E-2,-3.426837921E-1,1.436994076E-1,3.781023146E-1
1.381195423E0,-7.210111618E-2,-4.844608307E-1,1.386225224E-1,5.090354321E-1
1.386200892E0,-3.661340475E-2,-7.830924988E-1,1.337754726E-1,7.952800011E-1
1.391206361E0,-1.700621843E-2,-1.180552483E0,1.152689457E-1,1.186288458E0
1.396211829E0,-2.995826602E-1,-9.893789291E-1,1.024808884E-1,1.038808340E0
1.401217298E0,-5.520321727E-1,-9.728813171E-2,-4.539966583E-3,5.605578574E-1
1.406222767E0,-4.965798855E-1,5.294284821E-1,-2.099542618E-1,7.556235123E-1
1.411228236E0,-2.213306427E-1,3.192548752E-1,-4.038286209E-1,5.603467532E-1
1.416233704E0,-6.350213289E-2,-3.859157562E-1,-4.624373913E-1,6.056499258E-1
1.421239173E0,-2.143879533E-1,-7.541027069E-1,-3.864564896E-1,8.740604701E-1
1.426244642E0,-3.857473135E-1,-7.627525330E-1,-3.386631012E-1,9.193938832E-1
1.431250111E0,-3.288316727E-1,-1.095510483E0,-3.476052284E-1,1.195450911E0
1.436255579E0,-4.313738942E-1,-1.364841461E0,-3.658075333E-1,1.477393246E0
1.441261048E0,-6.443676949E-1,-1.112888336E0,-4.215776920E-1,1.353313683E0
1.446266517E0,-6.705074310E-1,-7.565498352E-1,-4.952132702E-1,1.125692698E0
1.451271986E0,-6.053190231E-1,-4.057950974E-1,-5.717256069E-1,9.262564172E-1
1.456277454E0,-4.966908693E-1,-1.654462814E-1,-6.029260159E-1,7.984948793E-1
1.461282923E0,-3.637176752E-1,3.638362885E-2,-5.748739243E-1,6.812447024E-1
1.466288392E0,-2.064751983E-1,1.901483536E-1,-5.216393471E-1,5.923647629E-1
1.471293861E0,-9.661597013E-2,3.770122528E-1,-4.532642365E-1,5.974289518E-1
1.476299329E0,2.307963371E-2,5.395097733E-1,-3.606228828E-1,6.493476177E-1
1.481304798E0,1.380761862E-1,6.968393326E-1,-2.628607750E-1,7.574601479E-1
1.486310267E0,-2.386893630E-1,2.046592712E0,3.545627594E-1,2.090748453E0
1.491315736E0,-8.378603458E-1,6.329513550E0,2.799091339E-1,6.390860729E0
1.496321204E0,-1.094087124E0,4.173273087E0,8.750073910E-1,4.402144117E0
1.501326673E0,-9.527388215E-1,2.140167236E0,1.548858643E0,2.808378564E0
1.506332142E0,-6.811015010E-1,1.661023617E0,1.828067780E0,2.562173007E0
1.511337611E0,-3.499282002E-1,1.003380775E0,2.043829203E0,2.303575598E0
1.516343079E0,-3.291416168E-2,5.211849213E-1,2.149266005E0,2.211800493E0
1.521348548E0,2.606437206E-1,-1.920871735E-1,2.259085655E0,2.282170158E0
1.526354017E0,5.306900740E-1,-2.438316345E-1,2.281430244E0,2.354996769E0
1.531359486E0,8.410496116E-1,-3.611145020E-1,2.218249083E0,2.399666044E0
1.536364954E0,5.040820837E-1,-2.758569717E-1,1.991078615E0,2.072339226E0
1.541370423E0,6.938853264E-1,-6.894674301E-1,1.518044233E0,1.805907107E0
1.546375892E0,9.062378407E-1,-1.388689995E0,9.473323822E-1,1.909755369E0
1.551381361E0,1.195765495E0,-2.194921494E0,5.401291847E-1,2.557200622E0
1.556386829E0,1.322317362E0,-2.696849823E0,2.689597607E-1,3.015603012E0
1.561392298E0,1.385412693E0,-2.938596725E0,-1.721303463E-1,3.253359479E0
1.566397767E0,1.261074781E0,-3.116736412E0,-6.446030140E-1,3.423429350E0
1.571403236E0,1.202275395E0,-3.031204224E0,-1.158674002E0,3.460663320E0
1.576408704E0,1.100504756E0,-2.855024338E0,-1.437931776E0,3.380816836E0
1.581414173E0,1.045323968E0,-2.373373032E0,-1.788089275E0,3.150057936E0
1.586419642E0,1.197631955E0,-2.048772812E0,-2.483972073E0,3.435390748E0
1.591425111E0,1.036640644E0,-1.649285316E0,-3.058964491E0,3.626572712E0
1.596430579E0,5.442424417E-1,-9.772672653E-1,-3.311227798E0,3.495065189E0
1.601435996E0,-2.056243420E-1,-3.387250900E-1,-3.056336164E0,3.081916093E0
1.606441413E0,-8.676323891E-1,-7.765960693E-2,-2.519939899E0,2.666254690E0
1.611446829E0,-1.333364964E0,2.166099548E-1,-1.827034473E0,2.272187705E0
1.616452246E0,-1.392727017E0,3.900642395E-1,-1.155800581E0,1.851408555E0
1.621457663E0,-1.102697253E0,4.516668320E-1,-5.125629902E-1,1.297175770E0
1.626463079E0,-6.412518024E-1,5.105161667E-1,9.094953537E-2,8.246832414E-1
1.631468496E0,-2.250033617E-1,5.706415176E-1,6.290831566E-1,8.786375091E-1
1.636473913E0,7.203459740E-3,6.310968399E-1,1.152344227E0,1.313861609E0
1.641479329E0,6.636470556E-2,7.768239975E-1,1.596717358E0,1.776897892E0
1.646484746E0,1.131405830E-1,9.205923080E-1,1.979741335E0,2.186244895E0
1.651490163E0,3.083759546E-1,9.182491302E-1,2.233265877E0,2.434287097E0
1.656495579E0,6.581463814E-1,6.932830811E-1,2.380518436E0,2.565280904E0
1.661500996E0,1.032851577E0,3.320093155E-1,2.430561066E0,2.661698642E0
1.666506413E0,1.345562696E0,-1.462917328E-1,2.402025938E0,2.757112411E0
1.671511829E0,1.437858343E0,-6.508359909E-1,2.165422440E0,2.679566839E0
1.676517246E0,1.252616286E0,-1.095657349E0,1.702180624E0,2.380531761E0
1.681522663E0,9.906167984E-1,-1.427972794E0,1.037920475E0,2.024279342E0
1.686528079E0,6.892911196E-1,-1.575639725E0,2.754135132E-1,1.741727703E0
1.691533496E0,2.794641852E-1,-1.317565918E0,-4.902253151E-1,1.433318192E0
1.696538913E0,-1.784176826E-1,-7.385854721E-1,-1.187484741E0,1.409773521E0
1.701544329E0,-6.537239552E-1,-9.047222137E-2,-1.888927460E0,2.000896594E0
1.706549746E0,-1.040217280E0,4.619207382E-1,-2.394488573E0,2.651225808E0
1.711555163E0,-1.147763252E0,9.247179031E-1,-2.473432064E0,2.879293292E0
1.716560579E0,-1.050186157E0,1.489511490E0,-2.565640211E0,3.147069293E0
1.721565996E0,-8.460290432E-1,1.010503292E0,-2.536824226E0,2.858733846E0
1.726571413E0,-6.913669109E-1,6.789608002E-1,-2.220235109E0,2.422482180E0
1.731576829E0,-5.065594912E-1,2.110824585E-1,-1.871739388E0,1.950529840E0
1.736582246E0,-4.411743879E-1,-1.265430450E-2,-1.322022438E0,1.393749726E0
1.741587715E0,-4.096564054E-1,1.000051498E-1,-7.956092358E-1,9.004518069E-1
1.746593184E0,-3.567336798E-1,1.976537704E-1,-3.725621700E-1,5.523843787E-1
1.751598652E0,-2.568596005E-1,3.219156265E-1,-5.581045151E-2,4.155975595E-1
1.756604121E0,-9.537577629E-2,3.954629898E-1,1.906158924E-1,4.492459610E-1
1.761609590E0,8.028984070E-3,4.895114899E-1,4.125506878E-1,6.402218626E-1
1.766615059E0,1.344096661E-1,4.938793182E-1,5.702390671E-1,7.662606168E-1
1.771620527E0,2.117467523E-1,4.754419327E-1,7.005608082E-1,8.727354493E-1
1.776625996E0,2.732850015E-1,3.817100525E-1,7.931101322E-1,9.216349267E-1
1.781631465E0,3.281694353E-1,2.605943680E-1,8.804099560E-1,9.750519440E-1
1.786636934E0,3.189583123E-1,1.455974579E-1,9.617755413E-1,1.023691954E0
1.791642402E0,2.935592830E-1,2.719211578E-2,1.041556597E0,1.082477070E0
1.796647871E0,2.091093063E-1,-6.591892242E-2,1.066950798E0,1.089245616E0
1.801653340E0,1.327459812E-1,-1.958303452E-1,1.061903238E0,1.087938191E0
1.806658809E0,8.786225319E-2,-2.715444565E-1,9.647407532E-1,1.006072009E0
1.811664277E0,5.464494228E-2,-2.450904846E-1,8.102424145E-1,8.482618614E-1
1.816669746E0,-9.152102470E-2,2.220439911E-2,6.670324802E-1,6.736478776E-1
1.821675215E0,-1.209254265E-1,6.202983856E-2,5.315675735E-1,5.486663329E-1
1.826680684E0,1.317383051E-1,-2.391347885E-1,4.051103592E-1,4.885231123E-1
1.831686152E0,2.056072950E-1,-3.496847153E-1,3.037149906E-1,5.067509797E-1
1.836691621E0,1.145418882E-1,-3.029508591E-1,2.100672722E-1,3.860405756E-1
1.841697090E0,-3.570890427E-2,-1.560611725E-1,7.841324806E-2,1.782662415E-1
1.846702559E0,-1.825093031E-1,2.450466156E-2,-2.695941925E-2,1.861100063E-1
1.851708027E0,-3.013454676E-1,1.580305099E-1,-6.138253212E-2,3.457608251E-1
1.856713496E0,-3.679126501E-1,2.689905167E-1,-1.191208363E-1,4.710683494E-1
1.861718965E0,-3.773918748E-1,3.244419098E-1,-1.368553638E-1,5.161555682E-1
1.866724434E0,-3.202895522E-1,3.295602798E-1,-1.140499115E-1,4.735005360E-1
1.871729902E0,-1.826667190E-1,2.892885208E-1,-5.085086823E-2,3.458912969E-1
1.876735371E0,-4.128533602E-2,2.130727768E-1,1.846075058E-2,2.178193896E-1
1.881740840E0,8.949226141E-2,1.291875839E-1,1.126623154E-2,1.575602255E-1
1.886746309E0,1.381595731E-1,2.756404877E-2,-2.602100372E-2,1.432652681E-1
1.891751777E0,1.579064131E-1,-3.981685638E-2,-6.633949280E-2,1.758429573E-1
1.896757246E0,1.350024939E-1,-1.117353439E-1,-1.157653332E-1,2.100287428E-1
1.901762715E0,1.133273244E-1,-1.551599503E-1,-1.610050201E-1,2.506796943E-1
1.906768184E0,9.812897444E-2,-1.800107956E-1,-2.028574944E-1,2.884169641E-1
1.911773652E0,1.613601446E-1,-1.865253448E-1,-2.418456078E-1,3.454245193E-1
1.916779121E0,2.500433922E-1,-1.605091095E-1,-2.974255085E-1,4.204126607E-1
1.921784590E0,3.732988834E-1,-1.116657257E-1,-3.173248768E-1,5.025100677E-1
1.926790059E0,4.968929887E-1,-5.428504944E-2,-3.445160389E-1,6.070756212E-1
1.931795527E0,5.961972475E-1,6.918907166E-3,-3.359282017E-1,6.843586676E-1
1.936800996E0,6.705698967E-1,4.816627502E-2,-3.010506630E-1,7.366243806E-1
1.941806465E0,6.576391459E-1,8.401298523E-2,-2.729241848E-1,7.169623690E-1
1.946811934E0,6.196784973E-1,9.075260162E-2,-2.128343582E-1,6.614649944E-1
1.951817402E0,5.331091881E-1,6.385231018E-2,-1.441586018E-1,5.559354516E-1
1.956822871E0,4.459891319E-1,8.364677429E-3,-5.673646927E-2,4.496613176E-1
1.961828340E0,3.205170035E-1,-6.597518921E-2,1.161479950E-2,3.274427869E-1
1.966833809E0,1.620914340E-1,-1.447076797E-1,8.044219017E-2,2.317000033E-1
1.971839277E0,1.437425613E-2,-1.800317764E-1,1.404273510E-1,2.287747815E-1
1.976844746E0,-1.175386906E-1,-2.197933197E-1,1.917552948E-1,3.144750233E-1
1.981850215E0,-2.000214458E-1,-2.018985748E-1,1.867225170E-1,3.400542775E-1
1.986855684E0,-2.616569400E-1,-1.886148453E-1,1.779656410E-1,3.683906669E-1
1.991861152E0,-4.798767567E-1,-3.070831299E-3,-2.879898548E-1,5.596689093E-1
1.996866621E0,-2.125511169E0,1.715345860E0,-2.287811756E0,3.562904964E0
2.001872090E0,-5.129205227E0,5.773134708E0,8.372226715E0,1.138999608E1
2.006877559E0,-6.256347179E0,4.704559803E0,1.005709648E1,1.274440868E1
2.011883027E0,-3.639812946E0,5.506144524E0,2.119610405E1,2.220001560E1
2.016888496E0,-1.385451794E0,1.785201550E0,4.748002052E0,5.258321475E0
2.021893965E0,5.060510635E-1,-2.079710960E0,2.515349388E-1,2.155123009E0
2.026899434E0,3.666769743E0,-3.734522820E0,-6.845426559E-2,5.234171092E0
2.031904902E0,6.774297237E0,-4.233802795E0,-3.135557413E0,8.581836019E0
2.036910371E0,6.324057579E0,-4.011679649E0,-7.747240067E0,1.077529612E1
2.041915840E0,2.646749258E0,-3.171189308E0,-1.054077053E1,1.132119988E1
2.046921309E0,-5.696418881E-1,-2.106991768E0,-1.057980347E1,1.080259911E1
2.051926777E0,-1.596883774E0,-1.214379311E0,-9.361738205E0,9.574283112E0
2.056932246E0,-1.717221022E0,-7.386255264E-1,-8.124836922E0,8.337109254E0
2.061937715E0,-1.663746834E0,-7.514677048E-1,-7.012328148E0,7.246068126E0
2.066943184E0,-1.585706234E0,-1.109115601E0,-5.797342300E0,6.111773836E0
2.071948652E0,-1.504823565E0,-1.639092445E0,-4.566897869E0,5.080125407E0
2.076954121E0,-1.509248257E0,-2.097416878E0,-3.468775511E0,4.325435400E0
2.081959590E0,-1.620267391E0,-2.388666153E0,-2.501930952E0,3.819771053E0
2.086965059E0,-1.725768805E0,-2.446101189E0,-1.683790684E0,3.434652829E0
2.091970527E0,-1.705017447E0,-2.341565132E0,-9.742088318E-1,3.055993228E0
2.096975996E0,-1.447491646E0,-2.017632484E0,-3.041617870E-1,2.501716870E0
2.101981465E0,-1.082833767E0,-1.569952011E0,2.036123276E-1,1.918003197E0
2.106986934E0,-6.977882981E-1,-1.060608864E0,5.838730335E-1,1.397393069E0
2.111992402E0,-3.933542371E-1,-5.610790253E-1,8.617312908E-1,1.100962327E0
2.116997871E0,-1.553912163E-1,-1.092681885E-1,1.176839113E0,1.192072257E0
2.122003340E0,1.610594988E-2,2.041740417E-1,1.543409824E0,1.556939410E0
2.127008809E0,8.854132891E-2,4.508647919E-1,1.888647079E0,1.943735172E0
2.132014277E0,4.873377085E-2,5.683546066E-1,2.187281132E0,2.260442587E0
2.137019746E0,-1.640224457E-2,5.325088501E-1,2.385218859E0,2.443993395E0
2.142025215E0,5.555897951E-2,3.908987045E-1,2.456938505E0,2.488460451E0
2.147030684E0,2.301324010E-1,3.153371811E-1,2.377286434E0,2.409126242E0
2.152036152E0,4.339333177E-1,2.624320984E-1,2.154935598E0,2.213801293E0
2.157041621E0,5.939583778E-1,2.558546066E-1,1.832285643E0,1.943069430E0
2.162047090E0,6.380240917E-1,2.094707489E-1,1.476134300E0,1.621704415E0
2.167052559E0,5.853462815E-1,3.144397736E-1,1.072118759E0,1.261325206E0
2.172058027E0,3.454853296E-1,5.513820648E-1,7.353503704E-1,9.818973784E-1
2.177063496E0,1.437938213E-1,7.385349274E-1,4.756863117E-1,8.901617657E-1
2.182068965E0,-2.912133932E-2,8.044977188E-1,2.410476208E-1,8.403383768E-1
2.187074434E0,-1.016551256E-1,7.689046860E-1,-7.280230522E-2,7.790047216E-1
2.192079902E0,-2.363734245E-1,8.281488419E-1,-3.260886669E-1,9.208890915E-1
2.197085371E0,-2.753737569E-1,8.247013092E-1,-6.276290417E-1,1.072325123E0
2.202090840E0,-3.382289410E-1,8.928012848E-1,-8.567879200E-1,1.282801033E0
2.207096309E0,-2.815954685E-1,8.796787262E-1,-1.070228338E0,1.413689982E0
2.212101777E0,-1.777887344E-1,7.761716843E-1,-1.219730496E0,1.456637842E0
2.217107246E0,-1.734745502E-2,7.352733612E-1,-1.038226962E0,1.272337642E0
2.222112715E0,1.562356353E-1,6.563692093E-1,-1.081264853E0,1.274505314E0
2.227118184E0,3.140838146E-1,6.162261963E-1,-1.175704241E0,1.364061520E0
2.232123652E0,5.094066858E-1,5.242214203E-1,-1.191552162E0,1.397891206E0
2.237129121E0,7.190365791E-1,4.762372971E-1,-1.276219130E0,1.540308681E0
2.242134590E0,9.195910692E-1,4.295434952E-1,-1.380556464E0,1.713502699E0
2.247140059E0,1.019871712E0,3.130502701E-1,-1.593802094E0,1.917900909E0
2.252145527E0,1.038214803E0,1.561994553E-1,-1.794849634E0,2.079368523E0
2.257150996E0,9.934307933E-1,3.083419800E-2,-1.806897163E0,2.062215519E0
2.262156465E0,9.381396770E-1,-1.514434814E-3,-1.784762859E0,2.016305238E0
2.267161934E0,8.343890905E-1,-3.741073608E-2,-1.754670143E0,1.943314701E0
2.272167402E0,7.539968491E-1,-2.013397217E-2,-1.780551791E0,1.933722138E0
2.277172871E0,6.346734762E-1,1.498346329E-1,-1.740204811E0,1.858379300E0
2.282178340E0,4.720807076E-1,2.613143921E-1,-1.836204886E0,1.913842677E0
2.287183809E0,2.955744863E-1,5.864477158E-1,-1.782374263E0,1.899511309E0
2.292189277E0,-4.134035110E-2,1.200641632E0,-1.561066985E0,1.969817120E0
2.297194746E0,-2.738862038E-1,1.835037231E0,-1.393793583E0,2.320568001E0
2.302200215E0,-3.202735186E-1,2.245552540E0,-1.371940374E0,2.650905831E0
2.307205684E0,-2.431575060E-1,2.485077381E0,-1.280567288E0,2.806169586E0
2.312211152E0,-1.536701918E-1,2.706850052E0,-1.091434598E0,2.922649690E0
2.317216621E0,-4.860496521E-2,2.906237602E0,-9.003908634E-1,3.042907023E0
2.322222090E0,4.667377472E-2,3.102664948E0,-6.974453926E-1,3.180430520E0
2.327227559E0,5.471086502E-2,3.349093914E0,-4.720861912E-1,3.382645222E0
2.332233027E0,9.012472630E-2,3.693698883E0,-2.132332325E-1,3.700946138E0
2.337238496E0,1.956002712E-1,4.017170429E0,-7.279610634E-2,4.022588345E0
2.342243965E0,9.822332859E-2,4.415496349E0,2.371680737E-1,4.422952015E0
2.347249434E0,-2.439403534E-2,4.707571983E0,5.509891510E-1,4.739769835E0
2.352254902E0,1.244527102E-1,4.994429588E0,3.492364883E-1,5.008171474E0
2.357260371E0,5.571640730E-1,5.539710045E0,2.508499622E-1,5.573306459E0
2.362265840E0,8.181070089E-1,6.143006325E0,1.997027397E-1,6.200460222E0
2.367271309E0,9.315922260E-1,6.623107910E0,3.065612316E-1,6.695326897E0
2.372276777E0,9.843645096E-1,7.052123547E0,4.806613922E-1,7.136697792E0
2.377282246E0,9.107496142E-1,7.434809685E0,7.791247368E-1,7.530796456E0
2.382287715E0,1.013333797E0,7.727916718E0,1.110439062E0,7.872776962E0
2.387293184E0,1.292437315E0,7.983650684E0,1.368267298E0,8.202513509E0
2.392298652E0,1.718087912E0,8.211338997E0,1.331758022E0,8.494203531E0
2.397304121E0,2.092097282E0,8.315258980E0,1.119604111E0,8.647191238E0
2.402309590E0,2.416927814E0,8.353160858E0,8.270578384E-1,8.735036408E0
2.407315059E0,2.575874329E0,8.224957466E0,6.161844730E-1,8.640875950E0
2.412320527E0,2.710762024E0,7.921467304E0,6.009016037E-1,8.393983425E0
2.417325996E0,2.725308657E0,7.261333466E0,8.568315506E-1,7.803103952E0
2.422331465E0,2.695924044E0,6.364353180E0,9.860928059E-1,6.981788945E0
2.427336934E0,2.536402941E0,5.269143105E0,1.213632107E0,5.972446050E0
2.432342402E0,2.319085360E0,4.061836243E0,1.873750448E0,5.038612042E0
2.437347871E0,1.993937969E0,2.828004360E0,2.817282200E0,4.462115673E0
2.442353340E0,1.483438969E0,1.567006588E0,3.675708294E0,4.262268443E0
2.447358809E0,9.112119675E-1,2.353620529E-1,4.516291142E0,4.613305563E0
2.452364277E0,3.533281088E-1,-1.138652802E0,5.343824863E0,5.475201834E0
2.457369746E0,-3.289859295E-1,-2.708601952E0,6.047796726E0,6.634802297E0
2.462375215E0,-1.074016213E0,-4.283586502E0,6.503437996E0,7.861127776E0
2.467380684E0,-1.596495152E0,-5.916646004E0,6.782254696E0,9.140813720E0
2.472386152E0,-1.890918016E0,-7.483455658E0,6.698177814E0,1.021974880E1
2.477391621E0,-1.997007608E0,-8.979301453E0,6.452576637E0,1.123617547E1
2.482397038E0,-1.946743727E0,-1.025581360E1,6.122603416E0,1.210197489E1
2.487402454E0,-1.749316096E0,-1.123184013E1,5.722960949E0,1.272661077E1
2.492407871E0,-1.291193128E0,-1.173065758E1,5.306544304E0,1.293966458E1
2.497413288E0,-5.271098614E-1,-1.157568264E1,4.940554619E0,1.259695810E1
2.502418704E0,2.812396288E-1,-1.080555439E1,4.744640350E0,1.180469032E1
2.507424121E0,9.552707076E-1,-9.731209755E0,4.714230061E0,1.085508869E1
2.512429538E0,1.233012438E0,-8.634548187E0,4.969161034E0,1.003834167E1
2.517434954E0,7.683113813E-1,-7.496949196E0,5.685044765E0,9.440036208E0
2.522440371E0,1.566801310E0,-7.150774956E0,5.303069115E0,9.039413191E0
2.527445788E0,2.423940659E0,-7.101301193E0,5.138421535E0,9.094357747E0
2.532451204E0,2.680549860E0,-6.645071983E0,5.790005207E0,9.212300989E0
2.537456621E0,3.480256081E0,-6.074195862E0,6.970713139E0,9.879214514E0
2.542462038E0,4.257194042E0,-5.569035530E0,7.640588760E0,1.036901415E1
2.547467454E0,4.694957256E0,-5.501213074E0,6.564068317E0,9.766932057E0
2.552472871E0,4.742266655E0,-5.793308258E0,5.927982330E0,9.549475803E0
2.557478288E0,4.474530220E0,-5.962130547E0,5.974156857E0,9.552956165E0
2.562483704E0,4.267055035E0,-5.701857567E0,7.245394707E0,1.015946272E1
2.567489121E0,3.825901270E0,-5.492477417E0,8.467135429E0,1.079338738E1
2.572494538E0,3.403577328E0,-7.623277664E0,7.329971790E0,1.110977891E1
2.577499954E0,2.610840797E0,-9.593330383E0,7.523303986E0,1.246790200E1
2.582505371E0,5.803899765E-1,-1.156492329E1,8.165643692E0,1.416905219E1
2.587510788E0,-6.672651768E-1,-1.344631672E1,8.526542664E0,1.593582775E1
2.592516204E0,-1.248312831E0,-1.518530846E1,8.368635178E0,1.738349598E1
2.597521621E0,-1.960412741E0,-1.667240524E1,7.942765236E0,1.857147906E1
2.602527038E0,-2.834394455E0,-1.781736946E1,7.159847260E0,1.941019988E1
2.607532454E0,-3.530826807E0,-1.840987396E1,5.606643200E0,1.956590517E1
2.612537871E0,-5.058449745E0,-1.857231903E1,3.460938454E0,1.955753162E1
2.617543288E0,-6.425438881E0,-1.801492500E1,1.764071465E0,1.920769991E1
2.622548704E0,-7.491099358E0,-1.728648758E1,6.972312927E-3,1.883983203E1
2.627554121E0,-7.569790840E0,-1.635042763E1,-1.633925915E0,1.809165362E1
2.632559590E0,-7.190545559E0,-1.528540897E1,-3.373175621E0,1.722573617E1
2.637565059E0,-6.533573627E0,-1.420147419E1,-4.442340851E0,1.625127213E1
2.642570527E0,-5.508052826E0,-1.313039970E1,-4.874078751E0,1.505000618E1
2.647575996E0,-4.597199917E0,-1.204683495E1,-5.031048775E0,1.384095123E1
2.652581465E0,-3.366094112E0,-1.092079449E1,-5.064981937E0,1.249993535E1
2.657586934E0,-2.270627260E0,-9.803429604E0,-4.892941952E0,1.118945312E1
2.662592402E0,-1.330250621E0,-8.516710281E0,-4.580624580E0,9.761456975E0
2.667597871E0,-6.642125845E-1,-7.145893097E0,-4.293891430E0,8.363161491E0
2.672603340E0,-5.507504940E-2,-5.719091415E0,-3.763419390E0,6.846485623E0
2.677608809E0,4.428772926E-1,-4.274325371E0,-3.026609898E0,5.256078875E0
2.682614277E0,8.476439714E-1,-2.864518166E0,-2.198240757E0,3.708938804E0
2.687619746E0,1.315371752E0,-1.552230835E0,-1.488869667E0,2.521181528E0
2.692625215E0,1.656886220E0,-3.855180740E-1,-9.462954998E-1,1.946630757E0
2.697630684E0,1.907585621E0,7.262687683E-1,-5.561656952E-1,2.115577818E0
2.702636152E0,2.221727610E0,1.634942532E0,-3.992738724E-1,2.787208331E0
2.707641621E0,2.408669472E0,2.446177006E0,-3.168377876E-1,3.447587091E0
2.712647090E0,2.460045815E0,3.212936878E0,-2.313270569E-1,4.053184057E0
2.717652559E0,2.524746180E0,3.825697899E0,-3.232665062E-1,4.595085300E0
2.722658027E0,2.430525541E0,4.208718777E0,-5.193748474E-1,4.887792792E0
2.727663496E0,2.339014530E0,4.611328602E0,-7.182412148E-1,5.220269235E0
2.732668965E0,2.267133236E0,4.971571922E0,-9.388067722E-1,5.544166181E0
2.737674434E0,2.302914619E0,5.418623924E0,-1.095489979E0,5.988739372E0
2.742679902E0,2.370711803E0,6.066750526E0,-1.156797409E0,6.615430194E0
2.747685371E0,2.347789288E0,6.828893661E0,-1.063544273E0,7.299111562E0
2.752690840E0,2.227166653E0,7.632017612E0,-9.106893539E-1,8.002332112E0
2.757696309E0,2.156624556E0,8.197977066E0,-1.131207705E0,8.552045856E0
2.762701777E0,2.103765726E0,8.589272499E0,-1.619386911E0,8.990208355E0
2.767707246E0,2.017775774E0,8.968860626E0,-1.991560340E0,9.406284739E0
2.772712715E0,2.005185127E0,9.351235390E0,-2.237673759E0,9.822095223E0
2.777718184E0,1.994801402E0,9.611986160E0,-2.463330746E0,1.012114168E1
2.782723652E0,2.044579029E0,9.756248474E0,-2.744575977E0,1.033911916E1
2.787729121E0,1.939747334E0,9.750774384E0,-3.095579624E0,1.041262858E1
2.792734590E0,1.911883593E0,9.686789513E0,-3.361889839E0,1.043031607E1
2.797740059E0,2.038748503E0,9.684265137E0,-3.847761154E0,1.061822738E1
2.802745527E0,2.150167227E0,9.757877350E0,-4.210791588E0,1.084297723E1
2.807750996E0,2.291085005E0,9.893382072E0,-4.635475636E0,1.116314085E1
2.812756465E0,2.414911032E0,1.005741501E1,-5.057685852E0,1.151362576E1
2.817761934E0,2.589840412E0,1.019283104E1,-5.360418320E0,1.180403162E1
2.822767402E0,2.707241058E0,1.029484177E1,-5.475049973E0,1.197034224E1
2.827772871E0,2.882462263E0,1.047814941E1,-5.873490810E0,1.235306027E1
2.832778340E0,3.051918507E0,1.059916401E1,-6.167539597E0,1.263704985E1
2.837783809E0,3.184117794E0,1.061010647E1,-6.382134914E0,1.278454581E1
2.842789277E0,3.299893141E0,1.062583256E1,-6.356263161E0,1.281404283E1
2.847794746E0,3.448795319E0,1.067965984E1,-6.321868896E0,1.288081325E1
2.852800215E0,3.513669968E0,1.068069077E1,-6.218460560E0,1.284882421E1
2.857805684E0,3.640598774E0,1.073883724E1,-5.981753349E0,1.282021676E1
2.862811152E0,3.770231724E0,1.079662991E1,-5.667085648E0,1.276313928E1
2.867816621E0,3.824724674E0,1.084442425E1,-5.344446182E0,1.268042433E1
2.872822090E0,3.932049751E0,1.090611649E1,-4.993333817E0,1.262290674E1
2.877827559E0,3.943245888E0,1.086699581E1,-4.621740341E0,1.244995060E1
2.882833027E0,4.001999855E0,1.079903984E1,-4.145644188E0,1.224016463E1
2.887838496E0,3.984317780E0,1.073112869E1,-3.600111961E0,1.199969655E1
2.892843965E0,3.330322742E0,1.114664841E1,-3.326055050E0,1.209964720E1
2.897849434E0,1.931569815E0,1.246736717E1,-3.200850248E0,1.301582300E1
2.902854902E0,-5.743002892E-1,1.528346825E1,-2.048280478E0,1.543080281E1
2.907860371E0,-4.691257477E0,1.724332809E1,4.887949944E0,1.852653004E1
2.912865840E0,-6.198189735E0,1.724557877E1,9.668409348E0,2.071969310E1
2.917871309E0,-3.408571243E0,1.539777851E1,4.846299648E0,1.649838057E1
2.922876777E0,5.158288479E-1,1.372399139E1,4.985848427E0,1.461070511E1
2.927882246E0,2.112972021E0,1.373280144E1,5.861503601E0,1.508017608E1
2.932887715E0,3.903023005E0,1.358090210E1,1.635650635E0,1.422497253E1
2.937893184E0,3.492945194E0,1.294708157E1,2.018852234E0,1.356109699E1
2.942898652E0,1.793427229E0,1.270830441E1,3.552537918E0,1.331682799E1
2.947904121E0,-8.533308506E-1,1.255862236E1,5.495849133E0,1.373504739E1
2.952909590E0,-1.854239941E0,1.236497688E1,6.362977505E0,1.402919605E1
2.957915059E0,5.958120823E-1,1.195073986E1,4.931559086E0,1.294200333E1
2.962920527E0,5.281337738E0,1.121073532E1,2.269045353E0,1.259847934E1
2.967925996E0,8.966480255E0,1.048578262E1,1.718558073E-1,1.379778750E1
2.972931465E0,1.018736362E1,9.515630722E0,-3.401734829E-1,1.394436530E1
2.977936934E0,9.876939774E0,8.482132912E0,-6.548776627E-1,1.303569648E1
2.982942402E0,9.197876930E0,7.867370605E0,-1.589689732E0,1.220752119E1
2.987947871E0,8.248332977E0,7.670228004E0,-2.531314135E0,1.154447685E1
2.992953340E0,6.983714581E0,7.205975056E0,-2.512998581E0,1.034473333E1
2.997958809E0,5.952410221E0,6.842816353E0,-2.658087015E0,9.450965541E0
3.002964277E0,4.957335472E0,6.093651772E0,-2.228060246E0,8.165293586E0
3.007969746E0,3.885452271E0,5.070327759E0,-9.823691249E-1,6.462972383E0
3.012975215E0,2.797060251E0,4.153126240E0,4.545638561E-1,5.027785985E0
3.017980684E0,1.566234350E0,3.660278320E0,1.382299185E0,4.214436909E0
3.022986152E0,2.112925053E-1,3.559782028E0,1.961321115E0,4.069824705E0
3.027991621E0,-1.129519343E0,3.602490425E0,1.762491226E0,4.166548516E0
3.032997090E0,-2.153289795E0,4.043542385E0,-3.834192157E-1,4.597162413E0
3.038002559E0,-2.615406036E0,3.515295506E0,-1.529336929E0,4.640745917E0
3.043008027E0,-2.552187920E0,2.240785122E0,-2.034892321E0,3.959238297E0
3.048013496E0,-1.848014712E0,1.332903385E0,-4.083561897E0,4.676245030E0
3.053018965E0,1.608877182E-1,-5.590429306E-1,-5.831151485E0,5.860097397E0
3.058024434E0,2.370889187E0,-5.480774879E0,-6.315757275E0,8.691881198E0
3.063029902E0,4.476767540E0,-1.318422413E1,-5.264820099E0,1.488568252E1
3.068035371E0,7.477929592E0,-2.187713623E1,-2.757211685E0,2.328370110E1
3.073040840E0,8.197649002E0,-2.625197029E1,-8.712974787E-1,2.751593270E1
3.078046309E0,4.807070255E0,-2.477593613E1,4.453685284E-1,2.524189550E1
3.083051777E0,1.067698479E0,-2.230410957E1,-6.996661425E-1,2.234060914E1
3.088057246E0,-2.114172459E0,-2.173673439E1,-2.558895826E0,2.198870835E1
3.093062715E0,-3.358856440E0,-2.184457397E1,-3.662654400E0,2.240273122E1
3.098068184E0,-2.925112724E0,-2.276439285E1,-4.314848423E0,2.335362463E1
3.103073652E0,-2.369381666E0,-2.328992271E1,-5.074158669E0,2.395373782E1
3.108079121E0,-2.089525223E0,-2.302956390E1,-5.071965694E0,2.367386249E1
3.113084590E0,-1.968326092E0,-2.162115479E1,-4.401350975E0,2.215221281E1
3.118090059E0,-1.473886251E0,-1.930992699E1,-3.471878290E0,1.967484586E1
3.123095527E0,-9.873313904E-1,-1.722040939E1,-2.195394754E0,1.738784291E1
3.128100996E0,3.161715269E-1,-1.537623596E1,-2.480278015E-1,1.538148610E1
3.133106465E0,1.777165890E0,-1.367243576E1,2.231327534E0,1.396684076E1
3.138111934E0,2.852443695E0,-1.206172562E1,4.763370037E0,1.327822857E1
3.143117402E0,3.321043968E0,-1.036294746E1,6.721797943E0,1.279072245E1
3.148122871E0,3.403730631E0,-8.600576401E0,7.903381348E0,1.216629497E1
3.153128340E0,3.216212988E0,-7.190777779E0,8.571184158E0,1.164115582E1
3.158133809E0,2.693750381E0,-6.285835266E0,8.803244591E0,1.114742712E1
3.163139277E0,2.054289103E0,-5.741256714E0,8.773975372E0,1.068479182E1
3.168144746E0,1.285269976E0,-5.489264488E0,8.480731010E0,1.018365072E1
3.173150215E0,4.788592756E-1,-5.424068451E0,7.838719368E0,9.544388199E0
3.178155684E0,-3.264820874E-1,-5.459278107E0,6.910926342E0,8.813127192E0
3.183161152E0,-9.254975319E-1,-5.527893066E0,5.835939884E0,8.091498116E0
3.188166621E0,-1.357665300E0,-5.539226532E0,4.522041321E0,7.278402527E0
3.193172090E0,-1.676714420E0,-5.378829002E0,3.054566860E0,6.408865062E0
3.198177559E0,-1.940875292E0,-5.180946350E0,1.452370167E0,5.720015829E0
3.203183027E0,-2.140989780E0,-4.912131310E0,-2.025910616E-1,5.362267653E0
3.208188496E0,-2.324736357E0,-4.605714798E0,-1.956345797E0,5.517635074E0
3.213193965E0,-2.439585924E0,-4.261348724E0,-3.643455982E0,6.114363738E0
3.218199434E0,-2.480974197E0,-3.859463692E0,-5.050409794E0,6.823293343E0
3.223204902E0,-2.363323927E0,-3.256303787E0,-5.845032215E0,7.095999995E0
3.228210371E0,-2.111646175E0,-2.385189056E0,-6.018249035E0,6.809368389E0
3.233215840E0,-1.812888861E0,-1.394967079E0,-5.859208584E0,6.289898600E0
3.238221309E0,-1.477023005E0,-3.531713486E-1,-5.466686249E0,5.673710030E0
3.243226777E0,-1.061007500E0,6.630935669E-1,-4.835008144E0,4.994270092E0
3.248232246E0,-6.035905480E-1,1.610335350E0,-4.068559170E0,4.417088997E0
3.253237663E0,-2.964993715E-1,2.378333092E0,-3.299484730E0,4.078109814E0
3.258243079E0,-1.443436593E-1,3.048408985E0,-2.558343887E0,3.982305347E0
3.263248496E0,-7.958537340E-2,3.448522568E0,-2.036956310E0,4.005974631E0
3.268253913E0,6.578531861E-2,3.784656525E0,-1.543728352E0,4.087915109E0
3.273259329E0,1.820205003E-1,4.033058643E0,-1.082736254E0,4.179833882E0
3.278264746E0,3.557763100E-1,4.026686192E0,-7.336612344E-1,4.108410553E0
3.283270163E0,6.119989753E-1,3.503149033E0,-5.615196228E-1,3.600263904E0
3.288275579E0,1.052706838E0,2.769316673E0,-4.882768393E-1,3.002618989E0
3.293280996E0,1.597749710E0,2.121875286E0,-4.609190226E-1,2.695849627E0
3.298286413E0,2.171118736E0,1.947939396E0,-3.737070560E-1,2.940728043E0
3.303291829E0,2.662713051E0,2.108159542E0,-1.400580406E-1,3.399116606E0
3.308297246E0,2.957052231E0,2.798199177E0,2.074251175E-1,4.076407942E0
3.313302663E0,3.110029697E0,3.663740158E0,2.063101530E-1,4.810180926E0
3.318308079E0,3.143265009E0,4.599744797E0,4.043102264E-2,5.571301623E0
3.323313496E0,3.116477489E0,5.549220085E0,-2.118608952E-1,6.367979313E0
3.328318913E0,2.959823370E0,6.249601364E0,-4.014374018E-1,6.926703659E0
3.333324329E0,2.952631950E0,6.816305161E0,-4.758663177E-1,7.443554274E0
3.338329746E0,2.838551283E0,7.244888306E0,-5.174357891E-1,7.798302363E0
3.343335163E0,2.482345581E0,7.569059372E0,-7.373707294E-1,7.999775931E0
3.348340579E0,1.970887184E0,8.128344536E0,-8.251696825E-1,8.404480126E0
3.353345996E0,1.665522814E0,8.783401489E0,-9.874384999E-1,8.994283893E0
3.358351413E0,1.177349329E0,8.830938339E0,-1.057037473E0,8.971563499E0
3.363356829E0,6.486600637E-1,8.682787895E0,-1.082078457E0,8.773964856E0
3.368362246E0,8.252760768E-2,8.463278770E0,-1.110886812E0,8.536273652E0
3.373367663E0,-3.275367022E-1,8.296556473E0,-1.144240618E0,8.381492480E0
3.378373079E0,-5.664095879E-1,8.158495903E0,-1.072667003E0,8.248180995E0
3.383378496E0,-7.771620154E-1,7.886297703E0,-5.815981627E-1,7.945812021E0
3.388383913E0,-8.535051346E-1,7.628101826E0,-1.701593399E-2,7.675721335E0
3.393389329E0,-6.430810690E-1,7.661135197E0,-1.057124138E-2,7.688085426E0
3.398394746E0,-3.688583374E-1,7.659886837E0,-2.325057983E-3,7.668763149E0
3.403400163E0,-8.526539803E-2,7.495298386E0,2.273190022E-1,7.499229428E0
3.408405631E0,1.540001035E-1,7.143745422E0,4.868621826E-1,7.161972457E0
3.413411100E0,2.626878619E-1,6.830313206E0,4.707386494E-1,6.851552983E0
3.418416569E0,3.160254955E-1,6.679510117E0,6.074881554E-2,6.687257878E0
3.423422038E0,1.736910343E-1,6.318404198E0,1.333072186E-1,6.322196691E0
3.428427506E0,-1.441784501E-1,5.135231972E0,1.208909273E0,5.277580550E0
3.433432975E0,-3.775564432E-1,4.398096561E0,2.128713369E0,4.900736969E0
3.438438444E0,-5.656167269E-1,4.489129543E0,2.152951479E0,5.010729129E0
3.443443913E0,-7.059670687E-1,4.613926411E0,2.331867933E0,5.217692448E0
3.448449381E0,-8.276734948E-1,4.237135887E0,3.278141022E0,5.420753868E0
3.453454850E0,-7.749216557E-1,3.809079170E0,3.748444319E0,5.400039121E0
3.458460319E0,-8.577165604E-1,2.775281429E0,4.294257164E0,5.184448794E0
3.463465788E0,-9.022392035E-1,2.776079655E0,5.224400520E0,5.984564698E0
3.468471256E0,-5.936332941E-1,3.125184059E0,5.721655846E0,6.546489251E0
3.473476725E0,-1.670556366E-1,3.534552097E0,5.530754566E0,6.565836747E0
3.478482194E0,1.250098646E-2,3.205793381E0,5.614584446E0,6.465355827E0
3.483487663E0,2.923361957E-1,3.259750843E0,5.349739075E0,6.271454710E0
3.488493131E0,4.184951484E-1,2.951129913E0,4.946102619E0,5.774793249E0
3.493498600E0,4.640885293E-1,2.792922020E0,4.597625732E0,5.399440151E0
3.498504069E0,5.231961012E-1,2.914873123E0,4.048638344E0,5.016143132E0
3.503509538E0,5.178408027E-1,3.092092514E0,3.376391172E0,4.607516963E0
3.508515006E0,4.325085878E-1,3.491824627E0,2.599802017E0,4.374799816E0
3.513520475E0,2.525913715E-1,3.826786995E0,1.886060715E0,4.273795283E0
3.518525944E0,5.597037077E-2,4.192336559E0,1.468419790E0,4.442417719E0
3.523531413E0,-6.007190943E-1,2.522318363E0,4.223740101E-1,2.627042664E0
3.528536881E0,-2.110131741E0,-4.044953346E0,4.323065281E-1,4.582705802E0
3.533542350E0,-2.154380322E0,-8.570336342E0,2.718918324E0,9.245784793E0
3.538547819E0,-2.055898905E0,-1.419489384E1,4.545343399E0,1.504599209E1
3.543553288E0,-2.390688896E0,-2.214853287E1,3.722770452E0,2.258610018E1
3.548558756E0,-3.244989872E0,-2.922337151E1,3.289082527E0,2.958637297E1
3.553564225E0,-2.832778931E0,-3.080718613E1,4.190144062E0,3.121961981E1
3.558569694E0,-2.545444727E0,-2.980688286E1,3.872885704E0,3.016502608E1
3.563575163E0,-1.728123307E0,-2.479806709E1,2.468567610E0,2.498047973E1
3.568580631E0,-1.229164362E0,-1.722194481E1,4.357631207E-1,1.727125119E1
3.573586100E0,-1.133732080E0,-1.018855953E1,-1.083325386E0,1.030852500E1
3.578591569E0,-9.431219101E-1,-4.816735268E0,-2.015846252E0,5.306039360E0
3.583597038E0,-6.352152824E-1,-1.167074203E0,-2.801836491E0,3.100943142E0
3.588602506E0,-6.025162339E-1,1.374604702E0,-3.454877377E0,3.766794604E0
3.593607975E0,-6.362017989E-1,2.867795944E0,-4.163793087E0,5.095702030E0
3.598613444E0,-2.191949487E-1,3.453586102E0,-4.629442215E0,5.779882231E0
3.603618913E0,9.237847328E-1,3.551304817E0,-5.321135521E0,6.463716220E0
3.608624381E0,2.341393948E0,3.040623188E0,-6.394207954E0,7.457439933E0
3.613629850E0,3.502639055E0,2.003040791E0,-7.615060329E0,8.617992607E0
3.618635319E0,3.934904099E0,1.088583469E0,-8.211364746E0,9.170332340E0
3.623640788E0,3.012576103E0,4.132366180E-1,-7.943124771E0,8.505269567E0
3.628646256E0,1.520928144E0,-3.019237518E-2,-6.941344261E0,7.106081491E0
3.633651725E0,8.305845857E-1,-3.121271133E-1,-5.774279594E0,5.842054341E0
3.638657194E0,6.733818054E-1,-5.070676804E-1,-4.597116470E0,4.673760855E0
3.643662663E0,6.385840774E-1,-6.839771271E-1,-3.467707396E0,3.591741766E0
3.648668131E0,7.290483713E-1,-9.542579651E-1,-2.294085503E0,2.589391451E0
3.653673600E0,6.673871279E-1,-1.256608963E0,-1.231647015E0,1.881867698E0
3.658679069E0,4.460365772E-1,-1.476823807E0,-3.815665245E-1,1.589197973E0
3.663684538E0,1.869643927E-1,-1.510051727E0,2.948184013E-1,1.549880574E0
3.668690006E0,-1.553058624E-1,-1.413974762E0,6.979451180E-1,1.584478440E0
3.673695475E0,-4.587197304E-1,-1.183944702E0,9.486196041E-1,1.584937854E0
3.678700944E0,-7.838431597E-1,-8.248157501E-1,1.057450294E0,1.553361595E0
3.683706413E0,-1.081919789E0,-3.749237061E-1,1.101733446E0,1.589004343E0
3.688711881E0,-1.323971748E0,1.656160355E-1,1.163050413E0,1.770032803E0
3.693717350E0,-1.481783628E0,7.678956985E-1,1.274580240E0,2.099976503E0
3.698722819E0,-1.561030388E0,1.393435001E0,1.516995907E0,2.584521920E0
3.703728288E0,-1.491107464E0,1.898419380E0,1.735921144E0,2.973351616E0
3.708733756E0,-1.325853705E0,2.258802891E0,2.030619860E0,3.314135719E0
3.713739225E0,-1.119307995E0,2.483979702E0,2.370738983E0,3.611565986E0
3.718744694E0,-8.769005537E-1,2.473229885E0,2.582309246E0,3.681594992E0
3.723750163E0,-6.131201982E-1,2.479967594E0,3.042022228E0,3.972411721E0
3.728755631E0,-3.274018764E-1,2.589970112E0,4.083451748E0,4.846618960E0
3.733761100E0,-2.096012831E-1,2.721436977E0,4.767714977E0,5.493747175E0
3.738766569E0,-3.091323376E-2,2.027560234E0,3.826398849E0,4.330506239E0
3.743772038E0,1.154025793E-1,1.494137287E0,3.339659929E0,3.660477077E0
3.748777506E0,2.778877616E-1,1.211210251E0,3.678223848E0,3.882471192E0
3.753782975E0,5.452427864E-1,9.388790131E-1,3.989369154E0,4.134470915E0
3.758788444E0,8.958508968E-1,6.341323853E-1,3.791321039E0,3.946997331E0
3.763793913E0,1.158583641E0,2.640342712E-1,3.134740114E0,3.352405962E0
3.768799381E0,1.247394800E0,1.209259033E-3,2.255991459E0,2.577885318E0
3.773804850E0,1.406159401E0,-6.796360016E-2,1.429486990E0,2.006324093E0
3.778810319E0,1.710862517E0,-9.081745148E-2,4.195308685E-1,1.763889031E0
3.783815788E0,1.935968518E0,-1.947813034E-1,-6.923177242E-1,2.065240347E0
3.788821256E0,2.013930559E0,-3.203830719E-1,-1.876912951E0,2.771527347E0
3.793826725E0,1.939835548E0,-4.322938919E-1,-3.062665701E0,3.650994544E0
3.798832194E0,1.694989443E0,-3.326721191E-1,-4.197185993E0,4.538725615E0
3.803837663E0,1.332841396E0,-2.116317749E-1,-5.061432838E0,5.238258926E0
3.808843131E0,8.828414679E-1,-1.172733307E-1,-5.240041256E0,5.315185270E0
3.813848600E0,5.495351553E-1,-4.670524597E-2,-4.901640892E0,4.932570699E0
3.818854069E0,3.151661158E-1,-1.124362946E-1,-4.365367889E0,4.378174096E0
3.823859538E0,2.148433924E-1,-2.730855942E-1,-3.800017834E0,3.815870669E0
3.828865006E0,-4.954707623E-2,-6.344861984E-1,-3.308717489E0,3.369367756E0
3.833870475E0,-2.477704287E-1,-9.002132416E-1,-2.796618938E0,2.948364216E0
3.838875944E0,-3.112969398E-1,-1.037170410E0,-2.177968979E0,2.432319288E0
3.843881413E0,-4.392044544E-1,-1.165287018E0,-1.534276366E0,1.976056263E0
3.848886881E0,-5.239679813E-1,-1.198739052E0,-9.087245464E-1,1.592889846E0
3.853892350E0,-6.072540879E-1,-1.199919701E0,-3.634345531E-1,1.393071961E0
3.858897819E0,-7.074104548E-1,-1.192842484E0,1.351056099E-1,1.393397383E0
3.863903288E0,-7.376416326E-1,-1.086812973E0,6.200327873E-1,1.452486927E0
3.868908756E0,-7.456260324E-1,-9.489746094E-1,9.954516888E-1,1.564428028E0
3.873914225E0,-6.453784704E-1,-7.794589996E-1,1.356714249E0,1.692555244E0
3.878919694E0,-5.760861635E-1,-5.974731445E-1,1.626996279E0,1.826462788E0
3.883925163E0,-5.237731934E-1,-4.365510941E-1,1.839535236E0,1.961837175E0
3.888930631E0,-4.934822917E-1,-2.966737747E-1,1.999026299E0,2.080299556E0
3.893936100E0,-5.858250260E-1,-2.494754791E-1,2.062664747E0,2.158706751E0
3.898941569E0,-6.526042223E-1,-2.039699554E-1,2.049667358E0,2.160701806E0
3.903947038E0,-7.229452133E-1,-2.702016830E-1,1.993340254E0,2.137536923E0
3.908952506E0,-7.684525251E-1,-3.427572250E-1,1.917829752E0,2.094295289E0
3.913957975E0,-6.602607965E-1,-4.263629913E-1,1.765948057E0,1.932951696E0
3.918963444E0,-5.087677240E-1,-5.112638474E-1,1.605360508E0,1.759948204E0
3.923968913E0,-3.141611814E-1,-5.446434021E-1,1.403347492E0,1.537763918E0
3.928974381E0,-1.478688717E-1,-5.597705841E-1,1.204087496E0,1.336052023E0
3.933979850E0,-3.347909451E-2,-4.988327026E-1,9.900226593E-1,1.109098634E0
3.938985319E0,3.404390812E-2,-4.139995575E-1,6.911747456E-1,8.063976378E-1
3.943990788E0,1.027758121E-1,-2.809610367E-1,3.568184376E-1,4.656408155E-1
3.948996256E0,2.393879294E-1,-1.567554474E-1,-1.671648026E-2,2.866326774E-1
3.954001673E0,4.050253630E-1,-7.927036285E-2,-4.237895012E-1,5.915461744E-1
3.959007090E0,5.316194892E-1,3.797531128E-2,-8.112406731E-1,9.706558789E-1
3.964012506E0,5.180344582E-1,1.235828400E-1,-1.226153255E0,1.336818694E0
3.969017923E0,3.874785900E-1,1.825952530E-1,-1.577396154E0,1.634521126E0
3.974023340E0,1.396316290E-1,2.391414642E-1,-1.812131643E0,1.833168493E0
3.979028756E0,-4.858064651E-2,2.070903778E-1,-1.945082545E0,1.956678975E0
3.984034173E0,-1.387234926E-1,1.531867981E-1,-1.919801354E0,1.930892965E0
3.989039590E0,-1.976342201E-1,1.345090866E-1,-1.756470680E0,1.772665008E0
3.994045006E0,-2.106659412E-1,1.314620972E-1,-1.504146814E0,1.524506497E0
3.999050423E0,-1.583602428E-1,9.580612183E-2,-1.259568334E0,1.273094327E0
4.004055840E0,-2.601385117E-2,2.234745026E-2,-9.999721050E-1,1.000560013E0
4.009061256E0,1.243747473E-1,-6.051731110E-2,-7.693495750E-1,7.816842018E-1
4.014066673E0,2.404406071E-1,-1.148099899E-1,-5.493397713E-1,6.105466433E-1
4.019072090E0,3.125885129E-1,-1.120796204E-1,-3.501973152E-1,4.826091372E-1
4.024077506E0,3.169308305E-1,-7.642269135E-2,-1.914343834E-1,3.780644154E-1
4.029083184E0,2.632080317E-1,-6.054306030E-2,-1.114411354E-1,2.921695685E-1
4.034088861E0,1.756985188E-1,-7.399272919E-2,-5.746793747E-2,1.991166927E-1
4.039094434E0,9.307944775E-2,-7.852745056E-2,-4.387187958E-2,1.294414381E-1
4.044099902E0,2.044546604E-2,-6.453037262E-2,-1.769971848E-2,6.996760755E-2
4.049105371E0,-4.669594765E-2,-1.288414001E-2,2.117300034E-2,5.286594872E-2
4.054110840E0,-7.457578182E-2,5.732917786E-2,8.748555183E-2,1.284597355E-1
4.059116309E0,-5.838882923E-2,1.030941010E-1,1.048624516E-1,1.582206775E-1
4.064121725E0,-1.260542870E-2,1.292943954E-1,1.596388817E-1,2.058166905E-1
4.069127142E0,1.491451263E-2,1.312131882E-1,1.897258759E-1,2.311606615E-1
4.074132559E0,2.405130863E-2,1.232652664E-1,1.904335022E-1,2.281177549E-1
4.079137975E0,3.889799118E-4,1.342067719E-1,1.810398102E-1,2.253597608E-1
4.084143392E0,-4.186081886E-2,9.705352783E-2,1.758108139E-1,2.051369243E-1
4.089148809E0,-7.906806469E-2,5.491447449E-2,1.363754272E-1,1.669299719E-1
4.094154225E0,-1.211079359E-1,7.773399353E-3,1.103940010E-1,1.640560677E-1
4.099159642E0,-1.777578592E-1,-3.958225250E-2,6.905484200E-2,1.947644281E-1
4.104165059E0,-2.536263466E-1,-5.846786499E-2,4.110169411E-2,2.635036322E-1
4.109170475E0,-2.864230871E-1,-1.015319824E-1,-1.650524139E-2,3.043342756E-1
4.114175892E0,-3.239109516E-1,-1.304340363E-1,-7.481503487E-2,3.571115118E-1
4.119181309E0,-3.516675234E-1,-1.546754837E-1,-1.526572704E-1,4.133990741E-1
4.124186725E0,-4.079144001E-1,-1.789722443E-1,-2.401797771E-1,5.060746461E-1
4.129192142E0,-4.734965563E-1,-1.984844208E-1,-3.180527687E-1,6.039475290E-1
4.134197559E0,-5.100979805E-1,-2.753143311E-1,-4.147145748E-1,7.127314425E-1
4.139202975E0,-5.559184551E-1,-3.519468307E-1,-4.964463711E-1,8.242395888E-1
4.144208392E0,-5.869095325E-1,-4.092292786E-1,-5.440046787E-1,8.988172741E-1
4.149213809E0,-6.508638859E-1,-4.758586884E-1,-6.003739834E-1,1.005243358E0
4.154219225E0,-6.566796303E-1,-5.183639526E-1,-5.985701084E-1,1.028696019E0
4.159224642E0,-6.139694452E-1,-5.655288696E-1,-6.344947815E-1,1.048506085E0
4.164230059E0,-5.369714499E-1,-5.983085632E-1,-5.983314514E-1,1.002153681E0
4.169235475E0,-4.160934687E-1,-6.646652222E-1,-5.622687340E-1,9.649143804E-1
4.174240892E0,-2.751476765E-1,-6.450223923E-1,-5.358910561E-1,8.825754100E-1
4.179246309E0,-1.334830523E-1,-5.299663544E-1,-4.620168209E-1,7.156406953E-1
4.184251725E0,8.738875389E-3,-3.914270401E-1,-3.984053135E-1,5.585859732E-1
4.189257142E0,1.941292286E-1,-2.438173294E-1,-4.075284004E-1,5.130423420E-1
4.194262559E0,3.696827292E-1,-6.799507141E-2,-4.176287651E-1,5.618740388E-1
4.199267975E0,5.063669682E-1,1.312561035E-1,-4.096257687E-1,6.644011902E-1
4.204273392E0,6.949412823E-1,3.060255051E-1,-4.555251598E-1,8.854931772E-1
4.209278809E0,8.966169357E-1,4.896793365E-1,-5.607333183E-1,1.165388191E0
4.214284225E0,9.818602204E-1,7.395095825E-1,-5.630316734E-1,1.352009090E0
4.219289642E0,1.079814315E0,9.168300629E-1,-5.388283730E-1,1.515556774E0
4.224295111E0,1.133091688E0,1.074512482E0,-6.023213863E-1,1.673697971E0
4.229200319E0,1.175327659E0,1.222344398E0,-7.048752308E-1,1.836401379E0
4.234113548E0,1.225691319E0,1.360374928E0,-8.319413662E-1,2.011234842E0
4.239038184E0,1.245815516E0,1.512669086E0,-9.639294147E-1,2.183891934E0
4.243976986E0,1.197290659E0,1.631417751E0,-1.086456776E0,2.296827622E0
4.248932090E0,1.075178146E0,1.716809750E0,-1.208726287E0,2.358911401E0
4.253904850E0,8.890881538E-1,1.783287525E0,-1.354487658E0,2.409404274E0
4.258895840E0,6.439191103E-1,1.802310944E0,-1.451536298E0,2.402064567E0
4.263904954E0,3.639869690E-1,1.831457138E0,-1.518497705E0,2.406773160E0
4.268931309E0,7.387578487E-2,1.827668190E0,-1.526468039E0,2.382421734E0
4.273973392E0,-2.111262083E-1,1.833959579E0,-1.499273896E0,2.378193481E0
4.279029069E0,-4.756026268E-1,1.807192802E0,-1.403325915E0,2.336978243E0
4.284095788E0,-6.991157532E-1,1.775948524E0,-1.281730890E0,2.299041120E0
4.289170684E0,-8.379019499E-1,1.749671459E0,-1.125066996E0,2.242589048E0
4.294250631E0,-9.299473763E-1,1.766482353E0,-9.767118692E-1,2.222437424E0
4.299332454E0,-9.465606213E-1,1.807062149E0,-8.466222286E-1,2.208669241E0
4.304383652E0,-9.074413776E-1,1.923954010E0,-7.446348667E-1,2.253781261E0
4.309389069E0,-8.708660603E-1,2.126667023E0,-6.756851673E-1,2.395343559E0
4.314394486E0,-8.233580589E-1,2.515604496E0,-6.350355148E-1,2.722031333E0
4.319399902E0,-7.897694111E-1,3.076264381E0,-5.845103264E-1,3.229363806E0
4.324405319E0,-7.998145819E-1,3.703355789E0,-5.384676456E-1,3.826812626E0
4.329410736E0,-8.109095097E-1,4.315556049E0,-4.730074406E-1,4.416484381E0
4.334416152E0,-8.046650887E-1,4.831621170E0,-4.170577526E-1,4.915891191E0
4.339421569E0,-7.770297527E-1,5.189534664E0,-3.708000183E-1,5.260469363E0
4.344426986E0,-7.144129276E-1,5.470893860E0,-2.481486797E-1,5.522919810E0
4.349432402E0,-5.884695053E-1,5.666421413E0,-6.785607338E-2,5.697300452E0
4.354437819E0,-3.854212761E-1,5.829134941E0,1.133873463E-1,5.842963325E0
4.359443236E0,-1.676039696E-1,6.021382332E0,3.725304604E-1,6.035222881E0
4.364448652E0,1.260912418E-2,6.104386330E0,6.329684258E-1,6.137128032E0
4.369454069E0,1.370428801E-1,6.082833290E0,9.326591492E-1,6.155444312E0
4.374459486E0,2.636223435E-1,5.961516380E0,1.180561304E0,6.083000845E0
4.379464902E0,4.643729925E-1,5.644822598E0,1.343157768E0,5.820973907E0
4.384470319E0,7.581398487E-1,5.147439480E0,1.545201540E0,5.427573770E0
4.389475736E0,1.278778315E0,4.483891010E0,2.030504704E0,5.085617162E0
4.394481152E0,1.959166050E0,3.711581230E0,2.803009272E0,5.046882980E0
4.399486569E0,2.440479994E0,2.983355522E0,3.598369837E0,5.273008463E0
4.404491986E0,2.541676760E0,2.217442989E0,4.257612228E0,5.431798602E0
4.409497402E0,2.383907318E0,1.150474548E0,4.717905045E0,5.409735095E0
4.414502819E0,1.969254494E0,6.937503815E-2,4.806582928E0,5.194806599E0
4.419508236E0,1.161163211E0,-1.164673805E0,4.466740608E0,4.759888311E0
4.424513652E0,-1.544356346E-4,-2.273628235E0,4.179002285E0,4.757462083E0
4.429515788E0,-1.389825463E0,-3.061047554E0,3.964037895E0,5.197617087E0
4.434517923E0,-2.703033686E0,-3.421896935E0,4.046700478E0,5.949080138E0
4.439520475E0,-3.744893074E0,-3.610508919E0,4.339075089E0,6.774036567E0
4.444523548E0,-4.563423157E0,-3.838309288E0,4.819184303E0,7.666941140E0
4.449527194E0,-5.143148422E0,-4.187423706E0,5.230801105E0,8.446761107E0
4.454531465E0,-5.454029560E0,-4.796980858E0,5.496017456E0,9.108439585E0
4.459536413E0,-5.461947918E0,-5.580887794E0,5.714783669E0,9.676669676E0
4.464541986E0,-5.157710075E0,-6.414779663E0,6.011088371E0,1.019237729E1
4.469548184E0,-4.360997200E0,-7.236628532E0,6.302942753E0,1.054107093E1
4.474554954E0,-3.016288519E0,-7.893476486E0,6.623747349E0,1.073680569E1
4.479562194E0,-1.144575596E0,-8.318606377E0,6.873134613E0,1.085123241E1
4.484569850E0,7.929455042E-1,-8.545739174E0,7.051500320E0,1.110774853E1
4.489577819E0,2.402325153E0,-8.761401176E0,7.269750595E0,1.163540246E1
4.494585944E0,3.720494270E0,-9.237822533E0,7.179870605E0,1.227721404E1
4.499594121E0,4.873058796E0,-1.020269680E1,7.149353981E0,1.337740582E1
4.504601881E0,5.900901794E0,-1.152496624E1,7.185982704E0,1.480823542E1
4.509607350E0,6.913352013E0,-1.297323990E1,7.364796638E0,1.644200776E1
4.514612767E0,7.781666279E0,-1.441244888E1,7.573298454E0,1.804516174E1
4.519618184E0,8.463740349E0,-1.565042400E1,7.665328026E0,1.937338189E1
4.524623600E0,8.822084427E0,-1.651459122E1,7.766914368E0,2.027031957E1
4.529629017E0,8.692819595E0,-1.714380264E1,7.568293571E0,2.065802869E1
4.534634434E0,7.817432404E0,-1.735682106E1,7.122393608E0,2.032486107E1
4.539639850E0,6.234746456E0,-1.720291138E1,6.466040134E0,1.940674878E1
4.544645267E0,4.512015343E0,-1.705656052E1,5.200180531E0,1.839365153E1
4.549650684E0,2.666691542E0,-1.692286682E1,3.611249924E0,1.750816356E1
4.554656100E0,7.927245498E-1,-1.683519363E1,1.838165760E0,1.695379044E1
4.559661517E0,-1.126195431E0,-1.670198059E1,2.581214905E-2,1.673992647E1
4.564666934E0,-3.139362335E0,-1.648891449E1,-1.713824987E0,1.687237663E1
4.569672350E0,-5.223042965E0,-1.629096603E1,-3.106278896E0,1.738748748E1
4.574677767E0,-7.728127480E0,-1.628440094E1,-4.436677456E0,1.856312945E1
4.579683184E0,-9.760583878E0,-1.614770508E1,-5.386399269E0,1.962219850E1
4.584688600E0,-1.074076843E1,-1.573734188E1,-5.605226517E0,1.986067975E1
4.589694017E0,-1.115837288E1,-1.503060246E1,-5.200421810E0,1.942865622E1
4.594699434E0,-1.115285873E1,-1.402445507E1,-4.213359833E0,1.840717249E1
4.599704850E0,-1.048493290E1,-1.258719540E1,-2.916227341E0,1.663958196E1
4.604710267E0,-9.408077240E0,-1.101765060E1,-1.576358676E0,1.457345014E1
4.609715684E0,-8.022577286E0,-9.322278976E0,-4.127013683E-1,1.230597229E1
4.614721100E0,-6.543403625E0,-7.722429276E0,4.473729134E-1,1.013174158E1
4.619726517E0,-5.052644253E0,-6.013101578E0,1.092580318E0,7.929712245E0
4.624731934E0,-3.547985554E0,-4.213863373E0,1.640904903E0,5.747818274E0
4.629734017E0,-2.089740276E0,-2.291476250E0,2.057260752E0,3.721585633E0
4.634736100E0,-8.476329446E-1,-5.282707214E-1,2.378496647E0,2.579689490E0
4.639738600E0,-4.757708311E-2,9.469442368E-1,2.450662851E0,2.627682511E0
4.644741621E0,3.251711130E-1,2.383400440E0,2.402845144E0,3.399999809E0
4.649745215E0,4.970655441E-1,3.857846260E0,2.307228565E0,4.522538620E0
4.654749434E0,5.511109829E-1,5.260421276E0,2.293724060E0,5.765147473E0
4.659754329E0,8.474323750E-1,6.600901604E0,2.233832359E0,7.019975115E0
4.664759902E0,1.232986927E0,7.855658531E0,2.061506271E0,8.214708505E0
4.669766100E0,1.736195803E0,9.010726929E0,1.744461536E0,9.340809478E0
4.674772871E0,2.279503584E0,1.008078003E1,1.374147892E0,1.042624309E1
4.679780163E0,2.718572617E0,1.100381470E1,8.069953918E-1,1.136335411E1
4.684787871E0,3.076009035E0,1.169884872E1,1.720285416E-1,1.209770585E1
4.689795892E0,3.373904467E0,1.219984055E1,-4.977239370E-1,1.266755974E1
4.694804121E0,3.658016205E0,1.252646351E1,-1.260059476E0,1.311034403E1
4.699812402E0,3.835886478E0,1.284664822E1,-1.957118750E0,1.354919589E1
4.704820111E0,3.807296276E0,1.290229034E1,-2.760829687E0,1.373269025E1
4.709825527E0,3.759212494E0,1.278471947E1,-3.584459782E0,1.379960443E1
4.714830944E0,3.835904598E0,1.265198326E1,-4.441806316E0,1.394691679E1
4.719836361E0,4.028273582E0,1.230810356E1,-5.265067101E0,1.397989030E1
4.724841777E0,4.413212776E0,1.213129997E1,-6.129793167E0,1.429053009E1
4.729847194E0,4.903729916E0,1.202612782E1,-7.087437630E0,1.479547530E1
4.734852611E0,5.283832550E0,1.200252724E1,-8.045797348E0,1.538552571E1
4.739858027E0,5.566959381E0,1.201322460E1,-8.730749130E0,1.585984182E1
4.744863444E0,5.737989426E0,1.217362309E1,-9.121918678E0,1.625826012E1
4.749868861E0,5.810546875E0,1.226433945E1,-9.356349945E0,1.648386367E1
4.754874277E0,5.817042351E0,1.235821056E1,-9.474800110E0,1.662333261E1
4.759879694E0,5.727791786E0,1.237497330E1,-9.441267967E0,1.658568973E1
4.764885111E0,5.627274513E0,1.228236485E1,-9.253410339E0,1.637523458E1
4.769890527E0,5.633488655E0,1.215314293E1,-8.947568893E0,1.610881953E1
4.774895944E0,5.650053978E0,1.189677715E1,-8.001431465E0,1.541036411E1
4.779901361E0,5.371402264E0,1.166442108E1,-6.490075111E0,1.438859814E1
4.784906777E0,5.035399914E0,1.155522156E1,-6.012990952E0,1.396547377E1
4.789912194E0,4.671608448E0,1.160209846E1,-5.612489700E0,1.370885316E1
4.794917611E0,4.171950817E0,1.152184582E1,-4.973866940E0,1.322488023E1
4.799923027E0,3.475971937E0,1.134244823E1,-4.156373024E0,1.257016108E1
4.804928444E0,2.814837933E0,1.125430489E1,-3.555034399E0,1.213346449E1
4.809933861E0,2.313918352E0,1.126647282E1,-3.127151966E0,1.191917393E1
4.814939277E0,1.850339651E0,1.136872768E1,-2.600956440E0,1.180833182E1
4.819944694E0,1.683142424E0,1.166566658E1,-2.174427271E0,1.198536103E1
4.824950111E0,1.740167618E0,1.199894142E1,-1.963879347E0,1.228249163E1
4.829952194E0,2.014803171E0,1.228242493E1,-1.946543694E0,1.259787388E1
4.834954277E0,2.232475519E0,1.250192356E1,-1.893703938E0,1.284009947E1
4.839956777E0,2.277681351E0,1.264784622E1,-1.792564273E0,1.297571320E1
4.844959798E0,2.150484562E0,1.268671036E1,-1.577422261E0,1.296400650E1
4.849963392E0,1.961719751E0,1.263756943E1,-1.230740666E0,1.284800483E1
4.854967611E0,1.769156933E0,1.245274353E1,-8.726408482E-1,1.260802283E1
4.859972506E0,1.582551837E0,1.219475174E1,-6.270248890E-1,1.231298504E1
4.864978079E0,1.344278693E0,1.185919762E1,-4.304995537E-1,1.194290514E1
4.869984277E0,1.096763372E0,1.147049713E1,-2.669091225E-1,1.152590278E1
4.874991048E0,8.540035486E-1,1.098597431E1,-6.776785851E-2,1.101932603E1
4.879998340E0,6.253807545E-1,1.036298180E1,2.163348198E-1,1.038408848E1
4.885006048E0,5.118260384E-1,9.659408569E0,6.403411627E-1,9.694131039E0
4.890014069E0,4.141670167E-1,9.200904846E0,1.087670684E0,9.274222977E0
4.895022298E0,2.234359980E-1,8.925080299E0,1.344367504E0,9.028527343E0
4.900030579E0,-1.727783680E-2,8.673708916E0,1.510030985E0,8.804187552E0
4.905038288E0,-3.463113904E-1,8.370032310E0,1.669470191E0,8.541926198E0
4.910043756E0,-7.677578926E-1,7.999663353E0,1.841390491E0,8.244682218E0
4.915049173E0,-1.222821236E0,7.624831676E0,2.021466732E0,7.982460624E0
4.920054590E0,-1.605097055E0,7.245582581E0,2.378031015E0,7.792934941E0
4.925060006E0,-2.061501026E0,6.641936302E0,3.074471235E0,7.603780487E0
4.930065423E0,-2.298788548E0,6.124962807E0,3.393616199E0,7.369954483E0
4.935070840E0,-2.379099846E0,5.680075645E0,3.627559423E0,7.147206642E0
4.940076256E0,-2.551201820E0,5.287865639E0,4.105840683E0,7.164361901E0
4.945081673E0,-2.528232574E0,5.158440590E0,4.506381035E0,7.301297097E0
4.950087090E0,-2.273185015E0,5.214717865E0,4.688569546E0,7.371793331E0
4.955092506E0,-1.855101109E0,5.427557945E0,4.711544991E0,7.422832449E0
4.960097923E0,-1.315480471E0,5.552683830E0,4.813015461E0,7.465112485E0
4.965103340E0,-8.415087461E-1,5.819661617E0,4.827400684E0,7.607916645E0
4.970108756E0,-4.706950784E-1,6.472539902E0,4.460831165E0,7.874918496E0
4.975114173E0,8.010864258E-4,7.161955833E0,3.901196241E0,8.155546831E0
4.980119590E0,5.395969152E-1,7.390397549E0,3.056124449E0,8.015549726E0
4.985125006E0,1.018358469E0,7.387547016E0,2.361660957E0,7.822425926E0
4.990130423E0,1.605662823E0,7.554809093E0,2.001678228E0,7.978722283E0
4.995135840E0,2.195662737E0,7.174062729E0,1.879856348E0,7.734466419E0
5.000141256E0,2.576895714E0,5.949106216E0,1.772495151E0,6.721160268E0
5.005146673E0,2.696843386E0,4.703378201E0,1.762628794E0,5.701016664E0
5.010152090E0,2.484273434E0,3.776468277E0,1.937097192E0,4.917893113E0
5.015157506E0,2.156118631E0,2.134911537E0,2.097994566E0,3.688939688E0
5.020162923E0,2.034394503E0,-7.229022980E-1,2.455874681E0,3.269964706E0
5.025168340E0,1.843762875E0,-4.853291512E0,3.397501469E0,6.204588323E0
5.030173756E0,2.320562363E0,-1.081945896E1,5.280686855E0,1.226096879E1
5.035179173E0,3.338050842E0,-1.927055740E1,6.972571373E0,2.076327810E1
5.040184590E0,4.472799301E0,-2.894144440E1,8.597521782E0,3.052098488E1
5.045190006E0,6.244228363E0,-3.864977264E1,1.094966125E1,4.065329501E1
5.050195423E0,7.859491825E0,-4.646377182E1,1.357406235E1,4.903987023E1
5.055200840E0,8.570839882E0,-5.133429718E1,1.498257446E1,5.415853488E1
5.060206256E0,8.068044662E0,-5.161888123E1,1.481777382E1,5.430624885E1
5.065211673E0,5.732778072E0,-4.585272217E1,1.332792091E1,4.809335038E1
5.070217090E0,1.853530288E0,-3.493528748E1,1.016192436E1,3.643040752E1
5.075222506E0,-8.215270042E-1,-2.560487366E1,7.061639786E0,2.657350594E1
5.080227923E0,-2.383092642E0,-1.936541367E1,4.491539001E0,2.002179561E1
5.085233392E0,-3.478475571E0,-1.512732601E1,2.254890442E0,1.568503476E1
5.090238861E0,-4.153898716E0,-1.213268757E1,6.474022865E-1,1.284040934E1
5.095244329E0,-4.705833435E0,-1.009330368E1,-5.236752033E-1,1.114871666E1
5.100249798E0,-5.267978668E0,-9.022559166E0,-1.465225458E0,1.055012127E1
5.105255267E0,-5.730439663E0,-8.598907471E0,-2.412734509E0,1.061133527E1
5.110260736E0,-6.181608200E0,-8.616127968E0,-3.641026258E0,1.121191390E1
5.115266204E0,-7.150624752E0,-8.680600166E0,-6.761395454E0,1.312252727E1
5.120271673E0,-6.795762062E0,-8.426278114E0,-6.369809151E0,1.256021550E1
5.125277142E0,-6.197009563E0,-7.734541893E0,-5.305031300E0,1.124141552E1
5.130282611E0,-5.603315353E0,-6.821764946E0,-4.244402885E0,9.795334388E0
5.135288079E0,-5.123889923E0,-5.713104248E0,-3.434330463E0,8.407641395E0
5.140293548E0,-4.676844120E0,-4.615614891E0,-2.958941698E0,7.206393531E0
5.145299017E0,-4.014078617E0,-3.420827866E0,-2.611742735E0,5.885243457E0
5.150304486E0,-3.285696030E0,-2.174210548E0,-2.288501263E0,4.556339313E0
5.155309954E0,-2.669565678E0,-9.982690811E-1,-2.053028345E0,3.512555687E0
5.160315423E0,-2.247606277E0,3.716473579E-1,-2.074587107E0,3.081195774E0
5.165320892E0,-1.792060614E0,1.602629662E0,-2.196276426E0,3.256306683E0
5.170326361E0,-8.981939554E-1,1.810344696E0,-1.852170944E0,2.741283916E0
5.175331829E0,1.177549362E-3,1.289212704E0,-1.443051815E0,1.935063131E0
5.180337298E0,7.251777649E-1,6.726126671E-1,-1.183315754E0,1.542247310E0
5.185342767E0,1.652827263E0,-2.810792923E-1,-7.833747864E-1,1.850545753E0
5.190348236E0,2.631117344E0,-1.309821129E0,-2.140517235E-1,2.946901425E0
5.195353704E0,2.823901653E0,-3.133279800E0,-3.574471474E-1,4.233158551E0
5.200359173E0,2.588809013E0,-4.730979919E0,-5.880513191E-1,5.424933867E0
5.205364642E0,2.299739838E0,-5.738107681E0,-7.437663078E-1,6.226385099E0
5.210370111E0,1.606791735E0,-6.329842567E0,-7.900953293E-1,6.578216874E0
5.215375579E0,6.370711923E-1,-6.513406754E0,-8.543975353E-1,6.600024423E0
5.220381048E0,-2.650218010E-1,-6.401501656E0,-1.490217209E0,6.578009374E0
5.225386517E0,-9.136897326E-1,-6.160770416E0,-1.834260941E0,6.492644627E0
5.230391986E0,-1.211525798E0,-5.645030975E0,-1.725336075E0,6.025857121E0
5.235397454E0,-1.292698979E0,-4.830543518E0,-1.395629406E0,5.191628143E0
5.240402923E0,-8.518419266E-1,-3.539553642E0,-9.501957893E-1,3.762571819E0
5.245408392E0,-3.552342653E-1,-2.086472511E0,-5.112738609E-1,2.177374539E0
5.250413861E0,-1.390218735E-3,-6.414165497E-1,-1.515626907E-1,6.590814609E-1
5.255419329E0,6.627261639E-2,1.166083336E0,1.229345798E-1,1.174417011E0
5.260424798E0,6.175173521E-1,2.515006542E0,3.632175922E-1,2.615054991E0
5.265430267E0,1.354703307E0,3.512197971E0,7.390513420E-1,3.836268047E0
5.270435736E0,1.450405717E0,5.110686302E0,1.434336662E0,5.502736854E0
5.275441204E0,1.326831937E0,6.783963680E0,2.129253864E0,7.233005476E0
5.280446673E0,1.339494109E0,7.756341457E0,1.975309372E0,8.115227932E0
5.285452142E0,1.545765162E0,8.079827309E0,1.605147600E0,8.381497366E0
5.290457611E0,1.993840218E0,8.046010971E0,1.652118444E0,8.452407155E0
5.295463079E0,2.507567883E0,7.922907829E0,1.823250771E0,8.507914464E0
5.300468548E0,2.834795475E0,7.834851265E0,1.874336004E0,8.540146087E0
5.305474017E0,2.886403322E0,7.776780605E0,1.656910658E0,8.459018480E0
5.310479486E0,2.769594193E0,7.810719490E0,1.381918669E0,8.401648062E0
5.315484954E0,2.533787012E0,7.907901764E0,1.136227846E0,8.381288722E0
5.320490423E0,2.141349554E0,7.858148575E0,7.489669323E-1,8.179048135E0
5.325495892E0,1.749476910E0,7.571271420E0,2.599849701E-1,7.775114954E0
5.330501361E0,1.534081221E0,7.005057335E0,-3.339347839E-1,7.178840150E0
5.335506829E0,1.426609874E0,6.294460297E0,-1.026114941E0,6.535163198E0
5.340512298E0,1.281168222E0,5.660481930E0,-1.609136224E0,6.022604676E0
5.345517767E0,1.124324083E0,5.213809490E0,-2.024322271E0,5.704892173E0
5.350523236E0,9.402823448E-1,4.916765213E0,-2.313230515E0,5.514503283E0
5.355528704E0,8.338779211E-1,4.712510109E0,-2.421603680E0,5.363512683E0
5.360534173E0,8.716949821E-1,4.544120312E0,-2.405677319E0,5.214994239E0
5.365539642E0,1.005330563E0,4.330656528E0,-2.264792681E0,4.989444999E0
5.370545111E0,1.119651556E0,4.110649586E0,-2.070463896E0,4.736863980E0
5.375550579E0,1.057604790E0,3.888974190E0,-1.846187592E0,4.432951248E0
5.380556048E0,9.403200150E-1,3.722923279E0,-1.639543295E0,4.175219957E0
5.385561517E0,8.028013706E-1,3.564424992E0,-1.469471574E0,3.938141982E0
5.390566986E0,7.082185745E-1,3.389294147E0,-1.293136716E0,3.696091305E0
5.395572454E0,6.993063688E-1,3.149382114E0,-1.192835927E0,3.439548611E0
5.400577923E0,6.506090164E-1,2.863615036E0,-1.136134624E0,3.148711649E0
5.405583392E0,5.607682467E-1,2.522183895E0,-1.119577169E0,2.815905834E0
5.410588861E0,4.096786976E-1,2.148731232E0,-1.072715521E0,2.436308915E0
5.415594329E0,2.540903091E-1,1.752569199E0,-1.020590544E0,2.043933888E0
5.420599798E0,1.513779163E-1,1.352446079E0,-9.213151932E-1,1.643425495E0
5.425605267E0,5.401909351E-2,9.432506561E-1,-8.235538006E-1,1.253347807E0
5.430610736E0,1.111942530E-1,4.385595322E-1,-6.561970711E-1,7.970528347E-1
5.435616204E0,2.953635454E-1,-1.617412567E-1,-4.146654606E-1,5.341790920E-1
5.440621673E0,6.412984133E-1,-8.242664337E-1,-1.781058311E-2,1.044507552E0
5.445627142E0,1.063384533E0,-1.496458054E0,4.814050198E-1,1.897873590E0
5.450632611E0,1.489412069E0,-2.106516838E0,1.054109335E0,2.786917292E0
5.455638079E0,1.846994877E0,-2.663887978E0,1.690986156E0,3.656107686E0
5.460643548E0,1.996880293E0,-3.273562431E0,2.335263252E0,4.489676642E0
5.465649017E0,1.881215096E0,-4.040440559E0,2.954031944E0,5.347002420E0
5.470654486E0,1.466845036E0,-5.040792465E0,3.447145939E0,6.280448882E0
5.475659954E0,8.702134490E-1,-6.336822510E0,3.838119030E0,7.459473752E0
5.480665423E0,5.139195919E-2,-7.699238777E0,4.140286446E0,8.742018688E0
5.485670892E0,-1.147574902E0,-8.564511299E0,4.471661568E0,9.729518956E0
5.490676361E0,-2.482062340E0,-8.690211296E0,4.668038368E0,1.017206901E1
5.495681829E0,-3.818705082E0,-8.015611649E0,4.518441200E0,9.962371680E0
5.500687298E0,-5.104293346E0,-6.780647278E0,3.636714935E0,9.233454586E0
5.505692767E0,-5.772408009E0,-4.698404312E0,2.733244658E0,7.928828643E0
5.510698236E0,-5.306344032E0,-2.285822868E0,2.402295351E0,6.257259474E0
5.515703652E0,-4.227735519E0,-3.417806625E-1,2.245996475E0,4.799485578E0
5.520709069E0,-3.110603809E0,7.565946579E-1,1.847216606E0,3.696011462E0
5.525714486E0,-2.107800007E0,1.259363174E0,1.291824579E0,2.774459806E0
5.530719902E0,-1.232634306E0,1.425982952E0,7.569513321E-1,2.031204084E0
5.535725319E0,-4.438929558E-1,1.515671253E0,2.816727161E-1,1.604256782E0
5.540730736E0,3.065133095E-1,1.634142399E0,-1.902828217E-1,1.673493155E0
5.545736152E0,9.248778820E-1,1.685924053E0,-6.289339066E-1,2.023189776E0
5.550741569E0,1.351841688E0,1.709494114E0,-1.056878328E0,2.422155626E0
5.555746986E0,1.585182548E0,1.695533276E0,-1.587475777E0,2.812066169E0
5.560752402E0,1.617034674E0,1.701762676E0,-2.147588730E0,3.181655967E0
5.565757819E0,1.462905288E0,1.752301216E0,-2.788903952E0,3.603975123E0
5.570763236E0,1.190340161E0,1.746825218E0,-3.400852203E0,4.004260700E0
5.575768652E0,9.622329473E-1,1.627989292E0,-3.964455605E0,4.392396797E0
5.580774069E0,7.544413209E-1,1.496352673E0,-4.436917305E0,4.742835460E0
5.585779486E0,5.569827557E-1,1.313670635E0,-4.852015018E0,5.057470718E0
5.590784902E0,3.884726167E-1,1.075264931E0,-5.142959595E0,5.268504440E0
5.595790319E0,2.533020973E-1,7.429685593E-1,-5.309980392E0,5.367686280E0
5.600795736E0,1.465119123E-1,3.790235519E-1,-5.353410721E0,5.368810943E0
5.605801152E0,2.631480098E-1,-2.030963898E-1,-5.082592010E0,5.093450359E0
5.610806569E0,2.321560383E-1,-5.871610641E-1,-4.747816086E0,4.789615029E0
5.615811986E0,4.881048203E-2,-7.208003998E-1,-4.444795609E0,4.503125990E0
5.620817402E0,-3.238320351E-2,-8.626432419E-1,-3.986797333E0,4.079185581E0
5.625822819E0,-1.489639282E-2,-9.506578445E-1,-3.392992496E0,3.523687035E0
5.630828236E0,3.092944622E-2,-1.004154205E0,-2.806732416E0,2.981112067E0
5.635833652E0,2.396543622E-1,-1.128322601E0,-2.208383083E0,2.491485892E0
5.640839069E0,5.014255047E-1,-1.241539955E0,-1.606621623E0,2.091430620E0
5.645844486E0,7.777992487E-1,-1.319541931E0,-1.009845257E0,1.834652562E0
5.650849902E0,1.010617256E0,-1.409785271E0,-4.360084534E-1,1.788559510E0
5.655855319E0,1.194140196E0,-1.545484543E0,1.203656197E-1,1.956778261E0
5.660860736E0,1.303684235E0,-1.539970398E0,6.118526459E-1,2.108427156E0
5.665866152E0,1.439281940E0,-1.484414101E0,1.124495029E0,2.353615686E0
5.670871569E0,1.466734409E0,-1.302563667E0,1.576730490E0,2.516756041E0
5.675876986E0,1.396035910E0,-1.095350266E0,1.972956419E0,2.653538298E0
5.680882402E0,1.222691178E0,-7.723226547E-1,2.312570095E0,2.727533033E0
5.685887819E0,9.094128013E-1,-4.203081131E-1,2.623104334E0,2.807911484E0
5.690893288E0,5.671722889E-1,-1.702308655E-3,2.979568958E0,3.033070800E0
5.695898756E0,1.920300126E-1,5.449256897E-1,3.576039314E0,3.622413106E0
5.700904225E0,-1.572779417E-1,1.061013222E0,4.199985981E0,4.334785767E0
5.705909694E0,-4.751967192E-1,1.230197906E0,4.417849064E0,4.610486868E0
5.710915163E0,-6.994934678E-1,1.042471886E0,4.359696388E0,4.536848173E0
5.715920631E0,-8.586732745E-1,9.133329391E-1,4.455632687E0,4.628623930E0
5.720926100E0,-9.616941214E-1,9.278345108E-1,4.733505249E0,4.918516484E0
5.725931569E0,-1.032321215E0,9.709243774E-1,5.024097919E0,5.220147617E0
5.730937038E0,-1.096302390E0,7.560682297E-1,5.352012634E0,5.515211450E0
5.735942506E0,-1.011604190E0,4.560909271E-1,4.938649654E0,5.061780554E0
5.740947975E0,-7.118747234E-1,-1.198024750E-1,3.940108776E0,4.005692877E0
5.745953444E0,-4.746372104E-1,-4.877386093E-1,3.001031876E0,3.077232807E0
5.750958913E0,-3.371147513E-1,-5.423421860E-1,2.095667124E0,2.190799419E0
5.755964381E0,-2.884020805E-1,-3.983955383E-1,1.188519239E0,1.286263094E0
5.760969850E0,-2.515184879E-1,-2.325801849E-1,3.302390575E-1,4.758286743E-1
5.765975319E0,-2.169163823E-1,-1.065597534E-1,-4.671858549E-1,5.259946017E-1
5.770980788E0,-1.470968127E-1,-5.320453644E-2,-1.244797349E0,1.254587038E0
5.775986256E0,-9.526318312E-2,-7.188034058E-2,-2.010327816E0,2.013866874E0
5.780991725E0,-1.284487247E-1,-1.428546906E-1,-2.733416319E0,2.740158994E0
5.785997194E0,-2.033208013E-1,-2.750129700E-1,-3.416953802E0,3.434027485E0
5.791002663E0,-3.003302813E-1,-3.623695374E-1,-4.068405628E0,4.095538343E0
5.796008131E0,-3.525380492E-1,-3.613128662E-1,-4.600041389E0,4.627657166E0
5.801013600E0,-4.133729339E-1,-3.000698090E-1,-4.962893486E0,4.989111226E0
5.806019069E0,-5.168309808E-1,-2.596502304E-1,-5.151678085E0,5.184044714E0
5.811024538E0,-5.293022394E-1,-2.829294205E-1,-5.128232002E0,5.163232843E0
5.816030006E0,-4.374623895E-1,-3.078155518E-1,-4.855466366E0,4.884841593E0
5.821035475E0,-2.284603119E-1,-3.586359024E-1,-4.340272427E0,4.361052460E0
5.826040944E0,-4.222553968E-2,-3.737831116E-1,-3.704771996E0,3.723819591E0
5.831046413E0,4.460000992E-2,-3.490018845E-1,-3.103736877E0,3.123615546E0
5.836051881E0,2.348542213E-2,-2.176971436E-1,-2.542577744E0,2.551988478E0
5.841057350E0,1.544255018E-2,-6.149959564E-2,-1.940090179E0,1.941126111E0
5.846062819E0,-7.420331240E-2,2.839946747E-2,-1.349535227E0,1.351872032E0
5.851068288E0,-1.203705072E-1,4.698562622E-2,-8.051791191E-1,8.154815276E-1
5.856073756E0,-1.781898737E-2,1.797866821E-2,-3.269958496E-1,3.279741369E-1
5.861079225E0,1.134263277E-1,-2.531051636E-2,1.416184902E-1,1.831992108E-1
5.866084694E0,2.109621167E-1,-5.438709259E-2,5.806868076E-1,6.202097541E-1
5.871090163E0,2.748295665E-1,-2.460479736E-3,9.227352142E-1,9.627967699E-1
5.876095631E0,2.958620787E-1,6.337356567E-2,1.143891811E0,1.183232460E0
5.881101100E0,3.415303528E-1,1.430673599E-1,1.311267138E0,1.362546424E0
5.886106569E0,2.826245427E-1,2.461519241E-1,1.424798489E0,1.473267842E0
5.891112038E0,2.243433595E-1,3.438940048E-1,1.508335352E0,1.563223773E0
5.896117506E0,1.521009207E-1,4.266843796E-1,1.571150780E0,1.635148012E0
5.901122975E0,2.765518427E-2,4.179048538E-1,1.622311354E0,1.675500941E0
5.906128444E0,-1.296768188E-1,3.893384933E-1,1.656750679E0,1.706816731E0
5.911133913E0,-2.956739664E-1,3.312940598E-1,1.673901320E0,1.731798047E0
5.916139381E0,-4.891054630E-1,2.245492935E-1,1.601571083E0,1.689578786E0
5.921144850E0,-6.954029799E-1,5.954074860E-2,1.473107338E0,1.630084548E0
5.926150319E0,-8.666980267E-1,-1.014719009E-1,1.269478321E0,1.540466560E0
5.931155788E0,-9.553906322E-1,-1.962413788E-1,1.077103376E0,1.453077294E0
5.936161256E0,-9.859946370E-1,-2.056035995E-1,8.723499775E-1,1.332461162E0
5.941166725E0,-1.011750221E0,-1.725149155E-1,6.845176220E-1,1.233679165E0
5.946172194E0,-9.996643066E-1,-6.818866730E-2,5.044329166E-1,1.121798105E0
5.951177663E0,-9.404988885E-1,8.830833435E-2,3.565278053E-1,1.009677472E0
5.956183131E0,-8.440138698E-1,2.396259308E-1,2.411420345E-1,9.099063028E-1
5.961188600E0,-7.101575136E-1,3.572092056E-1,1.827321053E-1,8.156672931E-1
5.966194069E0,-5.197107196E-1,4.124231339E-1,1.574425697E-1,6.818945931E-1
5.971199538E0,-3.250089288E-1,3.766632080E-1,1.223721504E-1,5.123289171E-1
5.976205006E0,-1.642261744E-1,3.074569702E-1,1.015779972E-1,3.630676444E-1
5.981210475E0,-7.583886385E-2,2.479429245E-1,5.691027641E-2,2.654543400E-1
5.986215944E0,-6.477153301E-2,1.981658936E-1,-6.680727005E-3,2.085898007E-1
5.991221413E0,-1.548141837E-1,1.677217484E-1,-6.985950470E-2,2.387014176E-1
5.996226881E0,-2.881083488E-1,1.805305481E-1,-1.132409573E-1,3.583590572E-1
6.001232350E0,-3.542102575E-1,2.174482346E-1,-1.556718349E-1,4.438269499E-1
6.006237819E0,-3.532525897E-1,2.593030930E-1,-2.020061016E-1,4.825266327E-1
6.011243288E0,-2.902641892E-1,2.343053818E-1,-2.381458282E-1,4.425672231E-1
6.016248756E0,-1.751779914E-1,2.046556473E-1,-2.644383907E-1,3.774902981E-1
6.021254225E0,-9.421825409E-2,1.702775955E-1,-2.525627613E-1,3.188408495E-1
6.026259694E0,-3.777801991E-2,1.358995438E-1,-2.315032482E-1,2.710896876E-1
6.031265163E0,2.315819263E-2,1.014957428E-1,-1.916913986E-1,2.181359209E-1
6.036270631E0,1.368008852E-1,4.311656952E-2,-1.570594311E-1,2.126997547E-1
6.041276100E0,2.315626740E-1,-5.696296692E-3,-1.178205013E-1,2.598757210E-1
6.046281569E0,3.221064806E-1,-4.011344910E-2,-5.928754807E-2,3.299646754E-1
6.051287038E0,3.608557582E-1,-7.451820374E-2,3.288412094E-2,3.699340567E-1
6.056292506E0,4.197529852E-1,-9.930324554E-2,1.397469044E-1,4.534125059E-1
6.061297975E0,4.319236875E-1,-1.144704819E-1,2.039718628E-1,4.911884402E-1
6.066303444E0,4.310068786E-1,-7.700252533E-2,2.542953491E-1,5.063224693E-1
6.071308913E0,4.168305993E-1,-4.435825348E-2,3.050081730E-1,5.184065863E-1
6.076314381E0,3.941431046E-1,-2.612590790E-2,3.177130222E-1,5.069249594E-1
6.081319798E0,3.577274680E-1,-4.618263245E-2,3.258335590E-1,4.860753904E-1
6.086325215E0,3.166316748E-1,-6.148338318E-2,3.146572113E-1,4.506051315E-1
6.091330631E0,2.610410452E-1,-6.251525879E-2,3.221862316E-1,4.193501552E-1
6.096336048E0,2.339764237E-1,-6.370353699E-2,3.481392860E-1,4.242688652E-1
6.101341465E0,2.494833469E-1,-1.129436493E-1,3.825483322E-1,4.704693771E-1
6.106346881E0,2.881509066E-1,-1.767730713E-1,3.915400505E-1,5.172845202E-1
6.111352298E0,3.354536295E-1,-2.217435837E-1,3.844769001E-1,5.563468713E-1
6.116357715E0,3.868599534E-1,-3.052825928E-1,3.566491604E-1,6.083228654E-1
6.121363131E0,3.421099186E-1,-3.460226059E-1,2.652015686E-1,5.541684872E-1
6.126368548E0,1.919501424E-1,-3.200511932E-1,1.918127537E-1,4.196066681E-1
6.131373965E0,-1.204788685E-3,-2.799482346E-1,8.433270454E-2,2.923772744E-1
6.136379381E0,-1.797543168E-1,-2.399311066E-1,-3.948926926E-3,2.998235220E-1
6.141384798E0,-2.955316901E-1,-2.477540970E-1,-7.742977142E-2,3.933401098E-1
6.146390215E0,-3.964428902E-1,-2.315082550E-1,-1.596238613E-1,4.860481606E-1
6.151395631E0,-4.393600821E-1,-2.102804184E-1,-2.071611881E-1,5.293117172E-1
6.156401048E0,-4.149870872E-1,-1.983385086E-1,-2.437686920E-1,5.205531882E-1
6.161406465E0,-3.859106302E-1,-1.955862045E-1,-2.788548470E-1,5.147242015E-1
6.166411881E0,-3.141421080E-1,-1.971998215E-1,-2.837336063E-1,4.669880009E-1
6.171417298E0,-2.381832600E-1,-1.888017654E-1,-2.775607109E-1,4.116033530E-1
6.176422715E0,-2.009576559E-1,-1.609029770E-1,-2.414174080E-1,3.529250804E-1
6.181428131E0,-1.590367556E-1,-1.231479645E-1,-1.945497990E-1,2.798351927E-1
6.186433548E0,-1.263983250E-1,-8.517456055E-2,-1.226992607E-1,1.956689830E-1
6.191438965E0,-1.076256037E-1,-3.268814087E-2,-6.905603409E-2,1.319868212E-1
6.196444381E0,-1.026680470E-1,1.036453247E-2,-9.723901749E-3,1.036470244E-1
6.201449798E0,-9.244418144E-2,2.964401245E-2,2.654957771E-2,1.006457860E-1
6.206455215E0,-7.266533375E-2,4.912376404E-2,3.493714333E-2,9.441397622E-2
6.211460631E0,-7.718300819E-2,3.532981873E-2,2.968621254E-2,8.992599213E-2
6.216466048E0,-1.062589884E-1,-6.899833679E-3,2.509450912E-2,1.093997930E-1
6.221471465E0,-1.409512758E-1,-5.846309662E-2,1.604866982E-2,1.534364873E-1
6.226476881E0,-1.764492989E-1,-1.194124222E-1,1.188373566E-2,2.133890925E-1
6.231482298E0,-2.557666302E-1,-1.611480713E-1,-1.649332047E-2,3.027495658E-1
6.236487715E0,-3.114237785E-1,-1.933574677E-1,-4.053115845E-2,3.688016471E-1
6.241493131E0,-5.204963684E-1,-2.687282562E-1,-2.707386017E-2,5.863994706E-1
6.246498548E0,-8.310683966E-1,-2.772846222E-1,5.187487602E-2,8.776402704E-1
6.251503965E0,-7.790766954E-1,-2.861490250E-1,9.398460388E-3,8.300181281E-1
6.256509381E0,-5.124996901E-1,-4.291753769E-1,-7.730746269E-2,6.729218976E-1
6.261514798E0,-3.083518744E-1,-4.908981323E-1,-8.802199364E-2,5.863529024E-1
6.266520267E0,-1.373419762E-1,-5.669088364E-1,-4.593086243E-2,5.851137422E-1
6.271525736E0,-4.251897335E-2,-6.521635056E-1,-2.797842026E-3,6.535540750E-1
6.276531204E0,6.211709976E-2,-7.081651688E-1,-8.916854858E-4,7.108848257E-1
6.281536673E0,1.525593400E-1,-6.966524124E-1,-3.047299385E-2,7.138119776E-1
6.286542142E0,2.383737564E-1,-6.129951477E-1,-1.156668663E-1,6.678053031E-1
6.291547611E0,3.626555204E-1,-4.765625000E-1,-1.660890579E-1,6.214631269E-1
6.296553079E0,4.393775463E-1,-3.880205154E-1,-1.775844097E-1,6.124938948E-1
6.301558548E0,5.120383501E-1,-3.091955185E-1,-1.553778648E-1,6.180027682E-1
6.306564017E0,5.617563128E-1,-2.306356430E-1,-1.237902641E-1,6.197475166E-1
6.311569486E0,5.797542334E-1,-1.333436966E-1,-8.779621124E-2,6.013349210E-1
6.316574954E0,6.043154001E-1,-8.432292938E-2,-4.272723198E-2,6.116641853E-1
6.321580423E0,5.919188261E-1,-7.868003845E-2,-5.555415154E-2,5.997038510E-1
6.326585892E0,5.754875541E-1,-6.845378876E-2,-7.831835747E-2,5.848124581E-1
6.331591361E0,5.172060728E-1,-8.166027069E-2,-1.006119251E-1,5.331915988E-1
6.336596829E0,4.160741568E-1,-1.090612411E-1,-1.421937943E-1,4.530244291E-1
6.341602298E0,3.149949908E-1,-1.030559540E-1,-1.507611275E-1,3.641034076E-1
6.346607767E0,1.810175180E-1,-8.769702911E-2,-1.408407688E-1,2.455488402E-1
6.351613236E0,6.234192848E-2,-6.307792664E-2,-1.409370899E-1,1.665190806E-1
6.356618704E0,-4.529023170E-2,1.346492767E-2,-9.842848778E-2,1.091818509E-1
6.361624173E0,-1.175373793E-1,8.926773071E-2,-6.555938721E-2,1.614985960E-1
6.366629642E0,-1.445823908E-1,2.070684433E-1,-4.196476936E-2,2.560125970E-1
6.371635111E0,-1.502075195E-1,3.522615433E-1,-4.641389847E-2,3.857521792E-1
6.376640579E0,-9.651911259E-2,4.866380692E-1,-6.905412674E-2,5.009002115E-1
6.381646048E0,1.569640636E-2,6.008176804E-1,-6.699299812E-2,6.047448421E-1
6.386651517E0,1.568553448E-1,6.949949265E-1,-8.333110809E-2,7.173322944E-1
6.391656986E0,3.120207191E-1,7.835798264E-1,-8.963894844E-2,8.481682701E-1
6.396662454E0,4.757277369E-1,8.761186600E-1,-8.154368401E-2,1.000275041E0
6.401667923E0,6.377973557E-1,9.868078232E-1,-5.481410027E-2,1.176256661E0
6.406673392E0,8.071779013E-1,1.115476608E0,-4.323697090E-2,1.377568025E0
6.411678861E0,9.691385627E-1,1.223963737E0,-2.331280708E-2,1.561364875E0
6.416684329E0,1.085577965E0,1.307691574E0,-8.069920540E-2,1.701484391E0
6.421689798E0,1.233656406E0,1.366884232E0,-8.605527878E-2,1.843281352E0
6.426695267E0,1.355925083E0,1.401742935E0,-4.945135117E-2,1.950861739E0
6.431700736E0,1.433147669E0,1.436254978E0,-9.327173233E-3,2.028996698E0
6.436706204E0,1.494040728E0,1.489459515E0,1.293303967E-1,2.113616260E0
6.441711673E0,1.505632162E0,1.532816410E0,2.000026703E-1,2.157882161E0
6.446717142E0,1.468279123E0,1.575867176E0,1.745743752E-1,2.160943579E0
6.451722611E0,1.344333172E0,1.656444073E0,1.993560791E-2,2.133409495E0
6.456728079E0,1.172501445E0,1.788267136E0,-1.734690666E-1,2.145402178E0
6.461733548E0,9.959771037E-1,1.975493431E0,-3.394340277E-1,2.238249349E0
6.466739017E0,8.586373925E-1,2.290871143E0,-4.722359180E-1,2.491657185E0
6.471744486E0,6.765005589E-1,2.614974499E0,-5.837188959E-1,2.763416795E0
6.476749954E0,4.683711529E-1,2.909634590E0,-6.975901127E-1,3.028527192E0
6.481755423E0,2.915489674E-1,3.198907852E0,-8.038737774E-1,3.311227159E0
6.486760892E0,1.363127232E-1,3.444700718E0,-8.971840143E-1,3.562230109E0
6.491766361E0,-6.466627121E-3,3.704570770E0,-9.768120050E-1,3.831194083E0
6.496771829E0,-1.072016954E-1,3.935547829E0,-1.041927576E0,4.072547359E0
6.501777298E0,-2.079781294E-1,4.190330982E0,-1.096609354E0,4.336436408E0
6.506782767E0,-2.935997248E-1,4.445079327E0,-1.140084267E0,4.598339173E0
6.511788236E0,-3.538048267E-1,4.733425140E0,-1.185825944E0,4.892512093E0
6.516793704E0,-3.980078697E-1,5.026802063E0,-1.233162522E0,5.191130807E0
6.521799173E0,-4.453470707E-1,5.296731949E0,-1.257401109E0,5.462120550E0
6.526804642E0,-4.340312481E-1,5.576911449E0,-1.229392171E0,5.727279419E0
6.531810111E0,-3.358086348E-1,5.867375374E0,-9.196689129E-1,5.948499990E0
6.536815579E0,8.805418015E-2,6.234815598E0,-2.833318710E-2,6.235501731E0
6.541821048E0,5.640636683E-1,6.578233242E0,1.140607119E0,6.700172013E0
6.546826517E0,1.325759411E0,6.815720558E0,2.153668404E0,7.269798645E0
6.551831986E0,2.312633276E0,6.966279984E0,3.018319607E0,7.936471680E0
6.556837454E0,3.061525822E0,7.077758789E0,3.154036522E0,8.331599859E0
6.561842923E0,3.343990803E0,6.839729309E0,2.924974918E0,8.155957932E0
6.566848392E0,3.278772354E0,6.252634048E0,3.412288666E0,7.841523744E0
6.571853861E0,3.130321026E0,5.603361607E0,3.820557356E0,7.469486564E0
6.576859329E0,2.866736650E0,4.843901634E0,4.073879242E0,6.948241083E0
6.581864798E0,2.279942274E0,3.854672432E0,4.340981483E0,6.237047103E0
6.586870267E0,1.426999807E0,2.717076302E0,4.585031509E0,5.517367671E0
6.591875736E0,5.192875266E-1,1.517248631E0,5.046695709E0,5.295360283E0
6.596881204E0,-3.558835387E-1,3.651266098E-1,5.693243504E0,5.716029402E0
6.601886673E0,-1.164538860E0,-6.485404968E-1,6.056356430E0,6.201307019E0
6.606892142E0,-1.893142462E0,-1.643400192E0,6.184734344E0,6.673506686E0
6.611897611E0,-2.563142776E0,-2.542819023E0,6.002593517E0,7.004766835E0
6.616903079E0,-3.102167606E0,-3.375327110E0,5.640239716E0,7.268327250E0
6.621908548E0,-3.558815718E0,-4.097616196E0,5.132460594E0,7.469791132E0
6.626913965E0,-4.020857334E0,-4.766872406E0,4.600143433E0,7.749302281E0
6.631919381E0,-4.380307198E0,-5.397343636E0,4.048815727E0,8.044334544E0
6.636924798E0,-4.621420860E0,-6.012888908E0,3.588768482E0,8.389971574E0
6.641930215E0,-4.705296040E0,-6.603939056E0,3.281759977E0,8.747672286E0
6.646935631E0,-4.632269382E0,-7.137166977E0,3.145390034E0,9.071413922E0
6.651941048E0,-4.336283684E0,-7.660686493E0,3.167587757E0,9.355377380E0
6.656946465E0,-3.809177637E0,-8.136415482E0,3.393099308E0,9.603343901E0
6.661951881E0,-3.061863422E0,-8.593263626E0,3.870995522E0,9.909782727E0
6.666957298E0,-2.085830212E0,-8.950049400E0,4.502089500E0,1.023341985E1
6.671962715E0,-9.670931101E-1,-9.331183434E0,5.107075691E0,1.068122069E1
6.676968131E0,1.328703165E-1,-9.865465164E0,5.671068192E0,1.138007346E1
6.681973548E0,1.068970919E0,-1.065759945E1,6.195091724E0,1.237361250E1
6.686978965E0,1.698973894E0,-1.178817368E1,6.552954674E0,1.359370317E1
6.691984381E0,2.070213079E0,-1.320846748E1,6.806653023E0,1.500266379E1
6.696989798E0,2.275412560E0,-1.471685696E1,7.070988655E0,1.648521342E1
6.701995215E0,2.451786757E0,-1.620758438E1,7.364603043E0,1.797037639E1
6.707000631E0,2.773488998E0,-1.791871643E1,8.314633369E0,1.994757549E1
6.712006048E0,3.501848698E0,-1.985018539E1,9.418580055E0,2.224865063E1
6.717011465E0,4.011306763E0,-1.921371078E1,8.359676361E0,2.133404446E1
6.722016881E0,4.337484360E0,-1.906279945E1,7.116634846E0,2.080506153E1
6.727022298E0,4.404548645E0,-1.947065353E1,6.176334381E0,2.089625575E1
6.732027715E0,4.191756725E0,-1.963886070E1,5.517347336E0,2.082538825E1
6.737033131E0,3.600580692E0,-1.904721451E1,4.678650379E0,1.994117176E1
6.742038548E0,2.772825718E0,-1.788417244E1,3.739332438E0,1.848011887E1
6.747043965E0,2.075178146E0,-1.655731964E1,2.942636728E0,1.694432970E1
6.752049381E0,1.515448093E0,-1.553544044E1,2.360572100E0,1.578666505E1
6.757054798E0,1.010190725E0,-1.507626724E1,1.921628475E0,1.523177518E1
6.762060215E0,4.238008857E-1,-1.463871861E1,1.534902573E0,1.472506759E1
6.767065631E0,-5.069425106E-1,-1.405463600E1,8.200273514E-1,1.408766229E1
6.772071048E0,-1.375459194E0,-1.343773270E1,-2.908048630E-1,1.351107381E1
6.777076465E0,-2.381660938E0,-1.259475040E1,-1.945820332E0,1.296480865E1
6.782081881E0,-3.634430885E0,-1.102980423E1,-3.970772743E0,1.227325162E1
6.787087298E0,-5.614587307E0,-7.553153992E0,-7.311958313E0,1.191798893E1
6.792092715E0,-7.900404453E0,-3.260486603E0,-1.011924458E1,1.324561339E1
6.797098131E0,-8.032611847E0,-2.152916908E0,-9.859105110E0,1.289805636E1
6.802103548E0,-7.352375031E0,-2.095418930E0,-8.763902664E0,1.162988345E1
6.807108965E0,-7.132722378E0,-1.369025230E0,-7.911054611E0,1.073940146E1
6.812114381E0,-6.674872398E0,-5.169134140E-1,-7.469036102E0,1.003033505E1
6.817119798E0,-5.736110687E0,3.356904984E-1,-6.842194557E0,8.934835213E0
6.822125267E0,-4.508492470E0,1.528520107E0,-5.807896614E0,7.509629894E0
6.827130736E0,-3.316654682E0,2.798693180E0,-4.496105671E0,6.248827730E0
6.832136204E0,-2.276309490E0,3.787935734E0,-3.260281324E0,5.491764410E0
6.837141673E0,-1.617348194E0,4.597191334E0,-1.961628556E0,5.253377003E0
6.842147142E0,-6.261620522E-1,5.058416367E0,-5.553357601E-1,5.127187617E0
6.847152611E0,1.599809289E0,4.047004700E0,2.386968136E-1,4.358280965E0
6.852158079E0,2.861417770E0,4.439815521E0,7.282757759E-1,5.331984539E0
6.857163548E0,3.774355888E0,5.265133858E0,1.226019621E0,6.593217805E0
6.862169017E0,4.466261387E0,6.614174843E0,1.791143417E0,8.179425063E0
6.867174486E0,4.923563957E0,8.051486969E0,2.109506369E0,9.670467495E0
6.872179954E0,5.037113667E0,9.438314438E0,2.105316162E0,1.090351547E1
6.877185423E0,4.936471939E0,1.077450943E1,1.979004145E0,1.201562591E1
6.882190892E0,4.631464481E0,1.215054321E1,1.972846270E0,1.315212097E1
6.887196361E0,4.242413521E0,1.315922832E1,1.845391750E0,1.394879326E1
6.892201829E0,3.889409542E0,1.375747967E1,1.470736504E0,1.437215430E1
6.897207298E0,3.352334023E0,1.415107441E1,7.616040707E-1,1.456266085E1
6.902212767E0,2.985534906E0,1.388556099E1,-1.058173180E-1,1.420328905E1
6.907218236E0,2.640020847E0,1.376996613E1,-9.545922279E-1,1.405321755E1
6.912223704E0,2.465365648E0,1.338788319E1,-1.822183490E0,1.373440194E1
6.917229173E0,2.422521830E0,1.286444473E1,-2.816764832E0,1.339017231E1
6.922234642E0,2.239001036E0,1.271672821E1,-3.869041920E0,1.347953217E1
6.927240111E0,2.107754707E0,1.249003410E1,-4.924370766E0,1.359018062E1
6.932245579E0,2.439476252E0,1.206518078E1,-5.866877556E0,1.363597755E1
6.937251048E0,2.958165646E0,1.164875793E1,-6.552603245E0,1.368871487E1
6.942256517E0,3.374372959E0,1.128439522E1,-7.072291374E0,1.373831407E1
6.947261986E0,3.677010059E0,1.112082005E1,-7.363481998E0,1.383524154E1
6.952267454E0,3.907853842E0,1.112475586E1,-7.426200867E0,1.393484747E1
6.957272923E0,3.984854460E0,1.134892845E1,-7.356162548E0,1.409930387E1
6.962278392E0,3.855296135E0,1.162602901E1,-7.296322823E0,1.425707493E1
6.967283861E0,3.639795780E0,1.196586514E1,-7.245333672E0,1.445423473E1
6.972289329E0,3.443928242E0,1.239762592E1,-7.254144669E0,1.477106581E1
6.977294798E0,3.187098503E0,1.270179081E1,-7.229859352E0,1.495874169E1
6.982300267E0,2.945991039E0,1.279774284E1,-7.080453396E0,1.491958127E1
6.987305736E0,2.753624201E0,1.265757370E1,-6.771842957E0,1.461692427E1
6.992311204E0,2.661484718E0,1.252604008E1,-6.442533493E0,1.433497188E1
6.997316673E0,2.635024071E0,1.241327000E1,-6.139835358E0,1.409717000E1
7.002322142E0,2.587382317E0,1.221939087E1,-5.944211960E0,1.383263230E1
7.007327611E0,2.666368961E0,1.203104591E1,-5.754367352E0,1.360030635E1
7.012333079E0,2.656782150E0,1.169050217E1,-5.574716568E0,1.322133870E1
7.017338548E0,2.688955307E0,1.119776535E1,-5.347405434E0,1.269705377E1
7.022344017E0,2.831511021E0,1.063384533E1,-5.081843853E0,1.212110796E1
7.027349486E0,2.984843016E0,1.012742901E1,-4.826278687E0,1.160892209E1
7.032354954E0,3.139869690E0,9.701760292E0,-4.586328983E0,1.118111569E1
7.037360423E0,3.291985512E0,9.318089485E0,-4.266807079E0,1.076427438E1
7.042365892E0,3.379378557E0,8.956882477E0,-3.772359848E0,1.028963760E1
7.047371361E0,3.407362938E0,8.603324890E0,-3.160957336E0,9.778495418E0
7.052376829E0,3.442990065E0,8.256985664E0,-2.696417093E0,9.343589138E0
7.057382298E0,3.533949852E0,7.783193588E0,-2.423397064E0,8.884804855E0
7.062387767E0,3.574730396E0,7.286618233E0,-2.200078726E0,8.409152697E0
7.067393236E0,3.392439365E0,6.943723202E0,-1.726986170E0,7.918738408E0
7.072398704E0,2.880260229E0,6.959513187E0,-1.480558395E0,7.676117245E0
7.077404173E0,2.483917236E0,6.897816181E0,-1.260964990E0,7.439068867E0
7.082409642E0,2.138042212E0,6.720039368E0,-9.919388294E-1,7.121383029E0
7.087415111E0,1.705929041E0,6.497937202E0,-6.774444580E-1,6.752207992E0
7.092420579E0,1.194236398E0,6.264976978E0,-3.932394981E-1,6.389896276E0
7.097426048E0,6.097477674E-1,6.011533737E0,-1.002550125E-1,6.043209518E0
7.102431517E0,1.154148579E-2,5.804585457E0,2.070608139E-1,5.808288880E0
7.107436986E0,-4.601731300E-1,5.620226860E0,5.153076649E-1,5.662530464E0
7.112442454E0,-7.859655619E-1,5.448904514E0,8.676779270E-1,5.573254638E0
7.117447923E0,-9.236763716E-1,5.218902588E0,1.143907785E0,5.422051944E0
7.122453392E0,-9.950988293E-1,4.815520287E0,1.543185830E0,5.153724849E0
7.127458861E0,-9.498523474E-1,4.473209381E0,1.842846632E0,4.930304794E0
7.132464329E0,-6.948479414E-1,4.191753864E0,1.996830463E0,4.694778591E0
7.137469798E0,-1.802453995E-1,3.817816734E0,2.054048538E0,4.339046948E0
7.142475267E0,5.383148193E-1,3.303521633E0,2.077756643E0,3.939557170E0
7.147480736E0,1.228430390E0,2.792591095E0,2.042061329E0,3.671187917E0
7.152486152E0,1.922925234E0,1.974127769E0,2.066080332E0,3.444344617E0
7.157491569E0,2.844096422E0,6.191635132E-1,2.260157108E0,3.685180873E0
7.162496986E0,3.662427902E0,-6.017704010E-1,2.692272186E0,4.585175600E0
7.167502402E0,4.226011753E0,-2.081091881E0,3.262431145E0,5.730058964E0
7.172507819E0,4.532286167E0,-4.407326698E0,3.779394150E0,7.365457668E0
7.177513236E0,4.279615879E0,-7.590029716E0,4.569064140E0,9.838699624E0
7.182518652E0,3.399252653E0,-1.203127384E1,5.550549984E0,1.367900121E1
7.187524069E0,1.892908096E0,-1.760207176E1,6.709107399E0,1.893219885E1
7.192529486E0,-3.731232882E-2,-2.405377579E1,7.910304070E0,2.532110646E1
7.197534902E0,-2.032594442E0,-3.019508553E1,9.101379395E0,3.160236917E1
7.202540319E0,-3.436642170E0,-3.456266785E1,1.033918858E1,3.623930654E1
7.207545736E0,-4.628067017E0,-3.612490463E1,1.103436947E1,3.805502659E1
7.212551152E0,-5.619311810E0,-3.372659683E1,1.045174789E1,3.575330800E1
7.217556569E0,-5.673417091E0,-2.708400345E1,8.238372803E0,2.887216117E1
7.222561986E0,-4.987916946E0,-1.941481018E1,5.253880501E0,2.072238959E1
7.227567402E0,-4.219511986E0,-1.333535004E1,2.849308252E0,1.427425653E1
7.232572819E0,-3.564184904E0,-9.192013741E0,1.210689306E0,9.932889773E0
7.237578236E0,-3.063967705E0,-6.522556305E0,1.734511852E-1,7.208448110E0
7.242583652E0,-2.669724941E0,-4.836422920E0,-5.998163223E-1,5.556815414E0
7.247589069E0,-2.538508892E0,-3.944651604E0,-1.188617706E0,4.839123446E0
7.252594486E0,-2.764755487E0,-3.787381172E0,-1.539341211E0,4.935352106E0
7.257599902E0,-3.431929111E0,-4.491237640E0,-1.661484480E0,5.891509454E0
7.262605319E0,-4.544369698E0,-6.063420296E0,-1.622915745E0,7.749207517E0
7.267610736E0,-5.921003342E0,-8.004792213E0,-1.291289568E0,1.004004022E1
7.272616152E0,-7.038676262E0,-1.004689121E1,-8.740484715E-1,1.229824977E1
7.277621569E0,-8.034524918E0,-1.187888432E1,-5.449426174E-1,1.435125241E1
7.282626986E0,-8.771962166E0,-1.310482788E1,-3.057522774E-1,1.577267633E1
7.287632402E0,-8.971824646E0,-1.340140724E1,-2.113838196E-1,1.612873326E1
7.292637819E0,-8.204298019E0,-1.228770828E1,-5.509269238E-1,1.478518858E1
7.297643236E0,-6.593663692E0,-1.016759777E1,-9.242637157E-1,1.215362945E1
7.302648652E0,-4.800992966E0,-8.180723190E0,-1.185283661E0,9.559218730E0
7.307654069E0,-3.288654804E0,-6.690300941E0,-1.244350910E0,7.558027937E0
7.312659486E0,-1.990482211E0,-5.662178993E0,-1.169011116E0,6.114644501E0
7.317664902E0,-8.441962004E-1,-5.024112701E0,-9.402573109E-1,5.180584858E0
7.322670319E0,1.702589989E-1,-4.689723015E0,-6.726856232E-1,4.740780108E0
7.327675736E0,1.035392642E0,-4.610987663E0,-3.702669144E-1,4.740289310E0
7.332681152E0,1.805960655E0,-4.759158134E0,1.098251343E-2,5.090304574E0
7.337686569E0,2.523068190E0,-5.105339050E0,4.629607201E-1,5.713553407E0
7.342691986E0,3.200084925E0,-5.457965851E0,9.300656319E-1,6.394916484E0
7.347697402E0,4.009451866E0,-5.773552895E0,1.295349121E0,7.147555291E0
7.352702871E0,4.640263081E0,-5.941614151E0,1.561341763E0,7.698870584E0
7.357708340E0,5.012741089E0,-5.832816124E0,1.481297016E0,7.832212842E0
7.362713809E0,6.224903107E0,-4.380064964E0,1.799522400E0,7.821295842E0
7.367719277E0,8.317461967E0,-5.432109833E-1,2.175834656E0,8.614494077E0
7.372724746E0,7.455556393E0,-1.219857216E0,4.794807434E-1,7.569892637E0
7.377730215E0,7.669291019E0,-2.088165283E-1,-6.772468090E-1,7.701966783E0
7.382735684E0,7.278543949E0,1.373996258E0,-8.701999187E-1,7.458036983E0
7.387741152E0,6.248163700E0,2.309098721E0,-6.403651237E-1,6.691902122E0
7.392746621E0,5.039186478E0,1.895544052E0,-3.683557510E-1,5.396496416E0
7.397752090E0,4.044575691E0,1.216347218E0,-1.630313396E-1,4.226662075E0
7.402757559E0,3.130573273E0,7.648735046E-1,1.996517181E-2,3.222719209E0
7.407763027E0,2.303258896E0,5.795392990E-1,2.536940575E-1,2.388561914E0
7.412768496E0,1.493846536E0,4.355878830E-1,3.527801037E-1,1.595546326E0
7.417773965E0,8.013435006E-1,4.525299072E-1,3.320369720E-1,9.783574366E-1
7.422779434E0,3.530676961E-1,7.256984711E-1,1.914365292E-1,8.294233018E-1
7.427784902E0,1.180136204E-1,1.331254482E0,-4.519152641E-2,1.337238941E0
7.432790371E0,-2.126297355E-1,2.168722153E0,-3.819119930E-1,2.212334502E0
7.437795840E0,-5.703802705E-1,3.320080280E0,-8.167014122E-1,3.466304649E0
7.442801309E0,-1.080757022E0,4.762826920E0,-1.269489050E0,5.046202379E0
7.447806777E0,-1.635919571E0,6.029708862E0,-1.307102799E0,6.382956959E0
7.452812246E0,-2.244561195E0,6.910717964E0,-3.910858631E-1,7.276608131E0
7.457817715E0,-2.128675938E0,7.107795715E0,4.764282703E-1,7.434985210E0
7.462823184E0,-1.566873550E0,6.628968239E0,8.073873520E-1,6.859313885E0
7.467828652E0,-1.309333205E0,6.032684326E0,7.359545231E-1,6.216853117E0
7.472834121E0,-1.034477949E0,5.307967186E0,2.940969467E-1,5.415824341E0
7.477839590E0,-8.785358667E-1,5.100146294E0,6.120324135E-2,5.175622023E0
7.482845059E0,-6.985614300E-1,5.174357414E0,-9.331703186E-2,5.222132782E0
7.487850527E0,-5.515176058E-1,5.349409580E0,-1.951417923E-1,5.381304196E0
7.492855996E0,-5.128200054E-1,5.583111763E0,-2.829773426E-1,5.613750751E0
7.497861465E0,-4.615813494E-1,5.809212208E0,-3.337776661E-1,5.837072155E0
7.502866934E0,-3.923754692E-1,5.904087067E0,-3.154506683E-1,5.925513625E0
7.507872402E0,-3.047969341E-1,5.993012428E0,-2.485101223E-1,6.005901799E0
7.512877871E0,-2.080626488E-1,5.981101036E0,-1.871871948E-1,5.987645507E0
7.517883340E0,-8.269369602E-2,5.964845657E0,-1.668365002E-1,5.967751367E0
7.522888809E0,7.609462738E-2,5.868318558E0,-1.661996841E-1,5.871164742E0
7.527894277E0,2.533841133E-1,5.663223743E0,-2.754580975E-1,5.675577842E0
7.532899746E0,4.435900450E-1,5.354628563E0,-3.653602600E-1,5.385379030E0
7.537905215E0,5.650774240E-1,4.937905312E0,-4.265558720E-1,4.988403680E0
7.542910684E0,7.325736284E-1,4.475348949E0,-4.162297249E-1,4.553971841E0
7.547916152E0,8.358078003E-1,3.962243080E0,-3.059043884E-1,4.060975548E0
7.552921621E0,8.220071793E-1,3.417773724E0,-2.297759056E-1,3.522736152E0
7.557927090E0,6.434052587E-1,2.956625938E0,-1.643910408E-1,3.030285742E0
7.562932559E0,4.055308104E-1,2.583164692E0,-1.729221344E-1,2.620514669E0
7.567938027E0,1.609073877E-1,2.287446499E0,-2.514925003E-1,2.306848749E0
7.572943496E0,-4.251968861E-2,2.059482574E0,-2.958598137E-1,2.081059689E0
7.577948965E0,-1.854469776E-1,1.894024849E0,-3.790273666E-1,1.940459341E0
7.582954434E0,-3.205977678E-1,1.723675728E0,-5.548532009E-1,1.838940733E0
7.587959902E0,-4.049458504E-1,1.538565159E0,-7.238886356E-1,1.747906933E0
7.592965371E0,-4.866398573E-1,1.261926651E0,-8.441387415E-1,1.594317233E0
7.597970840E0,-5.132718086E-1,8.794670105E-1,-8.919888735E-1,1.353718701E0
7.602976309E0,-4.277349710E-1,3.387498856E-1,-8.960822821E-1,1.049129233E0
7.607981777E0,-3.500325680E-1,-3.599357605E-1,-7.652640343E-1,9.152625812E-1
7.612987246E0,-2.423236370E-1,-1.173287392E0,-5.473046303E-1,1.317143275E0
7.617992715E0,-7.108324766E-2,-2.053301811E0,-2.036833763E-1,2.064603612E0
7.622998184E0,7.801896334E-2,-3.105071068E0,2.516264915E-1,3.116226755E0
7.628003652E0,1.632940769E-1,-4.299576759E0,8.099544048E-1,4.378247526E0
7.633009121E0,1.532282829E-1,-5.579239845E0,1.433668613E0,5.762534325E0
7.638014590E0,7.360070944E-2,-6.819644928E0,2.156584978E0,7.152889820E0
7.643020059E0,-6.770193577E-3,-7.963578224E0,2.916397333E0,8.480801694E0
7.648025527E0,-1.716996431E-1,-8.910938263E0,3.578928709E0,9.604323620E0
7.653030996E0,-4.133391380E-1,-9.442152023E0,4.101270199E0,1.030269389E1
7.658036413E0,-8.337237239E-1,-9.232598305E0,4.383530617E0,1.025433115E1
7.663041829E0,-1.377367020E0,-8.048635483E0,4.302969933E0,9.230017513E0
7.668047246E0,-1.795362473E0,-5.862222672E0,3.881062984E0,7.256144358E0
7.673052663E0,-1.866672397E0,-3.199814796E0,3.201564789E0,4.896253431E0
7.678058079E0,-1.654759407E0,-9.171619415E-1,2.548493862E0,3.173993650E0
7.683063496E0,-1.188056469E0,6.471147537E-1,2.108674049E0,2.505342676E0
7.688068913E0,-4.454026818E-1,1.517726421E0,1.732528687E0,2.345960931E0
7.693074329E0,4.610958099E-1,1.752364159E0,1.379337788E0,2.277270784E0
7.698079746E0,1.257055283E0,1.355740070E0,9.405364990E-1,2.074325921E0
7.703085163E0,1.826680541E0,8.250055313E-1,5.034227371E-1,2.066598746E0
7.708090579E0,2.255671024E0,5.519647598E-1,1.712200642E-1,2.328525966E0
7.713095996E0,2.362050056E0,5.217962265E-1,-5.209779739E-2,2.419559041E0
7.718101413E0,2.113996506E0,5.574007034E-1,1.630067825E-3,2.186247796E0
7.723106829E0,1.465976477E0,6.779699326E-1,-1.584053040E-3,1.615157196E0
7.728112246E0,7.830073833E-1,8.401784897E-1,-4.778244495E-1,1.243911838E0
7.733117663E0,7.130795717E-1,8.618764877E-1,-1.278452158E0,1.698750563E0
7.738123079E0,9.664967060E-1,7.622156143E-1,-2.019859791E0,2.365358768E0
7.743128496E0,1.051596999E0,8.378543854E-1,-2.601100922E0,2.928068002E0
7.748133913E0,1.016152143E0,8.352804184E-1,-3.112668514E0,3.379195738E0
7.753139329E0,9.161548018E-1,7.933912277E-1,-3.567807198E0,3.768030979E0
7.758144746E0,8.215047717E-1,7.272300720E-1,-3.927063704E0,4.077445646E0
7.763150163E0,7.688642740E-1,6.182670593E-1,-4.170367241E0,4.285483561E0
7.768155579E0,7.285906076E-1,5.100393295E-1,-4.225271225E0,4.317858418E0
7.773160996E0,7.526904345E-1,4.505100250E-1,-4.163649559E0,4.255053445E0
7.778166413E0,7.976802588E-1,5.020589828E-1,-4.142958164E0,4.248818585E0
7.783171829E0,7.634084225E-1,5.979700089E-1,-4.018679619E0,4.134023032E0
7.788177246E0,7.078474760E-1,7.194118500E-1,-3.732582092E0,3.866622626E0
7.793182663E0,4.409102201E-1,8.235912323E-1,-3.346049786E0,3.474011155E0
7.798188079E0,3.466845155E-1,9.108467102E-1,-2.786361694E0,2.951888103E0
7.803193496E0,3.009457588E-1,7.664165497E-1,-2.143494606E0,2.296199426E0
7.808198913E0,3.848545551E-1,4.339332581E-1,-1.445567608E0,1.557586855E0
7.813204329E0,6.063981652E-1,-5.254173279E-2,-7.113540173E-1,9.362178733E-1
7.818209746E0,7.917078733E-1,-6.974334717E-1,3.994727135E-2,1.055845911E0
7.823215163E0,8.392898440E-1,-1.242235184E0,7.173566818E-1,1.661973617E0
7.828220579E0,8.306638598E-1,-1.505408287E0,1.258830309E0,2.130941178E0
7.833225996E0,6.759002209E-1,-1.525859833E0,1.702583790E0,2.384089113E0
7.838231413E0,4.865870476E-1,-1.342679024E0,2.014642000E0,2.469480979E0
7.843236829E0,2.933387756E-1,-9.807701111E-1,2.227595329E0,2.451558402E0
7.848242246E0,6.896936893E-2,-4.986553192E-1,2.416369200E0,2.468249179E0
7.853247663E0,-1.805377007E-1,1.024875641E-1,2.616938591E0,2.625160024E0
7.858253079E0,-3.452190161E-1,6.827802658E-1,2.816770554E0,2.918828774E0
7.863258496E0,-5.881934166E-1,1.155254364E0,2.969906330E0,3.240513501E0
7.868263965E0,-7.954324484E-1,1.452215672E0,2.977577448E0,3.406994364E0
7.873269434E0,-9.588066339E-1,1.640319347E0,2.957085371E0,3.514870071E0
7.878274902E0,-1.051255107E0,1.508915424E0,2.925520420E0,3.455522071E0
7.883280371E0,-1.117381215E0,1.278413296E0,2.882076979E0,3.345033489E0
7.888285840E0,-1.124450207E0,8.677320480E-1,2.802695513E0,3.142045403E0
7.893291309E0,-1.062610269E0,4.255905151E-1,2.635650158E0,2.873485623E0
7.898296777E0,-9.260360003E-1,4.936218262E-3,2.420756817E0,2.591839232E0
7.903302246E0,-8.664457798E-1,-3.508586884E-1,2.064223051E0,2.266020060E0
7.908307715E0,-8.584216833E-1,-6.271829605E-1,1.644481897E0,1.958205036E0
7.913313184E0,-8.339877129E-1,-8.141393661E-1,1.168208838E0,1.650172809E0
7.918318652E0,-7.780520916E-1,-9.162216187E-1,6.418473721E-1,1.362642712E0
7.923324121E0,-6.475553513E-1,-9.139366150E-1,5.260396004E-2,1.121327448E0
7.928329590E0,-5.386807919E-1,-9.408550262E-1,-5.551631451E-1,1.218027624E0
7.933335059E0,-5.191360712E-1,-1.053990364E0,-1.185495377E0,1.669070770E0
7.938340527E0,-5.463203192E-1,-1.205170631E0,-1.751811147E0,2.195391636E0
7.943345996E0,-6.110762358E-1,-1.346297264E0,-2.196369410E0,2.647634618E0
7.948351465E0,-6.464047432E-1,-1.410179138E0,-2.528257132E0,2.966231349E0
7.953356934E0,-5.806940794E-1,-1.420524597E0,-2.794713736E0,3.188341357E0
7.958362402E0,-4.572489262E-1,-1.362719536E0,-2.975923061E0,3.304875063E0
7.963367871E0,-2.474602461E-1,-1.293950081E0,-3.028274059E0,3.302421409E0
7.968373340E0,-1.840674877E-2,-1.218703270E0,-2.951193333E0,3.192979573E0
7.973378809E0,2.202988267E-1,-1.122422218E0,-2.753917694E0,2.982017082E0
7.978384277E0,4.685335159E-1,-9.811306000E-1,-2.479482651E0,2.707392680E0
7.983389746E0,7.022320032E-1,-8.235673904E-1,-2.113680601E0,2.374666022E0
7.988395215E0,9.451355934E-1,-6.451263428E-1,-1.719267011E0,2.065271978E0
7.993400684E0,1.115594387E0,-4.843254089E-1,-1.344809771E0,1.813183735E0
7.998406152E0,1.275666952E0,-3.175439835E-1,-1.038977623E0,1.675599849E0
8.003411621E0,1.415463328E0,-1.641464233E-1,-7.593312263E-1,1.614640639E0
8.008417090E0,1.525321245E0,-1.479625702E-2,-5.065028667E-1,1.607286217E0
8.013422559E0,1.586108208E0,1.590127945E-1,-2.379243374E-1,1.611717192E0
8.018428027E0,1.593082428E0,3.379726410E-1,3.165102005E-2,1.628845885E0
8.023433496E0,1.584731340E0,5.124073029E-1,2.685346603E-1,1.687022682E0
8.028438965E0,1.570592642E0,6.678829193E-1,5.155608654E-1,1.782871798E0
8.033444434E0,1.512222767E0,7.900991440E-1,7.392511368E-1,1.859453306E0
8.038449902E0,1.419094324E0,8.264722824E-1,9.252011776E-1,1.884909110E0
8.043455371E0,1.310500860E0,8.057432175E-1,1.092476606E0,1.886833266E0
8.048460840E0,1.196175694E0,7.278976440E-1,1.217018604E0,1.855210380E0
8.053466309E0,1.305638194E0,2.151002884E-1,1.289036512E0,1.847315446E0
8.058471777E0,1.172532678E0,-1.102867126E-1,1.346370220E0,1.788772990E0
8.063477246E0,7.270662785E-1,2.582426071E-1,1.279088020E0,1.493780700E0
8.068482715E0,4.408099651E-1,4.969949722E-1,1.278836012E0,1.441089509E0
8.073488184E0,2.195265889E-1,7.159557343E-1,1.345597982E0,1.539941060E0
8.078493652E0,3.022003174E-2,8.241510391E-1,1.436040163E0,1.656004087E0
8.083499121E0,-1.126773357E-1,8.310747147E-1,1.506480455E0,1.724199735E0
8.088504590E0,-2.908689976E-1,7.414836884E-1,1.546756983E0,1.739787343E0
8.093510059E0,-4.666395187E-1,5.601778030E-1,1.604158878E0,1.762066207E0
8.098515527E0,-6.413919926E-1,2.873716354E-1,1.625796080E0,1.771208355E0
8.103520996E0,-8.165047169E-1,9.394645691E-3,1.606764317E0,1.802348407E0
8.108526465E0,-9.931758642E-1,-2.210416794E-1,1.546905756E0,1.851533186E0
8.113531934E0,-1.186236262E0,-4.327402115E-1,1.445878983E0,1.919631890E0
8.118537402E0,-1.342889547E0,-6.259069443E-1,1.355796814E0,2.008306959E0
8.123542871E0,-1.452841759E0,-8.104276657E-1,1.232938766E0,2.070671432E0
8.128548340E0,-1.495599031E0,-9.387531281E-1,1.110550642E0,2.086000150E0
8.133553809E0,-1.489179611E0,-9.872789383E-1,9.405376911E-1,2.019154963E0
8.138559277E0,-1.385887265E0,-9.895000458E-1,7.423596382E-1,1.857657580E0
8.143564746E0,-1.219850302E0,-9.691505432E-1,4.831557274E-1,1.631173501E0
8.148570215E0,-1.063526392E0,-9.212369919E-1,1.874711514E-1,1.419475753E0
8.153575684E0,-8.836271763E-1,-8.550796509E-1,-9.598326683E-2,1.233357606E0
8.158581100E0,-7.134618759E-1,-7.370233536E-1,-3.856086731E-1,1.095867383E0
8.163586517E0,-5.240702629E-1,-6.052064896E-1,-6.615633965E-1,1.038552196E0
8.168591934E0,-3.103041649E-1,-4.642391205E-1,-9.374661446E-1,1.091168827E0
8.173597350E0,-7.201409340E-2,-3.426351547E-1,-1.164842367E0,1.216323402E0
8.178602767E0,1.763091087E-1,-2.689189911E-1,-1.381626964E0,1.418553979E0
8.183608184E0,4.104979038E-1,-2.045087814E-1,-1.558474779E0,1.624554095E0
8.188613600E0,6.255291700E-1,-1.539659500E-1,-1.718868256E0,1.835619878E0
8.193619017E0,8.019756675E-1,-1.266155243E-1,-1.838424683E0,2.009726791E0
8.198624434E0,9.062217474E-1,-9.353256226E-2,-1.940632939E0,2.143838240E0
8.203629850E0,9.528461099E-1,-6.415843964E-2,-1.986865759E0,2.204465368E0
8.208635267E0,9.709031582E-1,-4.798030853E-2,-2.015159607E0,2.237369727E0
8.213640684E0,1.027454019E0,-4.496383667E-2,-2.015918970E0,2.263098054E0
8.218646100E0,1.055253029E0,-3.596115112E-2,-1.984484553E0,2.247894816E0
