"Time (s)","Linear Acceleration x (m/s^2)","Linear Acceleration y (m/s^2)","Linear Acceleration z (m/s^2)","Absolute acceleration (m/s^2)"
2.311495800E-2,0.000000000E0,0.000000000E0,0.000000000E0,0.000000000E0
2.811516600E-2,-2.101516724E-2,-9.045600891E-3,-1.610395908E-1,1.626567243E-1
3.311573900E-2,-3.861761093E-2,-8.537006378E-2,-2.985592484E-1,3.129169099E-1
3.811688500E-2,-8.559226990E-3,-2.040042877E-1,-3.312910199E-1,3.891590287E-1
4.311876000E-2,1.476144791E-2,-2.483730316E-1,-2.415213287E-1,3.467558441E-1
4.812146800E-2,1.082820892E-1,-1.973705292E-1,-1.070833802E-1,2.492929741E-1
5.312506200E-2,2.680957317E-1,-1.650781631E-1,2.994692326E-2,3.162640345E-1
5.812959300E-2,5.130743980E-1,-1.839523315E-1,1.278830767E-1,5.598552308E-1
6.313506200E-2,8.182766438E-1,-2.306413651E-1,3.110833764E-1,9.052872318E-1
6.814141600E-2,1.078439236E0,-2.072401047E-1,4.869757891E-1,1.201301405E0
7.314855100E-2,1.242877007E0,-1.792831421E-1,6.569473743E-1,1.417203426E0
7.815641600E-2,1.297529459E0,-1.414051056E-1,8.080105782E-1,1.535076283E0
8.316485300E-2,1.320585489E0,-8.016395569E-2,9.045462608E-1,1.602677832E0
8.817370800E-2,1.278055429E0,-4.969596863E-2,9.696685076E-1,1.605039683E0
9.318282200E-2,1.271846771E0,-8.792114258E-2,9.657274485E-1,1.599360448E0
9.819204100E-2,1.254869461E0,-1.955757141E-1,9.459354877E-1,1.583584911E0
1.032007390E-1,1.398568869E0,-2.116823196E-1,8.249065876E-1,1.637459973E0
1.082061030E-1,1.454287052E0,-3.176517487E-1,5.876947641E-1,1.600387015E0
1.132114160E-1,1.312515020E0,-4.640531540E-1,5.178132057E-1,1.485318661E0
1.182167280E-1,1.271889925E0,-9.454917908E-2,4.675872326E-1,1.358411333E0
1.232220410E-1,1.348305941E0,3.808498383E-1,5.431934595E-1,1.502675828E0
1.282273530E-1,1.198664427E0,5.204849243E-1,7.201546431E-1,1.492087020E0
1.332326660E-1,1.034851074E0,6.916542053E-1,7.700060606E-1,1.463629604E0
1.382379780E-1,9.846448898E-1,9.580039978E-1,8.405722380E-1,1.610546152E0
1.432432910E-1,9.133048058E-1,1.050318718E0,9.223642349E-1,1.669745747E0
1.482486030E-1,8.027014732E-1,9.064884186E-1,9.602894783E-1,1.545382409E0
1.532539160E-1,6.133971214E-1,5.713186264E-1,1.099253654E0,1.382396325E0
1.582592280E-1,4.364681244E-1,2.443208694E-1,1.253514051E0,1.349627574E0
1.632645410E-1,3.363783360E-1,-2.499961853E-2,1.385932922E0,1.426388948E0
1.682698530E-1,2.874779701E-1,-2.069387436E-1,1.446349382E0,1.489091590E0
1.732751660E-1,2.741169930E-1,-2.399501801E-1,1.422586799E0,1.468492225E0
1.782804780E-1,3.364179134E-1,-1.843738556E-1,1.367552757E0,1.420341957E0
1.832857910E-1,4.437992573E-1,-1.169805527E-1,1.309483647E0,1.387584107E0
1.882911030E-1,5.157771111E-1,-6.117916107E-2,1.285215735E0,1.386199266E0
1.932964160E-1,5.810837746E-1,-1.646137238E-2,1.275088429E0,1.401349290E0
1.983017280E-1,6.212880611E-1,-1.970005035E-2,1.231932640E0,1.379871362E0
2.033070410E-1,6.418683529E-1,2.403259277E-4,1.165845513E0,1.330860925E0
2.083123530E-1,6.760697365E-1,1.939105988E-2,1.077055573E0,1.271807772E0
2.133176660E-1,7.236905098E-1,5.640697479E-2,9.706021547E-1,1.212014127E0
2.183229780E-1,7.519280910E-1,7.350826263E-2,8.842560053E-1,1.163059758E0
2.233282910E-1,7.753701210E-1,9.455776215E-2,8.035434484E-1,1.120634672E0
2.283336030E-1,8.035233021E-1,6.342792511E-2,6.957721710E-1,1.064787168E0
2.333389160E-1,8.363113403E-1,3.278350830E-2,5.897611380E-1,1.023869922E0
2.383442280E-1,9.112751484E-1,-6.774902344E-3,4.294940233E-1,1.007439036E0
2.433495410E-1,1.051952839E0,-1.536636353E-1,2.816073895E-1,1.099781801E0
2.483549060E-1,1.093653679E0,-3.074645996E-1,2.299969196E-1,1.159099406E0
2.533602700E-1,1.136267900E0,-4.305133820E-1,1.975325346E-1,1.231042492E0
2.583656350E-1,1.184023023E0,-5.186262131E-1,1.093651056E-1,1.297244924E0
2.633709990E-1,1.274117231E0,-4.129018784E-1,-4.218077660E-2,1.340015634E0
2.683763640E-1,1.320793152E0,-2.529020309E-1,-1.894309521E-1,1.358064090E0
2.733817280E-1,1.282347918E0,-1.801862717E-1,-2.428005934E-1,1.317511063E0
2.783870930E-1,1.212419271E0,-2.445163727E-1,-1.934868097E-1,1.251872954E0
2.833924580E-1,1.149856806E0,-2.506084442E-1,-1.311603785E-1,1.184136103E0
2.883978220E-1,3.419434309E0,-1.459298134E0,1.831433058E0,4.144421441E0
2.934031870E-1,5.572209358E0,-3.812086105E0,3.372365475E0,7.546811678E0
2.984085510E-1,2.418033600E0,-1.004609108E0,-5.693241358E-1,2.679599955E0
3.034139160E-1,5.146399498E0,-1.728264809E0,1.674399137E0,5.681191734E0
3.084192810E-1,5.561683178E0,-1.314914703E0,1.684628010E0,5.958128228E0
3.134246450E-1,4.613116264E0,-7.329921722E-1,1.426045179E0,4.883822688E0
3.184300100E-1,3.862973928E0,-1.110158920E0,-5.115067959E-2,4.019656303E0
3.234353740E-1,3.481887102E0,-1.414544106E0,-1.536226749E0,4.060106580E0
3.284407390E-1,2.951745749E0,-9.225625992E-1,-2.613662243E0,4.049093112E0
3.334461030E-1,2.051820993E0,-1.542625427E-1,-3.207147121E0,3.810453907E0
3.384514680E-1,1.257747412E0,4.447422028E-1,-3.407402515E0,3.659250754E0
3.434568330E-1,5.235953331E-1,1.381985664E0,-3.242875814E0,3.563745221E0
3.484621970E-1,-2.802817822E-1,2.274859428E0,-2.920117617E0,3.712227120E0
3.534675620E-1,-1.205973864E0,2.849822521E0,-2.309980869E0,3.861589437E0
3.584729260E-1,-2.020606041E0,3.153179169E0,-1.477714181E0,4.026043572E0
3.634782910E-1,-2.683473825E0,3.103109360E0,-6.144347191E-1,4.148234503E0
3.684836560E-1,-3.154625177E0,2.845559597E0,1.586867571E-1,4.251358714E0
3.734890200E-1,-3.499273062E0,2.482059002E0,7.177456617E-1,4.349791683E0
3.784943850E-1,-3.773942947E0,2.070526123E0,1.091477990E0,4.440838659E0
3.834997490E-1,-3.955404997E0,1.573835850E0,1.350309968E0,4.466041310E0
3.885051140E-1,-4.059542179E0,1.073618889E0,1.483382702E0,4.453421658E0
3.935104780E-1,-4.117061615E0,5.465669632E-1,1.540727019E0,4.429759760E0
3.985158430E-1,-4.139642715E0,7.822895050E-2,1.528107047E0,4.413374302E0
4.035212080E-1,-4.176353455E0,-3.510551453E-1,1.478921175E0,4.444364492E0
4.085265720E-1,-4.190337181E0,-7.277793884E-1,1.354373813E0,4.463509488E0
4.135319370E-1,-4.092050552E0,-9.916925430E-1,1.105887771E0,4.353311336E0
4.185373010E-1,-3.839758396E0,-1.069167137E0,7.517478466E-1,4.056104995E0
4.235426660E-1,-3.421271563E0,-9.439554214E-1,3.195827007E-1,3.563465174E0
4.285480310E-1,-2.873055220E0,-6.846303940E-1,-1.296534538E-1,2.956344887E0
4.335533950E-1,-2.279383659E0,-3.490304947E-1,-4.499759674E-1,2.349444727E0
4.385587600E-1,-1.737801552E0,-4.615020752E-2,-6.384491324E-1,1.851945293E0
4.435641240E-1,-1.329796314E0,2.107934952E-1,-6.445712447E-1,1.492737159E0
4.485694890E-1,-1.011822701E0,4.085140228E-1,-5.409170389E-1,1.217891673E0
4.535748530E-1,-7.541928291E-1,5.430974960E-1,-3.564370871E-1,9.953939475E-1
4.585802180E-1,-5.554213524E-1,5.820732117E-1,-2.002534866E-1,8.290980408E-1
4.635855830E-1,-4.089474678E-1,5.073394775E-1,-8.112978935E-2,6.566684244E-1
4.685909470E-1,-2.752528191E-1,3.246479034E-1,-1.248669624E-2,4.258125094E-1
4.735963120E-1,-8.672976494E-2,1.722726822E-1,4.474079609E-2,1.979941110E-1
4.786016760E-1,7.176828384E-2,-2.598667145E-2,1.012841463E-1,1.268245716E-1
4.836070410E-1,2.584769726E-1,-2.034673691E-1,1.296664476E-1,3.535854964E-1
4.886124060E-1,4.738893509E-1,-3.225374222E-1,1.406040192E-1,5.902296128E-1
4.936177700E-1,6.896541119E-1,-4.122266769E-1,1.727511883E-1,8.218251640E-1
4.986231350E-1,9.248065948E-1,-4.822387695E-1,1.979235411E-1,1.061600300E0
5.036284990E-1,1.188371658E0,-5.137205124E-1,1.688910723E-1,1.305626347E0
5.086338640E-1,1.446443915E0,-5.259056091E-1,1.571776867E-1,1.547088083E0
5.136392280E-1,1.670160890E0,-5.331144333E-1,1.244173050E-1,1.757591552E0
5.186445930E-1,1.854663610E0,-5.305576324E-1,8.009946346E-2,1.930721221E0
5.236499580E-1,2.019006491E0,-4.993391037E-1,4.297173023E-2,2.080282029E0
5.286553220E-1,2.186684370E0,-4.776039124E-1,-2.050721645E-2,2.238328523E0
5.336606870E-1,2.333591223E0,-4.509658813E-1,-5.337631702E-2,2.377365612E0
5.386660510E-1,2.445216656E0,-4.004287720E-1,-8.467638493E-2,2.479233306E0
5.436714160E-1,2.512306452E0,-3.641843796E-1,-1.052421331E-1,2.540745929E0
5.486767810E-1,2.563365459E0,-3.277940750E-1,-1.152908802E-1,2.586809506E0
5.536821450E-1,2.555662632E0,-2.722530365E-1,-1.149964333E-1,2.572694577E0
5.586875100E-1,2.508477688E0,-2.261676788E-1,-9.507727623E-2,2.520446750E0
5.636928740E-1,2.398413420E0,-2.131471634E-1,-7.457530499E-2,2.409020573E0
5.686982390E-1,2.216395378E0,-1.949005127E-1,-2.498066425E-2,2.225088474E0
5.737036030E-1,1.944020867E0,-2.141628265E-1,3.931999207E-2,1.956177116E0
5.787089680E-1,1.625374556E0,-2.327966690E-1,1.039388180E-1,1.645247706E0
5.837143330E-1,1.323344469E0,-2.320146561E-1,1.831632853E-1,1.355957290E0
5.887196970E-1,1.033621550E0,-2.216053009E-1,2.627297640E-1,1.089270098E0
5.937250620E-1,7.706165314E-1,-2.112407684E-1,3.187879324E-1,8.602896294E-1
5.987304260E-1,5.580062866E-1,-1.677503586E-1,3.609578609E-1,6.854208752E-1
6.037357910E-1,3.428800106E-1,-1.483755112E-1,3.843837976E-1,5.360344186E-1
6.087411560E-1,1.299319267E-1,-1.149425507E-1,4.033197165E-1,4.390454296E-1
6.137465200E-1,-6.678128242E-2,-8.657550812E-2,4.175519943E-1,4.316303120E-1
6.187518850E-1,-2.759592533E-1,-4.427051544E-2,4.221100807E-1,5.062512304E-1
6.237572490E-1,-4.927568436E-1,-2.443313599E-3,4.120211601E-1,6.423213472E-1
6.287626140E-1,-6.695821285E-1,3.882789612E-2,3.584934473E-1,7.605033755E-1
6.337679780E-1,-8.495278358E-1,9.850120544E-2,3.328279257E-1,9.177006372E-1
6.387733430E-1,-9.709722996E-1,1.336698532E-1,3.012827635E-1,1.025390725E0
6.437787080E-1,-1.077196836E0,1.634883881E-1,2.540631294E-1,1.118762509E0
6.487840720E-1,-1.163626909E0,1.879940033E-1,2.244184017E-1,1.199888723E0
6.537894370E-1,-1.235190153E0,2.214717865E-1,2.073602676E-1,1.271905164E0
6.587948010E-1,-1.277696848E0,2.543668747E-1,1.744250059E-1,1.314395612E0
6.638001660E-1,-1.291332483E0,2.819519043E-1,1.591262817E-1,1.331299227E0
6.688055310E-1,-1.304792166E0,2.900619507E-1,1.521148682E-1,1.345272264E0
6.738108950E-1,-1.294155359E0,2.836008072E-1,1.440469027E-1,1.332672886E0
6.788162600E-1,-1.278493881E0,2.579717636E-1,1.305692196E-1,1.310780056E0
6.838216240E-1,-1.215010405E0,2.228279114E-1,1.165972948E-1,1.240764881E0
6.888269890E-1,-1.137155056E0,1.925172806E-1,1.072291136E-1,1.158310238E0
6.938323530E-1,-1.006924391E0,1.717929840E-1,6.946444511E-2,1.023833418E0
6.988377180E-1,-8.532168865E-1,1.701660156E-1,4.194700718E-2,8.710310441E-1
7.038430830E-1,-7.004063129E-1,1.496095657E-1,1.531648636E-2,7.163704489E-1
7.088484470E-1,-5.726664066E-1,1.151676178E-1,-6.351470947E-4,5.841325165E-1
7.138538120E-1,-4.653069973E-1,7.176685333E-2,8.390903473E-3,4.708837332E-1
7.188591760E-1,-4.020571709E-1,-4.247665405E-3,1.384747028E-2,4.023179883E-1
7.238645410E-1,-3.539748192E-1,-6.512737274E-2,2.528464794E-2,3.608033546E-1
7.288699060E-1,-3.351540565E-1,-1.252593994E-1,5.694544315E-2,3.622995201E-1
7.338752700E-1,-3.310036659E-1,-1.942377090E-1,8.944356441E-2,3.940708892E-1
7.388806350E-1,-3.174567223E-1,-2.149791718E-1,1.180679798E-1,4.011668763E-1
7.438859990E-1,-2.946369648E-1,-1.878175735E-1,1.522978544E-1,3.811574719E-1
7.488913640E-1,-3.100888729E-1,-1.226234436E-1,1.920138597E-1,3.847868765E-1
7.538967280E-1,-2.876133919E-1,-3.393077850E-2,2.179055214E-1,3.624300997E-1
7.589020930E-1,-2.942116261E-1,4.481410980E-2,2.821714878E-1,4.101091731E-1
7.639074580E-1,-3.345851898E-1,1.041574478E-1,2.986984253E-1,4.604527907E-1
7.689128220E-1,-3.942682743E-1,1.061677933E-1,3.437912464E-1,5.337710123E-1
7.739181870E-1,-4.682765007E-1,7.019710541E-2,3.695393801E-1,6.006412142E-1
7.789235510E-1,-5.230917931E-1,2.501106262E-2,3.998844624E-1,6.589067919E-1
7.839289160E-1,-5.729234219E-1,-2.937984467E-2,4.062445164E-1,7.029502327E-1
7.889342810E-1,-6.225605011E-1,-9.288597107E-2,4.127590656E-1,7.527147052E-1
7.939396450E-1,-6.528954506E-1,-1.226329803E-1,4.147998095E-1,7.831795447E-1
7.989450100E-1,-6.544644833E-1,-1.473922729E-1,4.410096407E-1,8.028310813E-1
8.039503740E-1,-6.225657463E-1,-1.672105789E-1,4.389839172E-1,7.799066391E-1
8.089557390E-1,-5.906400681E-1,-1.631135941E-1,4.516909122E-1,7.612400507E-1
8.139611030E-1,-5.348691940E-1,-1.590518951E-1,4.409383535E-1,7.112026376E-1
8.189664680E-1,-4.507157803E-1,-1.359834671E-1,4.258729219E-1,6.348259317E-1
8.239718330E-1,-3.575038910E-1,-1.082983017E-1,4.063789845E-1,5.519795587E-1
8.289771970E-1,-2.506933212E-1,-9.502029419E-2,3.824944496E-1,4.670952811E-1
8.339825620E-1,-1.590728760E-1,-7.227802277E-2,3.587219715E-1,3.990109589E-1
8.389879260E-1,-6.844997406E-2,-5.438041687E-2,3.254463673E-1,3.369836297E-1
8.439932910E-1,2.116537094E-2,-3.179645538E-2,3.111451864E-1,3.134809636E-1
8.489986560E-1,1.192653179E-1,-9.301185608E-3,3.014378548E-1,3.243077372E-1
8.540040200E-1,1.971654892E-1,-1.152038574E-3,2.868015766E-1,3.480383624E-1
8.590093850E-1,2.836456299E-1,2.604579926E-2,2.625628710E-1,3.873919052E-1
8.640147490E-1,3.596463203E-1,6.744766235E-2,2.289805412E-1,4.316558249E-1
8.690201140E-1,4.252507687E-1,1.182460785E-1,2.006307840E-1,4.848433384E-1
8.740254780E-1,4.853994846E-1,1.545925140E-1,1.872061491E-1,5.427316532E-1
8.790308430E-1,5.497276783E-1,2.242183685E-1,1.794745922E-1,6.202302204E-1
8.840362080E-1,6.086349487E-1,2.888956070E-1,1.490666866E-1,6.900130793E-1
8.890415720E-1,6.478974819E-1,3.582048416E-1,1.296925545E-1,7.515996370E-1
8.940469370E-1,6.770045757E-1,4.083642960E-1,1.118954420E-1,7.985093511E-1
8.990523010E-1,6.723538637E-1,4.585132599E-1,9.581112862E-2,8.194351103E-1
9.040576660E-1,6.436829567E-1,4.991331100E-1,1.005986929E-1,8.207202369E-1
9.090630310E-1,5.958647728E-1,5.302858353E-1,9.287405014E-2,8.030463771E-1
9.140683950E-1,5.099936724E-1,5.805444717E-1,1.105980873E-1,7.806134552E-1
9.190737600E-1,3.956722021E-1,6.021633148E-1,1.343135834E-1,7.329374379E-1
9.240791240E-1,2.529739141E-1,6.047840118E-1,1.446136236E-1,6.713215343E-1
9.290844890E-1,1.108042002E-1,5.598134995E-1,2.028998137E-1,6.056707516E-1
9.340898530E-1,-1.154065132E-2,5.054731369E-1,2.606841326E-1,5.688519102E-1
9.390952180E-1,-1.138321161E-1,4.273977280E-1,3.270343542E-1,5.500709385E-1
9.441005830E-1,-1.624987125E-1,3.541717529E-1,3.776855469E-1,5.426691759E-1
9.491059470E-1,-1.909726858E-1,2.714214325E-1,4.267566204E-1,5.406120363E-1
9.541113120E-1,-1.610224247E-1,2.029390335E-1,4.787734747E-1,5.443679938E-1
9.591166760E-1,-1.061551571E-1,1.391019821E-1,5.003483295E-1,5.300629488E-1
9.641220410E-1,-3.127527237E-2,9.896087646E-2,5.488942862E-1,5.586200275E-1
9.691274060E-1,4.921603203E-2,5.384540558E-2,5.958979130E-1,6.003464568E-1
9.741327700E-1,1.637693644E-1,5.144023895E-2,6.127822399E-1,6.363714139E-1
9.791381350E-1,2.835689783E-1,5.820655823E-2,6.188428402E-1,6.832026271E-1
9.841434990E-1,3.990004063E-1,1.217622757E-1,5.713462830E-1,7.074347680E-1
9.891488640E-1,5.480418205E-1,2.275800705E-1,5.088279247E-1,7.816958376E-1
9.941542280E-1,6.731827259E-1,3.802385330E-1,4.265151024E-1,8.829900662E-1
9.991595930E-1,8.028895259E-1,5.176076889E-1,3.195868731E-1,1.007315780E0
1.004164958E0,8.845171332E-1,6.397838593E-1,2.355340719E-1,1.116767767E0
1.009170322E0,9.467476606E-1,6.801919937E-1,1.028501987E-1,1.170286480E0
1.014175687E0,9.514080286E-1,6.535682678E-1,-1.629185677E-2,1.154380415E0
1.019181051E0,9.273918867E-1,5.507650375E-1,-1.787256002E-1,1.093316367E0
1.024186416E0,8.653762937E-1,3.912296295E-1,-2.886844873E-1,9.926104401E-1
1.029191781E0,7.750510573E-1,2.372140884E-1,-3.795169592E-1,8.949903841E-1
1.034197145E0,6.566580534E-1,5.053997040E-2,-4.561294913E-1,8.011293282E-1
1.039202510E0,5.437736511E-1,-1.066884995E-1,-5.469483733E-1,7.786043557E-1
1.044207874E0,4.458830357E-1,-2.346067429E-1,-6.136869192E-1,7.940174054E-1
1.049213239E0,3.964527845E-1,-3.238639832E-1,-6.993287802E-1,8.666737753E-1
1.054218603E0,3.618843555E-1,-3.793935776E-1,-7.606847882E-1,9.238728920E-1
1.059223968E0,3.658992052E-1,-3.965702057E-1,-8.167679310E-1,9.789075592E-1
1.064229333E0,3.892199993E-1,-4.041633606E-1,-8.914187551E-1,1.053312692E0
1.069234697E0,4.029372931E-1,-3.878707886E-1,-9.081853628E-1,1.066584673E0
1.074240062E0,4.070030451E-1,-3.239669800E-1,-9.246239662E-1,1.060912608E0
1.079245426E0,4.300714731E-1,-2.222089767E-1,-9.311860800E-1,1.049497888E0
1.084250791E0,4.291557074E-1,-7.800483704E-2,-9.184142351E-1,1.016732061E0
1.089256156E0,3.899816275E-1,4.174423218E-2,-9.006874561E-1,9.823778012E-1
1.094261520E0,3.461583853E-1,1.323747635E-1,-8.494646549E-1,9.267895692E-1
1.099266885E0,2.834378481E-1,1.654281616E-1,-7.791421413E-1,8.454383282E-1
1.104272249E0,2.117050886E-1,1.840095520E-1,-6.994322538E-1,7.535808102E-1
1.109277614E0,1.502937078E-1,1.738376617E-1,-6.533299685E-1,6.925660827E-1
1.114282978E0,9.926939011E-2,1.349954605E-1,-5.885294676E-1,6.119192107E-1
1.119288343E0,5.389058590E-2,6.282138824E-2,-5.719439983E-1,5.779019461E-1
1.124293708E0,1.410841942E-2,-5.207347870E-2,-5.509999990E-1,5.536349823E-1
1.129299072E0,-1.539897919E-2,-1.761341095E-1,-5.305952430E-1,5.592778066E-1
1.134304437E0,-4.905498028E-2,-2.902517319E-1,-5.203498006E-1,5.978431014E-1
1.139309801E0,-1.532983780E-2,-4.087705612E-1,-5.296834707E-1,6.692480518E-1
1.144315166E0,3.287684917E-2,-4.792108536E-1,-5.346943140E-1,7.187641747E-1
1.149320531E0,1.382350922E-1,-4.683780670E-1,-5.877773762E-1,7.641787738E-1
1.154325895E0,2.669161558E-1,-3.527450562E-1,-6.266555786E-1,7.670531423E-1
1.159331260E0,4.091200829E-1,-1.947059631E-1,-6.799231172E-1,8.170588103E-1
1.164336624E0,5.360494852E-1,-3.730106354E-2,-7.091962099E-1,8.897750750E-1
1.169341989E0,6.235616207E-1,5.282497406E-2,-6.857013106E-1,9.283349935E-1
1.174347353E0,6.525100470E-1,6.173515320E-2,-6.094462872E-1,8.949890320E-1
1.179352718E0,6.278351545E-1,-5.431175232E-3,-5.234712362E-1,8.174525149E-1
1.184358083E0,5.403726101E-1,-4.824447632E-2,-4.086630344E-1,6.792168748E-1
1.189363447E0,4.336599112E-1,-7.641315460E-2,-2.794417143E-1,5.215242664E-1
1.194368812E0,3.127983809E-1,-1.186895370E-1,-1.982071996E-1,3.888651787E-1
1.199374176E0,1.733822823E-1,-1.083469391E-1,-1.030777693E-1,2.289661580E-1
1.204379541E0,4.905509949E-2,-1.505680084E-1,-6.114113331E-2,1.697508943E-1
1.209384906E0,-5.533444881E-2,-1.831970215E-1,-2.952748537E-2,1.936360563E-1
1.214390270E0,-1.589535475E-1,-2.110662460E-1,-2.276700735E-2,2.652046890E-1
1.219395635E0,-2.520574331E-1,-2.056245804E-1,-1.689720154E-2,3.257298468E-1
1.224400999E0,-3.203786612E-1,-2.194719315E-1,-4.061216116E-2,3.904609620E-1
1.229406364E0,-3.781268597E-1,-2.001037598E-1,-1.032375097E-1,4.400902408E-1
1.234411728E0,-3.681612015E-1,-1.142683029E-1,-1.950533986E-1,4.320251655E-1
1.239417093E0,-3.385083675E-1,-2.898502350E-2,-3.111443520E-1,4.606938834E-1
1.244422458E0,-2.846623659E-1,8.441543579E-2,-4.464486241E-1,5.361669538E-1
1.249427822E0,-1.973183155E-1,1.877193451E-1,-5.625019073E-1,6.249651718E-1
1.254433187E0,-1.291669607E-1,2.380952835E-1,-6.304556131E-1,6.861834652E-1
1.259438551E0,-4.683828354E-2,2.262754440E-1,-6.548417211E-1,6.944149199E-1
1.264443916E0,2.577769756E-2,1.573276520E-1,-6.209911108E-1,6.411290350E-1
1.269449281E0,9.341895580E-2,9.350967407E-2,-5.718464255E-1,5.869237556E-1
1.274454645E0,1.465057135E-1,2.528572083E-2,-5.121060610E-1,5.332503253E-1
1.279460010E0,1.993148327E-1,-3.777694702E-2,-4.227637947E-1,4.689165452E-1
1.284465374E0,2.325381041E-1,-8.136081696E-2,-3.660920858E-1,4.412674560E-1
1.289470739E0,2.509034872E-1,-1.437139511E-1,-2.946631312E-1,4.128348587E-1
1.294476103E0,2.829848528E-1,-1.913862228E-1,-2.231482267E-1,4.080493160E-1
1.299481468E0,2.953187227E-1,-2.101621628E-1,-1.567745209E-1,3.949171218E-1
1.304486833E0,2.641457319E-1,-2.622156143E-1,-1.056455970E-1,3.868991965E-1
1.309492197E0,2.327234745E-1,-2.902297974E-1,-5.085784197E-2,3.754731295E-1
1.314497562E0,1.907187700E-1,-3.167562485E-1,-2.596426010E-2,3.706512013E-1
1.319502926E0,1.727260351E-1,-3.431529999E-1,-1.674860716E-2,3.845370988E-1
1.324508291E0,1.784769297E-1,-3.504133224E-1,-5.154329538E-2,3.966109205E-1
1.329513656E0,2.031668425E-1,-3.054761887E-1,-1.014014482E-1,3.806241209E-1
1.334519020E0,2.513195276E-1,-2.609710693E-1,-1.849067807E-1,4.067651922E-1
1.339524385E0,2.846723795E-1,-1.883773804E-1,-3.016260862E-1,4.555246393E-1
1.344529749E0,3.223953247E-1,-1.496238708E-1,-4.270272255E-1,5.555882463E-1
1.349535114E0,3.595703840E-1,-1.491098404E-1,-5.463489294E-1,6.708366107E-1
1.354540478E0,3.963160515E-1,-1.675081253E-1,-6.164824963E-1,7.517819184E-1
1.359545843E0,3.708918095E-1,-2.093362808E-1,-6.370474100E-1,7.662974719E-1
1.364551208E0,3.551092148E-1,-2.506446838E-1,-6.366685629E-1,7.708905052E-1
1.369556572E0,3.205411434E-1,-2.961969376E-1,-5.677984953E-1,7.161524850E-1
1.374561937E0,2.767956257E-1,-3.174371719E-1,-4.687351584E-1,6.301546043E-1
1.379567301E0,2.429677248E-1,-3.288326263E-1,-3.445883393E-1,5.347011642E-1
1.384572666E0,1.856918335E-1,-3.114986420E-1,-1.864243150E-1,4.077583674E-1
1.389578031E0,1.667021513E-1,-2.609224319E-1,-2.811086178E-2,3.109024659E-1
1.394583395E0,1.334576607E-1,-1.441926956E-1,1.440356374E-1,2.436159796E-1
1.399588760E0,1.145969629E-1,-1.415824890E-2,2.959324718E-1,3.176616876E-1
1.404594124E0,1.004581451E-1,1.005516052E-1,4.747795463E-1,4.955987104E-1
1.409599489E0,9.102737904E-2,1.762752533E-1,6.085665822E-1,6.400876765E-1
1.414604853E0,9.574353695E-2,2.275676727E-1,7.306275964E-1,7.712136897E-1
1.419610218E0,8.592593670E-2,2.546424866E-1,8.219914436E-1,8.648098034E-1
1.424615583E0,8.530294895E-2,2.862119675E-1,8.638156056E-1,9.139864791E-1
1.429620947E0,7.479166985E-2,2.985162735E-1,9.136974812E-1,9.641311355E-1
1.434626312E0,7.823622227E-2,3.202085495E-1,9.146892428E-1,9.722709667E-1
1.439631676E0,5.287635326E-2,3.559551239E-1,8.958401084E-1,9.654167280E-1
1.444637041E0,4.161524773E-2,4.009304047E-1,8.671382666E-1,9.562456753E-1
1.449642406E0,1.591420174E-2,4.408054352E-1,8.335052729E-1,9.430237184E-1
1.454647770E0,-1.470184326E-2,4.851427078E-1,7.618135214E-1,9.032936580E-1
1.459653135E0,-7.862567902E-2,5.101375580E-1,6.759782434E-1,8.505109705E-1
1.464658499E0,-1.280621290E-1,5.159330368E-1,5.759656429E-1,7.837877450E-1
1.469663864E0,-2.010926008E-1,5.121612549E-1,4.569329023E-1,7.152167939E-1
1.474669228E0,-2.690625191E-1,4.656639099E-1,3.569484949E-1,6.454841161E-1
1.479674593E0,-3.603899479E-1,3.815078735E-1,2.519722581E-1,5.821676657E-1
1.484679958E0,-4.557068348E-1,2.742242813E-1,1.658322811E-1,5.571068310E-1
1.489685322E0,-5.405433178E-1,1.772232056E-1,1.128438115E-1,5.799386768E-1
1.494690687E0,-6.243687868E-1,9.516334534E-2,5.492556095E-2,6.339631389E-1
1.499696051E0,-6.927889585E-1,1.841449738E-2,5.411493778E-2,6.951431948E-1
1.504701416E0,-7.553418875E-1,-5.307006836E-2,6.263202429E-2,7.597898194E-1
1.509706781E0,-8.167843819E-1,-1.098232269E-1,6.164783239E-2,8.264371258E-1
1.514712145E0,-8.342454433E-1,-1.709737778E-1,6.567972898E-2,8.541143479E-1
1.519717510E0,-8.176665306E-1,-2.079696655E-1,6.529182196E-2,8.462227597E-1
1.524722874E0,-7.720782757E-1,-2.305059433E-1,6.057459116E-2,8.080266919E-1
1.529728239E0,-6.835873127E-1,-2.339439392E-1,7.518690825E-2,7.264120401E-1
1.534733603E0,-5.478286743E-1,-2.326831818E-1,6.622385979E-2,5.988683654E-1
1.539738968E0,-3.888685703E-1,-2.030467987E-1,5.275523663E-2,4.418482573E-1
1.544744333E0,-2.117270231E-1,-2.022418976E-1,7.274609804E-2,3.016987110E-1
1.549749697E0,-5.488336086E-2,-1.967239380E-1,6.891494989E-2,2.155499047E-1
1.554755062E0,8.639383316E-2,-1.959943771E-1,6.992989779E-2,2.253172894E-1
1.559760426E0,2.025225163E-1,-1.667222977E-1,9.957343340E-2,2.805825418E-1
1.564765791E0,2.697604895E-1,-1.613273621E-1,1.339549422E-1,3.416740639E-1
1.569771156E0,3.311721087E-1,-1.368560791E-1,1.825821400E-1,4.021701005E-1
1.574776468E0,3.299313784E-1,-1.219720840E-1,2.406477332E-1,4.261962403E-1
1.579781781E0,3.377655745E-1,-1.070985794E-1,2.937862873E-1,4.602891174E-1
1.584787093E0,2.977343798E-1,-9.226512909E-2,3.609600067E-1,4.769179609E-1
1.589792406E0,2.577885389E-1,-8.700752258E-2,3.800448179E-1,4.673963023E-1
1.594797718E0,2.037041187E-1,-5.803203583E-2,3.892148137E-1,4.431153985E-1
1.599803031E0,1.402829885E-1,-1.504325867E-2,3.693231940E-1,3.953545727E-1
1.604808343E0,6.751787663E-2,2.282238007E-2,3.344287872E-1,3.419387934E-1
1.609813656E0,-2.405011654E-2,5.085849762E-2,2.988214493E-1,3.040711322E-1
1.614818968E0,-1.056339741E-1,7.859420776E-2,2.623239756E-1,2.935122725E-1
1.619824281E0,-1.867167950E-1,9.651184082E-2,2.486259341E-1,3.255649736E-1
1.624829593E0,-2.671756744E-1,1.141843796E-1,2.198059559E-1,3.643289335E-1
1.629834906E0,-3.278474808E-1,1.125926971E-1,1.808312535E-1,3.909744600E-1
1.634840218E0,-3.688563108E-1,1.109151840E-1,1.463701129E-1,4.120453446E-1
1.639845531E0,-4.186047316E-1,1.376113892E-1,1.023340225E-1,4.523704985E-1
1.644850843E0,-4.152054787E-1,1.354694366E-1,4.901909828E-2,4.394888278E-1
1.649856156E0,-4.254903793E-1,1.427164078E-1,-2.281945944E-2,4.493670701E-1
1.654861468E0,-4.206671715E-1,1.165084839E-1,-8.922135830E-2,4.455283905E-1
1.659866781E0,-3.913522959E-1,9.986114502E-2,-1.786996722E-1,4.416587377E-1
1.664872093E0,-3.328522444E-1,9.267330170E-2,-3.052130342E-1,4.610140493E-1
1.669877406E0,-2.312150002E-1,9.485435486E-2,-4.069146514E-1,4.775324685E-1
1.674882718E0,-1.058503389E-1,1.395845413E-1,-5.314444900E-1,5.595725014E-1
1.679888031E0,5.241477489E-2,2.217817307E-1,-6.406564116E-1,6.799816780E-1
1.684893343E0,2.288652658E-1,2.889566422E-1,-7.202929258E-1,8.091335798E-1
1.689898656E0,3.994972706E-1,3.317680359E-1,-7.610489726E-1,9.213379605E-1
1.694903968E0,5.404554605E-1,3.457241058E-1,-7.962895632E-1,1.022591967E0
1.699909281E0,6.851669550E-1,2.978610992E-1,-7.356411219E-1,1.048495518E0
1.704914645E0,8.098120689E-1,2.172384262E-1,-6.460184455E-1,1.058455456E0
1.709920010E0,9.051390886E-1,7.563304901E-2,-5.370596051E-1,1.055191995E0
1.714925374E0,9.903815985E-1,-6.471633911E-2,-4.184430242E-1,1.077097247E0
1.719930739E0,1.060818672E0,-1.800727844E-1,-2.903191447E-1,1.114471924E0
1.724936103E0,1.135467052E0,-2.564249039E-1,-1.816733479E-1,1.178152946E0
1.729941468E0,1.204596758E0,-2.988443375E-1,-9.269672632E-2,1.244569793E0
1.734946833E0,1.253748775E0,-3.076009750E-1,-9.353995323E-3,1.290965471E0
1.739952197E0,1.268583417E0,-2.876901627E-1,5.873417854E-2,1.302121046E0
1.744957562E0,1.268142939E0,-2.630710602E-1,1.067234278E-1,1.299531756E0
1.749962926E0,1.247585773E0,-2.717266083E-1,1.632833481E-1,1.287232327E0
1.754968291E0,1.197554588E0,-2.753877640E-1,1.903445721E-1,1.243465508E0
1.759973656E0,1.118228555E0,-2.930679321E-1,2.167556286E-1,1.176140687E0
1.764979020E0,1.019475460E0,-3.056612015E-1,2.237199545E-1,1.087570504E0
1.769984385E0,9.015387297E-1,-2.847328186E-1,2.399392128E-1,9.754053952E-1
1.774989749E0,7.788316011E-1,-2.590484619E-1,2.274068594E-1,8.517033804E-1
1.779995114E0,6.466828585E-1,-2.381544113E-1,2.386029959E-1,7.292788443E-1
1.785000478E0,5.052431822E-1,-2.220420837E-1,2.067251205E-1,5.893289706E-1
1.790005843E0,3.738596439E-1,-2.154979706E-1,1.984342337E-1,4.749595286E-1
1.795011208E0,2.478183508E-1,-1.994829178E-1,1.564666033E-1,3.545266808E-1
1.800016572E0,1.319221258E-1,-1.646137238E-1,9.048533440E-2,2.295402385E-1
1.805021937E0,1.651191711E-2,-1.395301819E-1,4.337561131E-2,1.470467909E-1
1.810027301E0,-9.367609024E-2,-1.289005280E-1,-4.674887657E-2,1.660602705E-1
1.815032666E0,-2.224060297E-1,-1.088609695E-1,-1.509866714E-1,2.900209091E-1
1.820038031E0,-3.362122774E-1,-8.899688721E-2,-2.454519272E-1,4.256827339E-1
1.825043395E0,-4.730407000E-1,-4.083728790E-2,-3.443767428E-1,5.865411570E-1
1.830048760E0,-5.992249250E-1,-1.212978363E-2,-4.428257346E-1,7.451927762E-1
1.835054124E0,-6.909033060E-1,3.050613403E-2,-5.216704607E-1,8.662667442E-1
1.840059489E0,-7.765884399E-1,6.318855286E-2,-6.093662381E-1,9.891458995E-1
1.845064853E0,-8.656146526E-1,8.123016357E-2,-6.677036285E-1,1.096227714E0
1.850070218E0,-9.008857012E-1,1.085128784E-1,-7.204324603E-1,1.158616857E0
1.855075583E0,-9.255374670E-1,1.402196884E-1,-7.437030673E-1,1.195564894E0
1.860080947E0,-9.111057520E-1,1.620836258E-1,-7.233429551E-1,1.174567931E0
1.865086312E0,-8.910534382E-1,1.884479523E-1,-7.069183588E-1,1.152919089E0
1.870091676E0,-8.321493864E-1,1.670570374E-1,-6.704936028E-1,1.081638723E0
1.875097041E0,-7.584216595E-1,1.552820206E-1,-6.094792485E-1,9.852821291E-1
1.880102406E0,-6.795401573E-1,1.530761719E-1,-5.381451845E-1,8.802314351E-1
1.885107770E0,-5.671126842E-1,1.651268005E-1,-4.612559080E-1,7.494268941E-1
1.890113135E0,-4.832260609E-1,1.628427505E-1,-3.740691543E-1,6.324183105E-1
1.895118499E0,-3.803732395E-1,1.843805313E-1,-2.718612552E-1,5.025818577E-1
1.900123864E0,-3.206273317E-1,2.058391571E-1,-1.357325315E-1,4.044687436E-1
1.905129228E0,-2.657817602E-1,2.177314758E-1,-1.358211040E-2,3.438479509E-1
1.910134593E0,-2.490738630E-1,1.916227341E-1,1.039705276E-1,3.310089607E-1
1.915139958E0,-2.418614626E-1,1.942996979E-1,1.976451874E-1,3.678490992E-1
1.920145322E0,-2.298266888E-1,1.969966888E-1,2.958688736E-1,4.232805130E-1
1.925150687E0,-2.368237972E-1,2.044143677E-1,3.886197805E-1,4.988948571E-1
1.930156051E0,-2.579324245E-1,2.022237778E-1,4.471374750E-1,5.543965309E-1
1.935161416E0,-2.598271370E-1,1.999492645E-1,4.807471037E-1,5.819000148E-1
1.940166781E0,-2.711967230E-1,1.595668793E-1,5.177805424E-1,6.058926816E-1
1.945172145E0,-2.871800661E-1,1.050977707E-1,5.437300205E-1,6.238271131E-1
1.950177510E0,-2.745493650E-1,6.038093567E-2,5.299607515E-1,5.999013331E-1
1.955182874E0,-2.906954288E-1,-7.894515991E-3,5.098586082E-1,5.869599272E-1
1.960188239E0,-3.067972660E-1,-7.105636597E-2,4.882535934E-1,5.810035637E-1
1.965193603E0,-3.372788429E-1,-1.576118469E-1,4.556174278E-1,5.883755202E-1
1.970198968E0,-3.724656105E-1,-2.531471252E-1,4.024524689E-1,6.039719263E-1
1.975204333E0,-4.027197361E-1,-3.148775101E-1,3.194309473E-1,6.027994379E-1
1.980209697E0,-4.044587612E-1,-3.430442810E-1,2.259492874E-1,5.764714639E-1
1.985215062E0,-3.828220367E-1,-3.568859100E-1,9.365296364E-2,5.316870717E-1
1.990220426E0,-3.382456303E-1,-3.421840668E-1,-4.357063770E-2,4.831132811E-1
1.995225791E0,-2.519438267E-1,-2.706117630E-1,-1.471823454E-1,3.979561042E-1
2.000231156E0,-1.764419079E-1,-1.948137283E-1,-2.691524029E-1,3.762009457E-1
2.005236520E0,-1.068949699E-1,-1.384468079E-1,-3.657421470E-1,4.054150605E-1
2.010241885E0,-8.616518974E-2,-1.059827805E-1,-4.746512771E-1,4.939135800E-1
2.015247249E0,-7.603955269E-2,-9.710311890E-2,-5.240100026E-1,5.383284426E-1
2.020252614E0,-9.536600113E-2,-4.034042358E-2,-5.709571838E-1,5.802707383E-1
2.025257978E0,-1.485919952E-1,2.594757080E-2,-5.487700701E-1,5.691234025E-1
2.030263343E0,-2.162904739E-1,1.064395905E-1,-5.289735198E-1,5.813122570E-1
2.035268708E0,-2.934072018E-1,1.772365570E-1,-4.688078165E-1,5.807592892E-1
2.040274072E0,-3.892929554E-1,2.336683273E-1,-3.875200152E-1,5.969268419E-1
2.045279437E0,-4.751758575E-1,2.805347443E-1,-2.713009119E-1,6.148951318E-1
2.050284801E0,-5.605831146E-1,3.178653717E-1,-1.539233923E-1,6.625588530E-1
2.055290166E0,-6.359484196E-1,3.361835480E-1,-4.517912865E-2,7.207571879E-1
2.060295531E0,-7.154762745E-1,3.498086929E-1,8.785676956E-2,8.012435541E-1
2.065300895E0,-8.086037636E-1,3.302173615E-1,1.780666113E-1,8.913984913E-1
2.070306260E0,-8.675041199E-1,2.965993881E-1,2.873057127E-1,9.607700909E-1
2.075311624E0,-9.399852753E-1,2.490301132E-1,3.770717382E-1,1.042962804E0
2.080316989E0,-1.006853819E0,2.350740433E-1,4.521559477E-1,1.128476592E0
2.085322353E0,-1.058529139E0,2.401323318E-1,5.170966387E-1,1.202304624E0
2.090327718E0,-1.085718393E0,2.498140335E-1,5.624408722E-1,1.248010904E0
2.095333083E0,-1.126481771E0,2.687749863E-1,5.834217072E-1,1.296758290E0
2.100338447E0,-1.176111937E0,2.637014389E-1,6.037474871E-1,1.348068531E0
2.105343812E0,-1.213185310E0,2.743721008E-1,6.030758619E-1,1.382316585E0
2.110349176E0,-1.254549503E0,2.704792023E-1,5.872340202E-1,1.411345900E0
2.115354541E0,-1.281129837E0,2.329225540E-1,5.703076124E-1,1.421547519E0
2.120359906E0,-1.302339315E0,1.951837540E-1,5.475180149E-1,1.426169824E0
2.125365270E0,-1.280030012E0,1.429262161E-1,5.187280178E-1,1.388518452E0
2.130370635E0,-1.223623514E0,7.136440277E-2,4.935637712E-1,1.321344989E0
2.135375999E0,-1.123501062E0,1.873207092E-2,4.290518761E-1,1.202784702E0
2.140381364E0,-9.796202183E-1,8.861541748E-3,3.780150414E-1,1.050061746E0
2.145386728E0,-7.876355648E-1,3.540992737E-3,3.072420359E-1,8.454466217E-1
2.150392093E0,-6.054298878E-1,1.722717285E-2,2.696142197E-1,6.629735681E-1
2.155397458E0,-4.191050529E-1,-2.530097961E-3,2.080299854E-1,4.679016153E-1
2.160402822E0,-2.767601013E-1,-2.688789368E-2,1.992079020E-1,3.420568677E-1
2.165408187E0,-1.545319557E-1,-7.489776611E-2,1.906192303E-1,2.565647904E-1
2.170413551E0,-2.834463120E-2,-1.226139069E-1,1.920876503E-1,2.296415765E-1
2.175418916E0,6.367754936E-2,-1.987113953E-1,2.036898136E-1,2.916000498E-1
2.180424281E0,1.743569374E-1,-2.506036758E-1,2.207436562E-1,3.767363875E-1
2.185429645E0,2.797203064E-1,-3.021850586E-1,2.292217016E-1,4.712768273E-1
2.190435010E0,3.655049801E-1,-3.343458176E-1,2.435890436E-1,5.520114477E-1
2.195440374E0,4.603962898E-1,-3.471250534E-1,2.877242565E-1,6.443956814E-1
2.200445739E0,5.309517384E-1,-3.405857086E-1,2.993856668E-1,6.982407542E-1
2.205451103E0,6.012175083E-1,-3.148136139E-1,3.501567841E-1,7.636621486E-1
2.210456468E0,6.711144447E-1,-2.937955856E-1,3.724963665E-1,8.218661613E-1
2.215461833E0,7.692544460E-1,-2.345695496E-1,3.612211943E-1,8.816212495E-1
2.220467197E0,8.525598049E-1,-1.468276978E-1,3.828504086E-1,9.460396552E-1
2.225472562E0,9.353190660E-1,1.710319519E-2,3.651803732E-1,1.004226558E0
2.230477926E0,1.036564589E0,1.853637695E-1,3.318251371E-1,1.104053348E0
2.235483291E0,1.137128830E0,3.675041199E-1,2.875645161E-1,1.229151986E0
2.240488656E0,1.236901999E0,5.157661438E-1,2.517172098E-1,1.363562548E0
2.245494020E0,1.311914921E0,6.111345291E-1,2.194727659E-1,1.463821870E0
2.250499385E0,1.400456071E0,6.681280136E-1,1.818443537E-1,1.562286663E0
2.255504749E0,1.468895435E0,6.869192123E-1,2.061711550E-1,1.634630952E0
2.260510114E0,1.507885456E0,6.723785400E-1,2.114524841E-1,1.664488991E0
2.265515478E0,1.541363478E0,6.485376358E-1,2.269508839E-1,1.687574928E0
2.270520843E0,1.550310373E0,6.297826767E-1,2.435256243E-1,1.690974040E0
2.275526208E0,1.549179554E0,5.731401443E-1,2.950812578E-1,1.677951091E0
2.280531572E0,1.537975073E0,4.930601120E-1,2.910130024E-1,1.641086276E0
2.285536937E0,1.502314806E0,3.896198273E-1,3.367161751E-1,1.588121900E0
2.290542301E0,1.447110653E0,2.389516830E-1,3.460341692E-1,1.506972725E0
2.295547666E0,1.377238512E0,6.976795197E-2,3.521614075E-1,1.423260743E0
2.300553031E0,1.311788440E0,-1.036014557E-1,3.547129631E-1,1.362843886E0
2.305558395E0,1.241082668E0,-3.098554611E-1,3.340867758E-1,1.322085689E0
2.310563760E0,1.160422325E0,-4.725427628E-1,3.233770132E-1,1.294005150E0
2.315569124E0,1.117543101E0,-5.918016434E-1,2.982096672E-1,1.299253930E0
2.320574489E0,1.107501864E0,-6.629800797E-1,2.438743114E-1,1.313612441E0
2.325579853E0,1.091963530E0,-6.001844406E-1,1.650938988E-1,1.256925498E0
2.330585218E0,1.132921696E0,-4.657802582E-1,5.724370480E-2,1.226270631E0
2.335590583E0,1.167893410E0,-2.455244064E-1,-5.554711819E-2,1.194714499E0
2.340595947E0,1.182406664E0,3.120422363E-3,-1.872919798E-1,1.197152263E0
2.345601312E0,1.171773553E0,2.418956757E-1,-2.802212834E-1,1.228857496E0
2.350606676E0,1.121639371E0,4.278650284E-1,-4.105117321E-1,1.268725046E0
2.355612041E0,1.046545744E0,5.754756927E-1,-5.395160317E-1,1.310537224E0
2.360617406E0,9.942916632E-1,6.896276474E-1,-6.667962074E-1,1.381600299E0
2.365622770E0,8.835734725E-1,7.369279861E-1,-8.306325078E-1,1.419054369E0
2.370628135E0,7.766640186E-1,7.557191849E-1,-1.035755634E0,1.499035763E0
2.375633499E0,6.498318911E-1,7.221059799E-1,-1.215399861E0,1.555929097E0
2.380638864E0,5.509920120E-1,6.456928253E-1,-1.422500372E0,1.656507993E0
2.385644228E0,4.659581184E-1,5.169506073E-1,-1.671465278E0,1.810566506E0
2.390649593E0,4.187663794E-1,3.933000565E-1,-1.942927003E0,2.026083797E0
2.395654958E0,3.997894526E-1,2.651901245E-1,-2.226925850E0,2.278015836E0
2.400660322E0,4.091386795E-1,1.612854004E-1,-2.475277185E0,2.514041484E0
2.405665687E0,4.466892481E-1,1.484508514E-1,-2.725907803E0,2.766250583E0
2.410671051E0,5.361207128E-1,1.787462234E-1,-2.987907648E0,3.040882725E0
2.415676416E0,6.004706025E-1,3.238239288E-1,-3.174704075E0,3.247179213E0
2.420681781E0,6.397432089E-1,5.547523499E-1,-3.224104881E0,3.333447739E0
2.425687145E0,6.204781532E-1,8.283443451E-1,-3.140569210E0,3.306708704E0
2.430692510E0,5.236645937E-1,1.139683723E0,-2.890777111E0,3.151142000E0
2.435697874E0,3.403080702E-1,1.464660645E0,-2.499416590E0,2.916868814E0
2.440703239E0,1.236858368E-1,1.683638573E0,-1.967219114E0,2.592274691E0
2.445708603E0,-1.060993671E-1,1.858758450E0,-1.414862275E0,2.338391607E0
2.450713968E0,-3.242491484E-1,1.980391026E0,-9.532188177E-1,2.221646290E0
2.455719333E0,-4.534473419E-1,1.981598377E0,-7.031399608E-1,2.150988709E0
2.460724697E0,-4.596952200E-1,1.881659031E0,-5.506950617E-1,2.013759036E0
2.465730062E0,-3.958172798E-1,1.719042778E0,-3.677068651E-1,1.801939991E0
2.470735426E0,-2.623265982E-1,1.594332695E0,-1.449448466E-1,1.622257993E0
2.475740791E0,-2.683866024E-2,1.555405617E0,-4.948095232E-2,1.556423885E0
2.480746156E0,2.521843910E-1,1.564007759E0,-1.472791433E-1,1.591040032E0
2.485751520E0,5.642123818E-1,1.577164650E0,-3.223037124E-1,1.705773616E0
2.490756885E0,8.125621676E-1,1.594988823E0,-4.255567789E-1,1.839930758E0
2.495762249E0,1.063909411E0,1.588825226E0,-4.325620532E-1,1.960453714E0
2.500767614E0,1.246088266E0,1.539638519E0,-3.000700176E-1,2.003313444E0
2.505772978E0,1.302125216E0,1.533466339E0,3.467586637E-2,2.012026716E0
2.510778343E0,1.218551040E0,1.484091759E0,4.860785306E-1,1.980824910E0
2.515783708E0,1.125733614E0,1.334111214E0,1.020503163E0,2.022017707E0
2.520789072E0,1.000871658E0,1.088397026E0,1.431385756E0,2.057964369E0
2.525794437E0,9.023220539E-1,7.136325836E-1,1.665078044E0,2.023843236E0
2.530799801E0,9.501793385E-1,1.670818329E-1,1.643787861E0,1.905989414E0
2.535805166E0,1.038839102E0,-4.026498795E-1,1.509855390E0,1.876426631E0
2.540810531E0,1.167071581E0,-9.713993073E-1,1.352791190E0,2.033646157E0
2.545815895E0,1.290237904E0,-1.500685692E0,1.238414288E0,2.334618029E0
2.550821260E0,1.397114158E0,-1.875678062E0,1.108986378E0,2.588425573E0
2.555826624E0,1.605569839E0,-2.125187874E0,1.060262561E0,2.866781245E0
2.560831989E0,1.828040600E0,-2.235065460E0,1.045375228E0,3.070840180E0
2.565837353E0,1.891770363E0,-2.239099503E0,1.032386422E0,3.107761801E0
2.570842718E0,1.782858610E0,-2.185445786E0,1.023065567E0,3.000236867E0
2.575848083E0,1.483692884E0,-2.045778275E0,9.663847685E-1,2.705633539E0
2.580853447E0,9.822691679E-1,-1.853977203E0,7.728790045E-1,2.235939656E0
2.585858812E0,3.530839682E-1,-1.562578201E0,4.052626789E-1,1.652439640E0
2.590864176E0,-2.863212824E-1,-1.277070045E0,-7.397001982E-2,1.310862060E0
2.595869541E0,-7.999541163E-1,-1.050040245E0,-5.699312091E-1,1.437822203E0
2.600874906E0,-1.091027737E0,-9.004163742E-1,-9.788883328E-1,1.720265543E0
2.605880270E0,-1.131068230E0,-8.517866135E-1,-1.154383540E0,1.826870858E0
2.610885635E0,-1.012216568E0,-9.467821121E-1,-1.016814232E0,1.718979328E0
2.615890999E0,-8.124271631E-1,-1.142014503E0,-5.286138654E-1,1.497887726E0
2.620896364E0,-5.712192059E-1,-1.480298042E0,2.530382276E-1,1.606736450E0
2.625901728E0,-2.989473343E-1,-1.980510712E0,1.132629514E0,2.301008866E0
2.630907093E0,2.835187316E-2,-2.585051537E0,1.838181853E0,3.172098328E0
2.635912458E0,1.864362955E-1,-3.121695518E0,2.408308029E0,3.947111471E0
2.640917822E0,6.151297688E-2,-3.504569054E0,2.866994858E0,4.528294117E0
2.645923187E0,-2.930431664E-1,-3.714766502E0,3.203777313E0,4.914219525E0
2.650928551E0,-6.666215658E-1,-3.953145981E0,3.282762051E0,5.181532026E0
2.655933916E0,-9.592428207E-1,-4.405782700E0,3.005925179E0,5.419100863E0
2.660939281E0,-1.286171079E0,-4.923892021E0,2.610343456E0,5.719514109E0
2.665944645E0,-1.686021924E0,-5.287448883E0,2.291162252E0,6.004099440E0
2.670950010E0,-2.154121876E0,-5.439588547E0,2.279002905E0,6.278791194E0
2.675955374E0,-2.657103777E0,-5.414487839E0,2.509186029E0,6.532449278E0
2.680960739E0,-3.084494114E0,-5.317972183E0,2.788112164E0,6.750444542E0
2.685966103E0,-3.426184177E0,-5.341616631E0,3.079284668E0,7.053623205E0
2.690971468E0,-3.715112686E0,-5.432809830E0,3.388409615E0,7.402621470E0
2.695976833E0,-4.022721767E0,-5.653694153E0,3.668097258E0,7.848661382E0
2.700982197E0,-4.315256596E0,-6.004131317E0,3.937453270E0,8.377026359E0
2.705987562E0,-4.583101273E0,-6.550889015E0,4.124619484E0,8.996190863E0
2.710992926E0,-4.831281662E0,-7.178956985E0,4.257817745E0,9.644050904E0
2.715998291E0,-5.050946712E0,-7.845186234E0,4.350871563E0,1.029510044E1
2.721003656E0,-5.170930386E0,-8.506533623E0,4.431946754E0,1.089687053E1
2.726009020E0,-5.263731003E0,-9.153495789E0,4.458031654E0,1.146156165E1
2.731014385E0,-5.258012772E0,-9.776622772E0,4.434455395E0,1.195380466E1
2.736019749E0,-5.192516327E0,-1.039513969E1,4.338040352E0,1.240321528E1
2.741025114E0,-5.029356956E0,-1.098999023E1,4.212281227E0,1.279912614E1
2.746030478E0,-4.793535709E0,-1.160414791E1,4.114370823E0,1.321220196E1
2.751035843E0,-4.485933304E0,-1.223271465E1,3.975755692E0,1.362239108E1
2.756041208E0,-4.064082146E0,-1.286131859E1,3.779814482E0,1.400775774E1
2.761046572E0,-3.557078838E0,-1.335143661E1,3.514182568E0,1.425703857E1
2.766051937E0,-2.988823175E0,-1.363665485E1,3.200152397E0,1.432244375E1
2.771057301E0,-2.278408527E0,-1.350728893E1,2.759657383E0,1.397332132E1
2.776062666E0,-1.407851219E0,-1.294513798E1,2.302134037E0,1.322340589E1
2.781068031E0,-4.034457207E-1,-1.184569931E1,1.722781420E0,1.197711720E1
2.786073395E0,6.022741795E-1,-1.039114475E1,1.074668407E0,1.046391588E1
2.791078760E0,1.486425281E0,-8.791889191E0,3.439804316E-1,8.923289651E0
2.796084124E0,2.228374481E0,-7.153249741E0,-5.459103584E-1,7.512166984E0
2.801089489E0,2.909878016E0,-5.643124580E0,-2.068890095E0,6.677765444E0
2.806094853E0,3.598793745E0,-4.295362473E0,-4.505231857E0,7.190171714E0
2.811100218E0,4.186466217E0,-2.985153198E0,-8.128020287E0,9.617814345E0
2.816105583E0,4.360264778E0,-1.533483505E0,-1.266435051E1,1.348144111E1
2.821110947E0,3.200369596E0,1.111688614E-1,-1.682773781E1,1.712972515E1
2.826116312E0,2.064863443E0,1.497162819E0,-1.675787735E1,1.695085870E1
2.831121676E0,2.312882662E0,2.485647202E0,-1.437829399E1,1.477373366E1
2.836127041E0,2.596265078E0,3.545027733E0,-1.334156799E1,1.404653874E1
2.841132406E0,2.681924582E0,4.521554947E0,-1.217711258E1,1.326345541E1
2.846137770E0,2.688729286E0,5.457479477E0,-1.077169132E1,1.237104205E1
2.851143135E0,2.484332323E0,6.241850376E0,-9.186538696E0,1.138090930E1
2.856148499E0,2.172255993E0,6.787753105E0,-7.547858715E0,1.038086988E1
2.861153864E0,1.774733782E0,7.013283730E0,-6.023978233E0,9.414039644E0
2.866159228E0,1.385188580E0,7.200151920E0,-4.777734756E0,8.751438995E0
2.871164593E0,1.263466597E0,7.448050499E0,-3.632822037E0,8.382553312E0
2.876169958E0,1.318758011E0,7.622572899E0,-2.404171228E0,8.100788825E0
2.881175322E0,1.430872202E0,7.742713928E0,-1.490746498E0,8.013696984E0
2.886180687E0,1.561046124E0,7.999620914E0,-7.312377691E-1,8.183245594E0
2.891186051E0,1.813636303E0,8.507721901E0,-1.898351908E-1,8.700956613E0
2.896191416E0,2.125075817E0,9.070754051E0,1.746701598E-1,9.317995275E0
2.901196781E0,2.508287191E0,9.684121132E0,3.845764995E-1,1.001107416E1
2.906202145E0,2.842529297E0,1.030504704E1,4.054120183E-1,1.069758506E1
2.911207510E0,3.217658758E0,1.089089012E1,4.137563705E-1,1.136380261E1
2.916212874E0,3.665724039E0,1.138009548E1,5.242942572E-1,1.196741369E1
2.921218239E0,4.113656521E0,1.180196381E1,5.067990422E-1,1.250861163E1
2.926223603E0,4.512628555E0,1.209491348E1,3.714204431E-1,1.291467002E1
2.931228968E0,4.733071327E0,1.230256367E1,2.729737163E-1,1.318444355E1
2.936234333E0,4.813454628E0,1.238696861E1,1.791002154E-1,1.329053851E1
2.941239697E0,4.702332497E0,1.233383179E1,7.178521156E-2,1.320001858E1
2.946245062E0,4.496649742E0,1.219576740E1,-1.405602694E-2,1.299833832E1
2.951250426E0,4.279160976E0,1.200130558E1,-8.640530705E-2,1.274166473E1
2.956255791E0,4.084346771E0,1.183635330E1,-7.245385647E-2,1.252143752E1
2.961261156E0,3.965531588E0,1.169590569E1,3.824144602E-2,1.234994385E1
2.966266520E0,3.813150406E0,1.158457661E1,1.791406870E-1,1.219732030E1
2.971271885E0,3.799715042E0,1.150700188E1,3.122522831E-1,1.212214618E1
2.976277249E0,3.743585348E0,1.140568638E1,4.854819775E-1,1.201415023E1
2.981282614E0,3.773883104E0,1.130456161E1,6.651824713E-1,1.193640544E1
2.986287978E0,3.875703335E0,1.121805000E1,8.078061342E-1,1.189614530E1
2.991293343E0,3.919423342E0,1.112709141E1,9.606435299E-1,1.183625272E1
2.996298708E0,4.052917480E0,1.108913898E1,1.108775854E0,1.185852130E1
3.001304072E0,4.060523033E0,1.097989273E1,1.189546585E0,1.176694152E1
3.006309437E0,4.109779835E0,1.090938854E1,1.293405771E0,1.172936261E1
3.011314801E0,4.247916222E0,1.091590691E1,1.386094332E0,1.179504444E1
3.016320166E0,4.349984646E0,1.092294788E1,1.476692438E0,1.184963195E1
3.021325531E0,4.324841022E0,1.087799740E1,1.512118101E0,1.180345621E1
3.026330895E0,4.225417137E0,1.081454372E1,1.563873649E0,1.171555405E1
3.031336260E0,4.118905067E0,1.074212265E1,1.550634742E0,1.160874869E1
3.036341624E0,3.976635695E0,1.064639473E1,1.530008316E0,1.146735705E1
3.041346989E0,3.803831816E0,1.059420013E1,1.482851028E0,1.135363643E1
3.046352353E0,3.610436678E0,1.045628929E1,1.366245031E0,1.114611431E1
3.051357718E0,3.435098171E0,1.035698700E1,1.189918518E0,1.097647417E1
3.056363083E0,3.192212105E0,1.019093323E1,9.686541557E-1,1.072304197E1
3.061368447E0,2.978075981E0,1.003936958E1,7.649959326E-1,1.049967128E1
3.066373812E0,2.740817308E0,9.801705360E0,5.840154290E-1,1.019443875E1
3.071379176E0,2.591266632E0,9.444430351E0,5.022401810E-1,9.806333291E0
3.076384541E0,2.655279875E0,8.680484772E0,7.862408757E-1,9.111503817E0
3.081389906E0,2.637171984E0,7.806582451E0,9.258668423E-1,8.291841475E0
3.086395270E0,2.268163681E0,7.764913559E0,5.334814787E-1,8.106975487E0
3.091400635E0,1.992223978E0,7.717915535E0,2.870498002E-1,7.976062573E0
3.096405999E0,1.852095127E0,6.934344292E0,3.279676139E-1,7.184911264E0
3.101411364E0,1.561531782E0,5.467912197E0,6.239550114E-1,5.720643771E0
3.106416728E0,1.075157762E0,3.539273739E0,1.032505274E0,3.840376277E0
3.111422093E0,4.636260271E-1,8.809137344E-1,1.847254753E0,2.098406115E0
3.116427458E0,-8.262741566E-1,-3.009018898E0,2.797461987E0,4.190789577E0
3.121432822E0,-2.555148125E0,-8.670525551E0,3.928213120E0,9.855843626E0
3.126438187E0,-4.361045837E0,-1.533762074E1,5.279516220E0,1.679686346E1
3.131443551E0,-6.137954712E0,-2.103605270E1,6.356688976E0,2.281660571E1
3.136448916E0,-7.744951248E0,-2.636668777E1,7.459773064E0,2.847515949E1
3.141454281E0,-9.064001083E0,-3.000269508E1,8.078542709E0,3.236635105E1
3.146459645E0,-9.377693176E0,-3.077544785E1,8.507490158E0,3.327832190E1
3.151465010E0,-8.825256348E0,-2.900177765E1,8.199884415E0,3.140424113E1
3.156470374E0,-7.396763802E0,-2.576506042E1,6.906795025E0,2.768129822E1
3.161475739E0,-5.925252914E0,-2.171733856E1,5.047173977E0,2.307001043E1
3.166481103E0,-5.205326080E0,-1.698356247E1,2.074807644E0,1.788411699E1
3.171486468E0,-5.091938019E0,-1.205101013E1,2.295210510E-1,1.308462296E1
3.176491833E0,-5.753299236E0,-9.172214508E0,6.916788220E-1,1.084934978E1
3.181497197E0,-6.963353157E0,-8.742100716E0,1.619227529E0,1.129311781E1
3.186502562E0,-7.842825890E0,-9.209297180E0,1.927481651E0,1.224892885E1
3.191507926E0,-8.274676323E0,-1.060470963E1,1.652395844E0,1.355214177E1
3.196513291E0,-7.988962173E0,-1.243862820E1,1.109068155E0,1.482474351E1
3.201518656E0,-7.232686043E0,-1.415327644E1,7.272388339E-1,1.591087231E1
3.206524020E0,-6.081949234E0,-1.505284977E1,7.117691040E-1,1.625069254E1
3.211529385E0,-4.560087204E0,-1.474495888E1,6.130506992E-1,1.544616583E1
3.216534749E0,-2.492635250E0,-1.327101803E1,-9.325371981E-1,1.353524199E1
3.221540114E0,-7.866835594E-2,-1.096614170E1,-3.943797827E0,1.165401192E1
3.226545478E0,2.141091347E0,-8.097771645E0,-7.598805904E0,1.130928950E1
3.231550843E0,3.372105122E0,-5.253628731E0,-1.075998402E1,1.243981366E1
3.236556208E0,3.558535814E0,-2.704301834E0,-1.220834732E1,1.300077574E1
3.241561572E0,2.927400351E0,-5.643463135E-1,-1.170672226E1,1.208037688E1
3.246566937E0,1.832556963E0,9.338521957E-1,-9.466611862E0,9.687470521E0
3.251572301E0,8.384079933E-1,1.894968987E0,-6.474252701E0,6.797777832E0
3.256577666E0,1.257908344E-1,2.379225254E0,-3.737422228E0,4.432252368E0
3.261583031E0,-3.497788906E-1,2.456163883E0,-1.602400780E0,2.953434366E0
3.266588395E0,-6.567995548E-1,2.453557491E0,-9.847581387E-2,2.541855130E0
3.271593760E0,-8.407328129E-1,2.517612934E0,9.999905825E-1,2.836404011E0
3.276599124E0,-9.339904785E-1,2.708924770E0,1.885767341E0,3.430266766E0
3.281604489E0,-9.842150211E-1,2.930691719E0,2.608511448E0,4.044992600E0
3.286609853E0,-9.871704578E-1,3.325637817E0,3.251134872E0,4.754392744E0
3.291615218E0,-8.722443581E-1,3.692326069E0,3.800648212E0,5.370196352E0
3.296620583E0,-6.799252033E-1,4.375015736E0,4.209143162E0,6.109005412E0
3.301625947E0,-3.612861633E-1,5.086925507E0,4.522581100E0,6.816236396E0
3.306631312E0,-1.495220661E-1,5.613755226E0,4.820142269E0,7.400701053E0
3.311636676E0,-9.906625748E-2,5.865757465E0,5.120754242E0,7.787107857E0
3.316642041E0,2.876043320E-2,6.030411720E0,5.283498764E0,8.017608862E0
3.321647406E0,1.096611023E-1,5.916998863E0,5.294390202E0,7.940621431E0
3.326652770E0,1.399190426E-1,5.473421097E0,4.964946747E0,7.391117104E0
3.331658135E0,3.955292702E-2,4.910448074E0,4.375789642E0,6.577355070E0
3.336663499E0,-4.655051231E-2,4.338039875E0,3.722556829E0,5.716483732E0
3.341668864E0,-7.468724251E-2,3.890037537E0,3.119110584E0,4.986664322E0
3.346674228E0,-2.592182159E-2,3.537734509E0,2.601705551E0,4.391481432E0
3.351679593E0,-1.075243950E-2,3.171269417E0,2.205815315E0,3.862989326E0
3.356684958E0,-4.827928543E-2,2.699890614E0,1.937300205E0,3.323382659E0
3.361690322E0,-1.384801865E-1,2.090345383E0,1.815884829E0,2.772392160E0
3.366695687E0,-2.810616493E-1,1.385810375E0,1.760473967E0,2.258037784E0
3.371701051E0,-3.992073536E-1,6.484746933E-1,1.713510752E0,1.875101340E0
3.376706416E0,-4.685714245E-1,-1.075153351E-1,1.674389124E0,1.742038365E0
3.381711781E0,-4.217207432E-1,-8.203506470E-1,1.541275740E0,1.796205577E0
3.386717145E0,-2.393858433E-1,-1.490529060E0,1.287882566E0,1.984344720E0
3.391722510E0,1.070404053E-1,-2.176123619E0,8.716912270E-1,2.346660872E0
3.396727874E0,5.879280567E-1,-2.796503067E0,3.441329002E-1,2.878283561E0
3.401733239E0,1.129783392E0,-3.227874756E0,-2.228740454E-1,3.427135654E0
3.406738603E0,1.610174417E0,-3.417716980E0,-8.211978674E-1,3.866240674E0
3.411743968E0,1.983196974E0,-3.485336304E0,-1.401030540E0,4.247767174E0
3.416749333E0,2.218049288E0,-3.329800606E0,-2.025089741E0,4.484228270E0
3.421754697E0,2.247037411E0,-2.912547112E0,-2.835874557E0,4.644813485E0
3.426760062E0,2.099736691E0,-2.295541763E0,-3.893486738E0,4.983738069E0
3.431765426E0,1.744493246E0,-1.664562225E0,-5.261299133E0,5.787511785E0
3.436770791E0,1.246889114E0,-1.209559441E0,-6.690375805E0,6.912227927E0
3.441776156E0,7.453210354E-1,-9.431734085E-1,-7.827097893E0,7.918872454E0
3.446781520E0,3.203184605E-1,-8.014259338E-1,-8.530302048E0,8.573852137E0
3.451786885E0,-1.105976105E-2,-6.535911560E-1,-8.661225319E0,8.685857916E0
3.456792249E0,-2.669460773E-1,-5.946369171E-1,-8.238445282E0,8.264189854E0
3.461797614E0,-4.094755650E-1,-5.242300034E-1,-7.484685898E0,7.514187270E0
3.466802978E0,-4.064264297E-1,-4.004650116E-1,-6.515254021E0,6.540190335E0
3.471808343E0,-3.362562656E-1,-4.783945084E-1,-5.470918655E0,5.502079654E0
3.476813708E0,-1.480050087E-1,-7.354764938E-1,-4.468419075E0,4.530960184E0
3.481819072E0,6.603550911E-2,-1.039064407E0,-3.513868809E0,3.664872377E0
3.486824385E0,3.529434204E-1,-1.285206795E0,-2.660438061E0,2.975610230E0
3.491829697E0,6.354520321E-1,-1.422398567E0,-1.965650082E0,2.508146170E0
3.496835010E0,9.604458809E-1,-1.451348305E0,-1.376366019E0,2.218840150E0
3.501840322E0,1.283704519E0,-1.353123665E0,-9.816915393E-1,2.107737940E0
3.506845635E0,1.603893042E0,-1.218339920E0,-5.822809935E-1,2.096634495E0
3.511850947E0,1.872298956E0,-1.094340324E0,-1.833425760E-1,2.176395788E0
3.516856260E0,2.069375038E0,-1.023587227E0,2.302616835E-1,2.320143164E0
3.521861572E0,2.200178862E0,-9.387464523E-1,6.119197607E-1,2.469104639E0
3.526866885E0,2.236295223E0,-9.208536148E-1,9.773186445E-1,2.608474542E0
3.531872197E0,2.254720688E0,-9.313697815E-1,1.318430662E0,2.772990166E0
3.536877510E0,2.203278542E0,-9.510383606E-1,1.612594843E0,2.891257931E0
3.541882822E0,2.092104197E0,-9.511594772E-1,1.870419025E0,2.963118569E0
3.546888135E0,1.916986465E0,-9.078998566E-1,2.059282303E0,2.956308993E0
3.551893447E0,1.702225924E0,-7.352771759E-1,2.213305473E0,2.887373675E0
3.556898760E0,1.438341618E0,-5.386552811E-1,2.304009199E0,2.769013274E0
3.561904072E0,1.135167122E0,-3.324861526E-1,2.446208477E0,2.717183717E0
3.566909385E0,8.318183422E-1,-1.266565323E-1,2.577547073E0,2.711404165E0
3.571914697E0,5.436038971E-1,1.024093628E-1,2.717215538E0,2.772950262E0
3.576920010E0,2.952899933E-1,3.639249802E-1,2.822068214E0,2.860717843E0
3.581925322E0,8.742713928E-2,6.624374390E-1,2.911363602E0,2.987056224E0
3.586930635E0,-1.084885597E-1,9.739160538E-1,2.956410646E0,3.114586033E0
3.591935947E0,-2.637033463E-1,1.250512123E0,2.990728378E0,3.252349344E0
3.596941260E0,-4.165694714E-1,1.501845837E0,2.956752300E0,3.342372691E0
3.601946572E0,-5.386188030E-1,1.718451023E0,2.873444557E0,3.391145493E0
3.606951885E0,-6.684713364E-1,1.881340981E0,2.735776424E0,3.386852589E0
3.611957197E0,-7.873766422E-1,1.947658539E0,2.533835649E0,3.291452394E0
3.616962562E0,-8.958525658E-1,1.941599846E0,2.267378330E0,3.116627388E0
3.621967926E0,-1.047128201E0,1.839542389E0,1.969571829E0,2.891298473E0
3.626973291E0,-1.174852371E0,1.680072308E0,1.692656875E0,2.658572615E0
3.631978656E0,-1.327316284E0,1.425110340E0,1.421621084E0,2.411164554E0
3.636984020E0,-1.480941296E0,1.084397316E0,1.155638218E0,2.169009993E0
3.641989385E0,-1.630867004E0,6.244516373E-1,9.273245335E-1,1.977270296E0
3.646994749E0,-1.747548580E0,1.550340652E-1,7.073490620E-1,1.891640636E0
3.652000114E0,-1.796573877E0,-2.621030807E-1,5.144735575E-1,1.887076777E0
3.657005478E0,-1.739622831E0,-5.506296158E-1,3.246883154E-1,1.853349150E0
3.662010843E0,-1.558276415E0,-7.488098145E-1,1.047258377E-1,1.732024545E0
3.667016208E0,-1.330249310E0,-8.659820557E-1,-1.114844084E-1,1.591199836E0
3.672021572E0,-1.052229881E0,-9.161262512E-1,-2.900606990E-1,1.424994821E0
3.677026937E0,-8.209180832E-1,-9.372262955E-1,-4.494785666E-1,1.324511461E0
3.682032301E0,-6.033213139E-1,-9.338779449E-1,-5.745682716E-1,1.251500429E0
3.687037666E0,-4.041409492E-1,-9.012994766E-1,-6.739528179E-1,1.195777176E0
3.692043031E0,-2.276642323E-1,-8.109169006E-1,-8.039622307E-1,1.164376439E0
3.697048395E0,-3.488683701E-2,-7.490596771E-1,-1.001980543E0,1.251508090E0
3.702053760E0,1.989438534E-1,-6.919813156E-1,-1.276637435E0,1.465680708E0
3.707059124E0,4.553184509E-1,-6.733531952E-1,-1.680154681E0,1.866450956E0
3.712064489E0,7.728810310E-1,-7.218532562E-1,-2.254780293E0,2.490472120E0
3.717069853E0,1.142683744E0,-8.373861313E-1,-3.008567810E0,3.325420566E0
3.722075218E0,1.564920187E0,-1.062386513E0,-3.876132965E0,4.313009049E0
3.727080583E0,2.030089378E0,-1.391052246E0,-4.857816696E0,5.445610369E0
3.732085947E0,2.390277386E0,-1.716905594E0,-5.708580017E0,6.422544403E0
3.737091312E0,2.549849033E0,-2.019603729E0,-6.303686619E0,7.093447279E0
3.742096676E0,2.542019844E0,-2.288682938E0,-6.735322952E0,7.554105490E0
3.747102041E0,2.437783241E0,-2.389883041E0,-6.949614525E0,7.742833469E0
3.752107406E0,2.259912968E0,-2.318900108E0,-6.996008873E0,7.708997632E0
3.757112770E0,1.974029303E0,-2.196376801E0,-6.811214924E0,7.423847485E0
3.762118135E0,1.542107105E0,-2.071643829E0,-6.400403023E0,6.901808555E0
3.767123499E0,1.051414251E0,-1.922476768E0,-6.070751667E0,6.454100608E0
3.772128864E0,5.847764015E-1,-1.731323242E0,-5.799013138E0,6.080131329E0
3.777134228E0,2.243850231E-1,-1.432297707E0,-5.417849541E0,5.608468508E0
3.782139593E0,8.504438400E-2,-1.006808281E0,-4.782835007E0,4.888395050E0
3.787144958E0,-1.587820053E-2,-4.212760925E-1,-3.866528273E0,3.889442961E0
3.792150322E0,-2.797260284E-1,2.336559296E-1,-2.753992558E0,2.778005895E0
3.797155687E0,-6.103742123E-1,7.764234543E-1,-1.643708944E0,1.917594627E0
3.802161051E0,-9.687371254E-1,1.259745598E0,-4.522565603E-1,1.652255000E0
3.807166416E0,-1.286945581E0,1.721752644E0,6.967810392E-1,2.259682480E0
3.812171781E0,-1.492150307E0,2.090390205E0,1.674101472E0,3.065755941E0
3.817177145E0,-1.545312881E0,2.451556206E0,2.114593506E0,3.587426017E0
3.822182510E0,-1.450535297E0,2.728521824E0,1.891572356E0,3.623110538E0
3.827187874E0,-1.236146212E0,2.950067043E0,1.165775299E0,3.404406713E0
3.832193239E0,-1.021415710E0,3.145051956E0,4.812949300E-1,3.341599418E0
3.837198603E0,-8.068993092E-1,3.333002090E0,9.637019038E-2,3.430637935E0
3.842203968E0,-6.080858707E-1,3.557414532E0,1.714481413E-2,3.609052579E0
3.847209333E0,-4.649460316E-1,3.756571293E0,1.454953849E-1,3.788030042E0
3.852214697E0,-3.502101898E-1,3.897342205E0,5.229523182E-1,3.947835175E0
3.857220062E0,-3.508102894E-1,3.927238941E0,1.057238698E0,4.082159628E0
3.862225426E0,-3.375911713E-1,3.903599262E0,1.544580221E0,4.211624753E0
3.867230791E0,-3.532881737E-1,3.802300930E0,1.904203057E0,4.267117784E0
3.872236156E0,-5.067224503E-1,3.565607548E0,2.284036636E0,4.264639279E0
3.877241520E0,-6.619279385E-1,3.303151131E0,2.696748734E0,4.315253147E0
3.882246885E0,-7.358584404E-1,3.019392014E0,3.005861282E0,4.323588536E0
3.887252249E0,-7.559237480E-1,2.795571804E0,3.227312326E0,4.336148899E0
3.892257614E0,-6.402435303E-1,2.631893635E0,3.285786867E0,4.258306144E0
3.897262978E0,-3.896732330E-1,2.524375439E0,3.267755032E0,4.147594427E0
3.902268343E0,-2.066802979E-2,2.407403469E0,3.221028328E0,4.021323429E0
3.907273708E0,4.636964798E-1,2.253934860E0,3.400189400E0,4.105669828E0
3.912279072E0,1.083780527E0,2.046392441E0,3.922926426E0,4.555398336E0
3.917284437E0,1.716871262E0,1.714065075E0,4.679798126E0,5.271259481E0
3.922289801E0,2.427753925E0,1.156905174E0,5.511510372E0,6.132631188E0
3.927295166E0,3.181358576E0,3.702287674E-1,6.364996433E0,7.125397626E0
3.932300531E0,3.709263325E0,-6.557521820E-1,7.192049026E0,8.118756958E0
3.937305895E0,4.035921574E0,-1.730069160E0,7.833568096E0,8.980344724E0
3.942311260E0,4.037559509E0,-2.790924072E0,8.310830116E0,9.651996746E0
3.947316624E0,3.839281797E0,-3.881551743E0,8.623952866E0,1.020681594E1
3.952321989E0,3.461113691E0,-5.021025658E0,8.856995583E0,1.075343561E1
3.957327353E0,3.005251884E0,-6.223745346E0,8.997164726E0,1.134528616E1
3.962332718E0,2.583150387E0,-7.394042969E0,8.911706924E0,1.186436082E1
3.967338083E0,2.244567871E0,-8.508355141E0,8.463430405E0,1.220900677E1
3.972343447E0,2.134805441E0,-9.610136032E0,7.500524044E0,1.237618559E1
3.977348812E0,2.087862492E0,-1.037949753E1,6.034732342E0,1.218651440E1
3.982354176E0,1.875526905E0,-1.063601208E1,4.214329243E0,1.159322755E1
3.987359541E0,1.447500825E0,-1.044869041E1,2.143390179E0,1.076403788E1
3.992364906E0,7.625052929E-1,-9.934215546E0,-1.184677482E-1,9.964140075E0
3.997370270E0,-9.096527100E-1,-8.998300552E0,-2.376832485E0,9.351268018E0
4.002375635E0,-2.878721476E0,-8.536035538E0,-4.391603947E0,1.002183243E1
4.007380999E0,-4.842734337E0,-8.321975708E0,-5.700363636E0,1.118934766E1
4.012386364E0,-6.504129410E0,-8.145298004E0,-6.085439205E0,1.206988605E1
4.017391728E0,-7.937177181E0,-8.135208130E0,-5.692284584E0,1.271151040E1
4.022397093E0,-9.019611359E0,-8.129019737E0,-4.776202202E0,1.304785264E1
4.027402458E0,-9.821851730E0,-8.174425125E0,-3.707607746E0,1.330550085E1
4.032407822E0,-1.037230778E1,-8.438547134E0,-2.685814142E0,1.363845460E1
4.037413187E0,-1.070472336E1,-9.031052589E0,-1.916918516E0,1.413596794E1
4.042418551E0,-1.094931793E1,-9.836816788E0,-1.269936800E0,1.477373572E1
4.047423916E0,-1.104574490E1,-1.080305958E1,-6.156517863E-1,1.546265190E1
4.052429281E0,-1.113115120E1,-1.188643360E1,1.490342319E-1,1.628533211E1
4.057434645E0,-1.126621628E1,-1.304355431E1,8.297368288E-1,1.725544556E1
4.062440010E0,-1.133045959E1,-1.417335606E1,1.190175533E0,1.818460487E1
4.067445374E0,-1.110342312E1,-1.509328651E1,1.531880617E0,1.879999896E1
4.072450739E0,-1.039401245E1,-1.540064335E1,1.876731396E0,1.867451288E1
4.077456103E0,-9.441350937E0,-1.527655792E1,2.187027454E0,1.809130782E1
4.082461468E0,-8.042491913E0,-1.440015125E1,2.417355776E0,1.667002223E1
4.087466833E0,-6.257546425E0,-1.269643402E1,2.623524427E0,1.439580510E1
4.092472197E0,-4.545542717E0,-1.071323490E1,2.598557234E0,1.192425513E1
4.097477562E0,-2.870987177E0,-8.695343018E0,2.259184361E0,9.431620833E0
4.102482926E0,-1.258723021E0,-6.809605598E0,1.627702236E0,7.113685867E0
4.107488291E0,1.033718586E-1,-5.174498558E0,8.844673634E-1,5.250562216E0
4.112493656E0,1.229179144E0,-3.760185242E0,1.092499495E-1,3.957500470E0
4.117499020E0,2.195021868E0,-2.580042839E0,-8.059115410E-1,3.481987286E0
4.122504385E0,3.068482399E0,-1.671785355E0,-1.850256205E0,3.953972500E0
4.127509749E0,3.663870096E0,-9.824542999E-1,-2.946961403E0,4.803513510E0
4.132515114E0,4.059460163E0,-4.068927765E-1,-3.875902176E0,5.627379161E0
4.137520478E0,4.367136955E0,1.693363190E-1,-4.594171524E0,6.340896779E0
4.142525843E0,4.602567673E0,8.176059723E-1,-5.082804680E0,6.905578334E0
4.147531208E0,4.780970573E0,1.547183514E0,-5.356227398E0,7.344428391E0
4.152536572E0,4.955581188E0,2.338668346E0,-5.428897381E0,7.713629581E0
4.157541937E0,5.059691906E0,3.187133789E0,-5.382196426E0,8.045268320E0
4.162547301E0,5.150768280E0,4.058963776E0,-5.235757828E0,8.391588696E0
4.167552666E0,5.223751068E0,4.901468277E0,-4.952378273E0,8.708502572E0
4.172558031E0,5.253995895E0,5.623935223E0,-4.619360447E0,8.976169071E0
4.177563395E0,5.207493782E0,6.231309891E0,-4.190306664E0,9.138155414E0
4.182568760E0,5.289225578E0,6.613779545E0,-3.648050308E0,9.220968395E0
4.187574124E0,5.326098442E0,7.020433426E0,-3.147294044E0,9.357311040E0
4.192579489E0,5.456771851E0,7.517970562E0,-2.699559689E0,9.673875279E0
4.197584853E0,5.652075768E0,7.933904648E0,-2.274386644E0,1.000328136E1
4.202590218E0,5.949714661E0,8.473917007E0,-1.950983882E0,1.053625703E1
4.207595583E0,6.348890305E0,9.023211479E0,-1.716975927E0,1.116578523E1
4.212600947E0,6.652516842E0,9.476936340E0,-1.496835589E0,1.167513681E1
4.217606312E0,7.070904732E0,1.002193451E1,-1.299854636E0,1.233395667E1
4.222611676E0,7.728092194E0,1.052907944E1,-1.087773919E0,1.310603582E1
4.227617041E0,8.369399071E0,1.113291931E1,-1.122563601E0,1.397314862E1
4.232622406E0,8.702806473E0,1.158511829E1,-1.492266417E0,1.456642253E1
4.237627770E0,8.911455154E0,1.193852520E1,-1.919567108E0,1.502089061E1
4.242633135E0,9.001940727E0,1.210703468E1,-2.547772169E0,1.530053492E1
4.247638499E0,8.718170166E0,1.213350487E1,-3.104793549E0,1.526001882E1
4.252643864E0,8.530550003E0,1.208482361E1,-3.449478626E0,1.518921156E1
4.257649228E0,8.400875092E0,1.195156002E1,-3.724590302E0,1.507604266E1
4.262654593E0,8.357223511E0,1.183921623E1,-3.935208321E0,1.501652724E1
4.267659958E0,8.130779266E0,1.152315426E1,-3.991900444E0,1.465700941E1
4.272665322E0,7.988577843E0,1.099893379E1,-3.911456823E0,1.414543796E1
4.277670687E0,7.723477364E0,1.024794197E1,-3.653544903E0,1.334244384E1
4.282676051E0,7.195742607E0,9.476327896E0,-3.187217236E0,1.231819207E1
4.287681416E0,6.678605080E0,8.932374954E0,-2.624619007E0,1.145773595E1
4.292686781E0,6.240133286E0,8.610279083E0,-2.058176994E0,1.083107852E1
4.297692145E0,5.938597202E0,8.442210197E0,-1.565648556E0,1.043978473E1
4.302697510E0,5.702873230E0,8.432262421E0,-1.148436904E0,1.024425302E1
4.307702874E0,5.533286095E0,8.522588730E0,-8.173477650E-1,1.019410766E1
4.312708239E0,5.453788280E0,8.741685867E0,-5.253867507E-1,1.031682653E1
4.317713603E0,5.468829155E0,9.036884308E0,-2.207295895E-1,1.056513568E1
4.322718968E0,5.505978107E0,9.274464607E0,8.170586824E-2,1.078601708E1
4.327724333E0,5.531332016E0,9.488171577E0,4.151135683E-1,1.099060294E1
4.332729697E0,5.530205250E0,9.630377769E0,7.075943947E-1,1.112780463E1
4.337735062E0,5.402117729E0,9.639049530E0,8.877609372E-1,1.108522762E1
4.342740426E0,5.214615822E0,9.542872429E0,9.898744226E-1,1.091963753E1
4.347745791E0,5.040200233E0,9.446889877E0,1.047977924E0,1.075851312E1
4.352751156E0,4.831729889E0,9.298218727E0,1.101292610E0,1.053638129E1
4.357756520E0,4.632916927E0,9.077564240E0,1.107675552E0,1.025148950E1
4.362761885E0,4.405955791E0,8.885303497E0,1.101643085E0,9.978711448E0
4.367767249E0,4.160923958E0,8.649539948E0,1.089102030E0,9.659915772E0
4.372772614E0,3.898260593E0,8.384593964E0,1.071182013E0,9.308344777E0
4.377777978E0,3.699621439E0,8.128715515E0,1.058332920E0,8.993513401E0
4.382783343E0,3.502932787E0,7.896247864E0,1.008169174E0,8.696992211E0
4.387788708E0,3.317649126E0,7.663364410E0,9.594521523E-1,8.405623013E0
4.392794072E0,3.176911592E0,7.391995430E0,8.791201115E-1,8.093652814E0
4.397799437E0,2.989476919E0,6.991450787E0,8.195619583E-1,7.647812639E0
4.402804801E0,2.807756186E0,6.371067524E0,7.942620516E-1,7.007485169E0
4.407810166E0,2.617051125E0,5.459407806E0,6.919167638E-1,6.093672045E0
4.412815531E0,2.388524055E0,4.400374413E0,6.131459475E-1,5.044233350E0
4.417820895E0,2.031595469E0,3.050767422E0,4.975690842E-1,3.698937280E0
4.422826260E0,1.484823227E0,1.248411655E0,5.869786143E-1,2.026764804E0
4.427831624E0,7.446782589E-1,-1.054038048E0,1.041591406E0,1.658449448E0
4.432836989E0,-2.058084011E-1,-4.014196396E0,1.791679502E0,4.400709629E0
4.437842353E0,-1.775563717E0,-7.650829315E0,2.734499931E0,8.316568138E0
4.442847718E0,-3.884573221E0,-1.170074272E1,3.834929705E0,1.291138936E1
4.447853083E0,-6.294717789E0,-1.595884705E1,4.932050228E0,1.785030505E1
4.452858447E0,-8.434272766E0,-1.971808624E1,5.792664051E0,2.221474373E1
4.457863812E0,-9.889286041E0,-2.245755768E1,6.222010612E0,2.531508031E1
4.462869176E0,-1.060145855E1,-2.353073311E1,6.191608429E0,2.654095588E1
4.467874541E0,-1.044649887E1,-2.244316483E1,5.818528175E0,2.542990869E1
4.472879906E0,-9.697375298E0,-1.924925613E1,5.084224224E0,2.214548002E1
4.477885270E0,-9.308757782E0,-1.478003979E1,4.294447899E0,1.798735195E1
4.482890635E0,-9.366728783E0,-1.084818077E1,4.150167465E0,1.492121054E1
4.487895999E0,-9.360848427E0,-8.360035896E0,4.186460972E0,1.323034916E1
4.492901364E0,-8.844217300E0,-6.463431358E0,3.895469904E0,1.162629822E1
4.497906728E0,-7.948941231E0,-4.968422890E0,3.181078434E0,9.898997561E0
4.502912093E0,-6.961316109E0,-4.017832756E0,2.258556366E0,8.348890877E0
4.507917458E0,-6.123419762E0,-3.901143074E0,1.359990120E0,7.386796328E0
4.512922822E0,-5.564413071E0,-4.490648270E0,7.732486725E-1,7.192115698E0
4.517928187E0,-5.302768707E0,-5.907791138E0,2.523877621E-1,7.942609878E0
4.522933551E0,-5.211620331E0,-7.872971535E0,-1.112397313E-1,9.442300649E0
4.527938916E0,-5.180684090E0,-1.019448566E1,-4.086446464E-1,1.144264026E1
4.532944281E0,-4.925471306E0,-1.255345631E1,-9.067137837E-1,1.351560811E1
4.537949645E0,-4.157488346E0,-1.444570446E1,-1.715783834E0,1.512967286E1
4.542955010E0,-2.789029121E0,-1.528986835E1,-2.697569609E0,1.577452502E1
4.547960374E0,-1.018847227E0,-1.482300091E1,-3.954521894E0,1.537522842E1
4.552965739E0,7.488029003E-1,-1.326343536E1,-5.703042507E0,1.445697469E1
4.557971103E0,2.187088966E0,-1.107299042E1,-7.886229992E0,1.376906309E1
4.562976468E0,2.946462870E0,-8.430871964E0,-9.398451805E0,1.296503536E1
4.567981833E0,2.669937134E0,-5.889476776E0,-9.422835350E0,1.142822502E1
4.572987197E0,1.453989506E0,-3.696048737E0,-7.881673813E0,8.825850885E0
4.577992562E0,1.432399750E-1,-2.042435646E0,-5.513328075E0,5.881228403E0
4.582997926E0,-8.314723969E-1,-9.541368484E-1,-3.189728260E0,3.431630785E0
4.588003291E0,-1.465414524E0,-3.899869919E-1,-1.394286036E0,2.059991052E0
4.593008656E0,-2.048936367E0,-2.206134796E-2,-2.207313776E-1,2.060909819E0
4.598014020E0,-2.608443975E0,3.674764633E-1,5.883665085E-1,2.699109867E0
4.603019385E0,-2.985471964E0,7.722330093E-1,1.147149444E0,3.290188219E0
4.608024749E0,-3.229113102E0,1.196115494E0,1.583273053E0,3.790068240E0
4.613030114E0,-3.322870255E0,1.624672413E0,1.980988622E0,4.195872150E0
4.618035478E0,-3.169717789E0,2.001106262E0,2.453746080E0,4.480223985E0
4.623040843E0,-2.792234898E0,2.541687489E0,3.030083418E0,4.841296989E0
4.628046208E0,-2.427034140E0,2.960147858E0,3.816112995E0,5.405153878E0
4.633051572E0,-1.901700497E0,3.156553268E0,4.437318802E0,5.768023185E0
4.638056937E0,-1.449156046E0,3.221993446E0,4.938475609E0,6.072053718E0
4.643062301E0,-8.622002602E-1,3.333467007E0,5.350893974E0,6.362975554E0
4.648067666E0,-1.405210495E-1,3.581854343E0,5.681637287E0,6.717918499E0
4.653073031E0,6.526772976E-1,3.809594154E0,5.841470718E0,7.004411141E0
4.658078395E0,1.315178633E0,3.907221794E0,5.913068771E0,7.208360374E0
4.663083760E0,1.870284796E0,3.956499100E0,5.777962685E0,7.248220687E0
4.668089124E0,2.264669418E0,4.048679352E0,5.428011894E0,7.140297276E0
4.673094489E0,2.474338770E0,4.116860390E0,4.807220459E0,6.795605960E0
4.678099853E0,2.466324091E0,4.184885502E0,4.093998909E0,6.352704011E0
4.683105218E0,2.346930742E0,4.271605968E0,3.529011250E0,6.017360041E0
4.688110583E0,2.232081652E0,4.376675129E0,3.046630621E0,5.780954231E0
4.693115947E0,2.232208490E0,4.509533405E0,2.676841497E0,5.699484773E0
4.698121312E0,2.251473904E0,4.593714237E0,2.434965611E0,5.665721733E0
4.703126676E0,2.251446962E0,4.509868145E0,2.302767038E0,5.541719962E0
4.708132041E0,2.198564053E0,4.143588543E0,2.161573172E0,5.164824148E0
4.713137406E0,2.082995892E0,3.519438267E0,1.945588470E0,4.528866535E0
4.718078447E0,1.971259356E0,2.686051369E0,1.642250419E0,3.714528481E0
4.723024645E0,1.849036932E0,1.705760002E0,1.317541122E0,2.839800938E0
4.727978135E0,1.735492229E0,5.257272720E-1,9.781312943E-1,2.060355132E0
4.732940687E0,1.649435759E0,-8.642807007E-1,5.985505581E-1,1.955986253E0
4.737913656E0,1.565873623E0,-2.216703415E0,1.135230064E-2,2.714012363E0
4.742897926E0,1.463146925E0,-3.221496582E0,-6.901600957E-1,3.604880041E0
4.747893916E0,1.266532660E0,-3.749737740E0,-1.482833028E0,4.226515336E0
4.752901520E0,9.746077061E-1,-3.911215782E0,-2.179089546E0,4.582128362E0
4.757920166E0,6.450858116E-1,-3.954072952E0,-2.813292027E0,4.895451015E0
4.762948916E0,2.985184193E-1,-3.910905838E0,-3.395983219E0,5.188159572E0
4.767986416E0,-3.394198418E-2,-3.804914474E0,-4.092125893E0,5.587845787E0
4.773031051E0,-3.489770889E-1,-3.597243309E0,-4.909735680E0,6.096511205E0
4.778080947E0,-5.805056095E-1,-3.311204910E0,-5.861975670E0,6.757501274E0
4.783134124E0,-6.240758896E-1,-2.974805832E0,-6.756843567E0,7.409040116E0
4.788188499E0,-4.527297020E-1,-2.548935890E0,-7.494457245E0,7.928992859E0
4.793223760E0,-1.515436172E-1,-2.022997856E0,-7.919126511E0,8.174842536E0
4.798229124E0,1.822762489E-1,-1.391301155E0,-8.050288200E0,8.171663456E0
4.803234489E0,4.685635567E-1,-6.821765900E-1,-7.853290081E0,7.896776672E0
4.808239853E0,6.739130020E-1,-1.347436905E-1,-7.343288898E0,7.375378393E0
4.813245166E0,7.471623421E-1,9.735393524E-2,-6.517185211E0,6.560596957E0
4.818250478E0,7.164416313E-1,6.556415558E-2,-5.504849434E0,5.551662324E0
4.823255791E0,6.831252575E-1,-1.216087341E-1,-4.444703102E0,4.498536925E0
4.828261103E0,6.915512085E-1,-2.741956711E-1,-3.445020676E0,3.524428152E0
4.833266416E0,7.233734131E-1,-3.789634705E-1,-2.479440689E0,2.610461365E0
4.838271728E0,7.884984016E-1,-4.174528122E-1,-1.707446456E0,1.926491625E0
4.843277041E0,8.724503517E-1,-4.042043686E-1,-1.086442590E0,1.450830207E0
4.848282353E0,8.745319843E-1,-4.634714127E-1,-5.683795214E-1,1.141344480E0
4.853287666E0,8.185877800E-1,-6.523990631E-1,-1.529693604E-1,1.057880010E0
4.858292978E0,6.762413979E-1,-9.803686142E-1,2.176449299E-1,1.210699948E0
4.863298291E0,5.101923943E-1,-1.389905930E0,5.389397144E-1,1.575623936E0
4.868303603E0,3.496122360E-1,-1.790151596E0,8.111481667E-1,1.996204599E0
4.873308916E0,1.995785236E-1,-2.119075775E0,1.024608970E0,2.362231417E0
4.878314228E0,1.077802181E-1,-2.371967316E0,1.193499684E0,2.657496382E0
4.883319541E0,4.033136368E-2,-2.434067726E0,1.350944281E0,2.784126930E0
4.888324853E0,-1.755809784E-2,-2.382019997E0,1.453520060E0,2.790528286E0
4.893330166E0,-4.244112968E-2,-2.129772186E0,1.558165193E0,2.639244131E0
4.898335478E0,-4.393887520E-2,-1.687158585E0,1.616675973E0,2.337108452E0
4.903340791E0,-2.688121796E-2,-1.102202415E0,1.705571890E0,2.030898382E0
4.908346103E0,1.398420334E-2,-4.660873413E-1,1.767455459E0,1.827931007E0
4.913351416E0,6.941604614E-2,1.349687576E-1,1.831182957E0,1.837461884E0
4.918356728E0,1.156959534E-1,6.914310455E-1,1.959102750E0,2.080756119E0
4.923362041E0,1.723062992E-1,1.145902634E0,2.117863178E0,2.414151352E0
4.928367353E0,2.012104988E-1,1.503237247E0,2.259645462E0,2.721434457E0
4.933372666E0,2.027366161E-1,1.758693695E0,2.413218021E0,2.992946185E0
4.938377978E0,1.674072742E-1,1.926730156E0,2.511507988E0,3.169855937E0
4.943383343E0,9.519171715E-2,1.988341331E0,2.563941479E0,3.245975758E0
4.948388708E0,3.377103806E-2,1.915019035E0,2.603840113E0,3.232401850E0
4.953394072E0,-6.495690346E-2,1.726112366E0,2.549499273E0,3.079550266E0
4.958399437E0,-1.487126350E-1,1.464931965E0,2.424747944E0,2.836819293E0
4.963404801E0,-2.559731007E-1,1.203361988E0,2.191214561E0,2.512971062E0
4.968410166E0,-2.770087719E-1,1.013228416E0,1.982753277E0,2.243808423E0
4.973415531E0,-2.745907307E-1,8.611392975E-1,1.756141305E0,1.975093224E0
4.978420895E0,-2.251484394E-1,7.041158676E-1,1.516127110E0,1.686746094E0
4.983426260E0,-1.672356129E-1,5.470104218E-1,1.334305406E0,1.451743458E0
4.988431624E0,-9.640383720E-2,4.329738617E-1,1.172309041E0,1.253422735E0
4.993436989E0,-2.733874321E-2,2.855634689E-1,9.824087620E-1,1.023435820E0
4.998442353E0,1.582145691E-2,1.384057999E-1,8.222860098E-1,8.340028572E-1
5.003447718E0,7.607650757E-2,-2.759933472E-2,6.537995338E-1,6.587891838E-1
5.008453083E0,1.152849197E-1,-1.598587036E-1,5.107188225E-1,5.474295694E-1
5.013458447E0,1.669373512E-1,-2.535705566E-1,3.887568712E-1,4.932524824E-1
5.018463812E0,2.359516621E-1,-3.135318756E-1,2.838144302E-1,4.842789017E-1
5.023469176E0,2.938525677E-1,-3.397579193E-1,1.775546074E-1,4.830221671E-1
5.028474541E0,3.359465599E-1,-3.321161270E-1,3.771853447E-2,4.739028390E-1
5.033479906E0,3.768956661E-1,-3.001613617E-1,-7.733976841E-2,4.879842477E-1
5.038485270E0,4.071798325E-1,-2.916316986E-1,-1.765494347E-1,5.310500602E-1
5.043490635E0,3.983597755E-1,-3.207645416E-1,-2.734459639E-1,5.799595650E-1
5.048495999E0,3.458919525E-1,-4.017868042E-1,-3.243449926E-1,6.215090933E-1
5.053501364E0,2.548589706E-1,-5.250778198E-1,-3.720462322E-1,6.921547592E-1
5.058506728E0,1.254515648E-1,-7.192745209E-1,-4.068064690E-1,8.358142346E-1
5.063512093E0,-3.255629539E-2,-9.173679352E-1,-4.238334894E-1,1.011068083E0
5.068517458E0,-2.285869122E-1,-1.081161499E0,-4.711875916E-1,1.201324232E0
5.073522822E0,-3.956282139E-1,-1.220330238E0,-5.157333612E-1,1.382645462E0
5.078528187E0,-5.574982166E-1,-1.315911293E0,-5.627207756E-1,1.535930162E0
5.083533551E0,-6.855723858E-1,-1.353750229E0,-6.464437246E-1,1.649405550E0
5.088538916E0,-7.607641220E-1,-1.362733841E0,-7.243946791E-1,1.720625823E0
5.093544281E0,-7.784271240E-1,-1.304647446E0,-8.493701220E-1,1.740541108E0
5.098549645E0,-7.481241226E-1,-1.141277313E0,-9.731799364E-1,1.676091524E0
5.103555010E0,-6.266946793E-1,-8.631420135E-1,-1.119214535E0,1.546092342E0
5.108560374E0,-4.765522480E-1,-5.180339813E-1,-1.296404123E0,1.475169449E0
5.113565739E0,-3.315961361E-1,-1.775588989E-1,-1.490014553E0,1.536758448E0
5.118571103E0,-2.066593170E-1,1.536359787E-1,-1.681112647E0,1.700720970E0
5.123576468E0,-9.260058403E-2,4.229135513E-1,-1.928015113E0,1.976024548E0
5.128581833E0,5.571365356E-3,6.637659073E-1,-2.202618837E0,2.300466466E0
5.133587197E0,8.781933784E-2,8.427362442E-1,-2.418932438E0,2.563035457E0
5.138592562E0,8.738136292E-2,9.599914551E-1,-2.604937553E0,2.777574257E0
5.143597926E0,9.083104134E-2,1.063536644E0,-2.749867439E0,2.949768026E0
5.148603291E0,3.650927544E-2,1.134307861E0,-2.862116337E0,3.078911687E0
5.153608656E0,-2.222895622E-2,1.143590927E0,-2.926401138E0,3.141992673E0
5.158614020E0,-1.133630276E-1,1.124840736E0,-2.937100649E0,3.147169852E0
5.163619385E0,-1.931393147E-1,1.054005623E0,-2.922470093E0,3.112725830E0
5.168624749E0,-2.659273148E-1,9.214382172E-1,-2.896595001E0,3.051233902E0
5.173630114E0,-3.362398148E-1,7.031631470E-1,-2.873705864E0,2.977529348E0
5.178635478E0,-3.513638973E-1,4.469442368E-1,-2.820565701E0,2.877291541E0
5.183640843E0,-3.162679672E-1,1.670551300E-1,-2.756699324E0,2.779806469E0
5.188646208E0,-2.600975037E-1,-1.125888824E-1,-2.668065071E0,2.683076255E0
5.193651572E0,-1.737654209E-1,-3.680934906E-1,-2.593313456E0,2.625064174E0
5.198656937E0,-4.324674606E-2,-6.283092499E-1,-2.480532169E0,2.559234776E0
5.203662301E0,1.646032333E-1,-7.163896561E-1,-2.273032904E0,2.388930084E0
5.208667666E0,3.912134171E-1,-6.515645981E-1,-1.924261808E0,2.068904993E0
5.213673031E0,6.450400352E-1,-3.429040909E-1,-1.415519238E0,1.592907585E0
5.218678395E0,8.908848763E-1,3.533020020E-1,-1.100393534E0,1.459234079E0
5.223683760E0,1.022886992E0,9.252367020E-1,-8.517103195E-1,1.621040166E0
5.228689124E0,1.203884840E0,1.473392963E0,-6.107671261E-1,1.998314794E0
5.233694489E0,1.539687872E0,1.954256058E0,-5.456806421E-1,2.547061610E0
5.238699853E0,2.102259636E0,2.185648918E0,-6.301900148E-1,3.097369243E0
5.243705218E0,2.752531290E0,1.966639519E0,-8.068025112E-1,3.477790936E0
5.248710583E0,3.495278358E0,1.440943241E0,-1.378725767E0,4.024198426E0
5.253715947E0,4.120059013E0,6.997728348E-1,-2.409114122E0,4.823732906E0
5.258721312E0,4.373373985E0,-8.413887024E-2,-3.064093351E0,5.340613020E0
5.263726676E0,4.183423042E0,-7.715063095E-1,-3.237597227E0,5.345866267E0
5.268732041E0,3.588556051E0,-1.237591743E0,-3.171752930E0,4.946653869E0
5.273737406E0,2.455110788E0,-1.243242264E0,-2.919710875E0,4.012222813E0
5.278742770E0,9.810254574E-1,-1.042791367E0,-2.244011164E0,2.661843513E0
5.283748135E0,-4.948711395E-1,-7.763233185E-1,-1.489309311E0,1.750890506E0
5.288753499E0,-1.561397314E0,-4.263010025E-1,-8.734204769E-1,1.839173033E0
5.293758864E0,-2.085720778E0,1.051807404E-2,-1.090682596E-1,2.088597059E0
5.298764228E0,-2.313709259E0,5.327701569E-1,9.120492935E-1,2.543408832E0
5.303769593E0,-2.148519516E0,1.163537025E0,2.043380737E0,3.185178073E0
5.308774958E0,-1.734442711E0,1.778207302E0,3.099114418E0,3.971753127E0
5.313780322E0,-1.341379642E0,2.334173203E0,3.964695454E0,4.792334914E0
5.318785687E0,-9.816329479E-1,2.832441807E0,4.496396542E0,5.404064368E0
5.323791051E0,-6.251461506E-1,3.269713402E0,4.651000977E0,5.719584209E0
5.328796416E0,-2.904148102E-1,3.552335262E0,4.586085320E0,5.808235975E0
5.333801781E0,-9.600996971E-2,3.572504520E0,4.531717300E0,5.771348902E0
5.338807145E0,3.674483299E-2,3.375156879E0,4.581520081E0,5.690637960E0
5.343812510E0,1.919715405E-1,2.942475319E0,4.711896896E0,5.558505774E0
5.348817874E0,4.922692776E-1,2.160612106E0,5.054022312E0,5.518488493E0
5.353823239E0,8.741273880E-1,9.393949509E-1,5.457446098E0,5.606271442E0
5.358828603E0,1.309239149E0,-6.206169128E-1,5.968323708E0,6.141674070E0
5.363833968E0,1.584117889E0,-2.084693909E0,6.484220505E0,6.992888798E0
5.368839333E0,1.805459380E0,-3.396299362E0,6.912046432E0,7.910178179E0
5.373844697E0,1.878151894E0,-4.737729073E0,7.105315685E0,8.744086132E0
5.378850062E0,1.965806723E0,-6.104543686E0,6.873615265E0,9.400874241E0
5.383855426E0,2.126864433E0,-7.477882385E0,6.226058960E0,9.960225271E0
5.388860791E0,2.400466919E0,-8.657086372E0,5.137402058E0,1.034892679E1
5.393866156E0,2.977729082E0,-9.302776337E0,3.697224140E0,1.044404062E1
5.398871520E0,3.034620285E0,-9.396197319E0,2.076886654E0,1.009013887E1
5.403876885E0,2.265969276E0,-9.072196960E0,3.671042323E-1,9.358105576E0
5.408882249E0,9.036686420E-1,-8.413285255E0,-1.249433279E0,8.553424421E0
5.413887614E0,-7.245159149E-1,-7.564240456E0,-2.373763561E0,7.960993055E0
5.418892978E0,-2.219315052E0,-6.698394775E0,-2.706588745E0,7.557742686E0
5.423898343E0,-3.521174431E0,-5.941048622E0,-2.335486889E0,7.290351645E0
5.428903708E0,-4.684508324E0,-5.465302467E0,-1.476534843E0,7.348081684E0
5.433909072E0,-5.705796242E0,-5.109255791E0,-3.226932883E-1,7.665816098E0
5.438914437E0,-6.481938839E0,-4.816103935E0,8.692243695E-1,8.121941839E0
5.443919801E0,-7.007719040E0,-4.676775932E0,1.850223303E0,8.625757099E0
5.448925166E0,-7.490396500E0,-4.896341324E0,2.542114019E0,9.302824397E0
5.453930531E0,-8.080786705E0,-5.794101715E0,2.994742393E0,1.038456597E1
5.458935895E0,-8.576450348E0,-7.349172592E0,3.300864458E0,1.176696837E1
5.463941260E0,-9.024940491E0,-9.511607170E0,3.505438328E0,1.357233656E1
5.468946624E0,-9.397130966E0,-1.193974018E1,3.686348200E0,1.563498094E1
5.473951989E0,-9.668123245E0,-1.455070686E1,3.973702908E0,1.791608194E1
5.478957353E0,-9.811090469E0,-1.708069038E1,4.412619114E0,2.018610135E1
5.483962718E0,-9.720420837E0,-1.905185890E1,4.853550911E0,2.193209669E1
5.488968083E0,-9.417825699E0,-2.026515961E1,5.090770245E0,2.291916396E1
5.493973447E0,-8.632226944E0,-2.051749420E1,5.010401726E0,2.281637648E1
5.498978812E0,-7.160580635E0,-1.964406013E1,4.580410957E0,2.140427944E1
5.503984176E0,-5.251516342E0,-1.751303482E1,3.902887344E0,1.869538291E1
5.508989541E0,-3.065346479E0,-1.452248669E1,2.988407612E0,1.514032855E1
5.513994906E0,-1.050928831E0,-1.170054245E1,1.937505722E0,1.190634593E1
5.519000270E0,6.545696259E-1,-9.375871658E0,7.738755941E-1,9.430499148E0
5.524005635E0,2.082944870E0,-7.523229599E0,-5.541175604E-1,7.825898619E0
5.529010999E0,3.248080969E0,-6.093627930E0,-2.153134823E0,7.233140458E0
5.534016364E0,4.141376495E0,-4.961571693E0,-4.016840458E0,7.609415234E0
5.539021728E0,4.755110264E0,-3.862474442E0,-6.212249279E0,8.724782148E0
5.544027093E0,4.933897972E0,-2.655906677E0,-8.455722809E0,1.014378813E1
5.549032458E0,4.550916195E0,-1.354548454E0,-1.037524033E1,1.141013810E1
5.554037822E0,3.827761889E0,-1.056509018E-1,-1.164276505E1,1.225630046E1
5.559043187E0,3.219051361E0,1.133918762E0,-1.214713955E1,1.261749035E1
5.564048551E0,2.814462900E0,2.162643909E0,-1.192439842E1,1.244144316E1
5.569053916E0,2.598516464E0,3.080142021E0,-1.136026669E1,1.205384677E1
5.574059281E0,2.603942871E0,3.919026375E0,-1.072857475E1,1.171501611E1
5.579064645E0,2.638999462E0,4.688130379E0,-9.995191574E0,1.135106776E1
5.584070010E0,2.651666164E0,5.348497391E0,-9.205462456E0,1.097170437E1
5.589075374E0,2.633557320E0,5.736900330E0,-8.173851967E0,1.032760890E1
5.594080739E0,2.414232492E0,6.130141258E0,-7.102030754E0,9.687414062E0
5.599086103E0,2.268792391E0,6.326252937E0,-5.908916473E0,8.948976982E0
5.604091468E0,2.270512819E0,6.530128002E0,-4.643713951E0,8.328377960E0
5.609096833E0,2.400783300E0,6.851058960E0,-3.552549124E0,8.082163980E0
5.614102197E0,2.588087082E0,7.312274456E0,-2.694892883E0,8.211577200E0
5.619107562E0,2.755972862E0,7.913298607E0,-2.124766111E0,8.644669588E0
5.624112926E0,3.162064552E0,8.587192535E0,-1.828430891E0,9.331756930E0
5.629118291E0,3.465224504E0,9.167147636E0,-1.704835892E0,9.947403786E0
5.634123656E0,3.741558552E0,9.878364563E0,-1.763134599E0,1.070934127E1
5.639129020E0,4.033419132E0,1.054893303E1,-1.844812393E0,1.144341692E1
5.644134385E0,4.344919682E0,1.108838463E1,-1.863578081E0,1.205419114E1
5.649139749E0,4.727549553E0,1.147365665E1,-1.947563410E0,1.256135045E1
5.654145114E0,5.060641289E0,1.188253212E1,-1.861390352E0,1.304873304E1
5.659150478E0,5.572786331E0,1.201907349E1,-1.671654940E0,1.335322078E1
5.664155843E0,6.056615829E0,1.209475708E1,-1.407634735E0,1.359952866E1
5.669161208E0,6.524814606E0,1.209611511E1,-1.074792147E0,1.378565866E1
5.674166572E0,7.052303314E0,1.197142124E1,-7.214353085E-1,1.391295718E1
5.679171937E0,7.494453430E0,1.184091187E1,-3.671056032E-1,1.401815938E1
5.684177301E0,7.897883415E0,1.174824047E1,-7.430028915E-2,1.415638503E1
5.689182666E0,8.041515350E0,1.161258221E1,1.188582182E-1,1.412558537E1
5.694188031E0,8.112352371E0,1.151039219E1,2.846649885E-1,1.408475855E1
5.699193395E0,8.106080055E0,1.132183647E1,4.860161543E-1,1.393300853E1
5.704198760E0,7.913793564E0,1.112309265E1,7.673673630E-1,1.367260660E1
5.709204124E0,7.743132591E0,1.087511158E1,9.913955927E-1,1.338682260E1
5.714209489E0,7.476555824E0,1.052929688E1,1.212669015E0,1.297056459E1
5.719214853E0,7.164529324E0,1.013255787E1,1.389675260E0,1.248720973E1
5.724220218E0,6.919735909E0,9.717440605E0,1.452295661E0,1.201751054E1
5.729225583E0,6.653980255E0,9.450381279E0,1.488235712E0,1.165332592E1
5.734230947E0,6.398428440E0,9.196448326E0,1.402887225E0,1.129082109E1
5.739236312E0,6.183709621E0,8.902440071E0,1.302669644E0,1.091735555E1
5.744241676E0,5.992365837E0,8.625294685E0,1.097677946E0,1.055978473E1
5.749247041E0,5.944723129E0,8.512958527E0,7.879724503E-1,1.041302533E1
5.754252406E0,5.920749664E0,8.579541206E0,4.921376705E-1,1.043580392E1
5.759257770E0,5.875967979E0,8.753380775E0,2.371037006E-1,1.054537305E1
5.764263135E0,5.779460907E0,8.972774506E0,2.566707134E-2,1.067302719E1
5.769268499E0,5.557166100E0,9.176179886E0,-1.344212294E-1,1.072858059E1
5.774273864E0,5.292858124E0,9.359591484E0,-2.401051521E-1,1.075518249E1
5.779279228E0,5.037074566E0,9.413685799E0,-3.792587221E-1,1.068332522E1
5.784284593E0,4.831115723E0,9.434833527E0,-5.006657839E-1,1.061161764E1
5.789289958E0,4.626097202E0,9.466430664E0,-5.625964403E-1,1.055133165E1
5.794295322E0,4.344824314E0,9.484796524E0,-5.802331567E-1,1.044870968E1
5.799300687E0,3.992312908E0,9.427721977E0,-5.733307004E-1,1.025422899E1
5.804306051E0,3.654980659E0,9.304796219E0,-5.086520314E-1,1.000983732E1
5.809311416E0,3.290336847E0,9.101555824E0,-4.390671253E-1,9.688003661E0
5.814316781E0,2.951942921E0,8.851283073E0,-3.593944907E-1,9.337469864E0
5.819322145E0,2.626172543E0,8.572915077E0,-2.216674238E-1,8.968879060E0
5.824327510E0,2.361383438E0,8.318939209E0,-6.850105524E-2,8.647865268E0
5.829332874E0,2.095672369E0,8.022269249E0,5.243411660E-2,8.291646152E0
5.834338239E0,1.805041075E0,7.678216934E0,9.784013033E-2,7.888140545E0
5.839343603E0,1.498520136E0,7.100472927E0,-1.247584820E-3,7.256878113E0
5.844348968E0,1.151159525E0,6.083873749E0,-2.888061702E-1,6.198556045E0
5.849354333E0,8.242185116E-1,4.686427116E0,-4.470457435E-1,4.779308022E0
5.854359697E0,5.036673546E-1,3.520453453E0,-2.768474519E-1,3.567060110E0
5.859365062E0,5.144524574E-2,2.451559544E0,7.053047419E-2,2.453113401E0
5.864370426E0,-6.223886013E-1,1.230865002E0,4.270456135E-1,1.443871248E0
5.869375791E0,-1.563776016E0,-5.003700256E-1,8.477149010E-1,1.847805765E0
5.874381156E0,-2.942466497E0,-3.296569824E0,1.620036125E0,4.706378517E0
5.879386520E0,-4.821311951E0,-6.783904076E0,2.554311037E0,8.705797396E0
5.884391885E0,-7.066041946E0,-1.132573032E1,3.541640520E0,1.381102218E1
5.889397249E0,-9.906657219E0,-1.681632614E1,4.445975304E0,2.001742687E1
5.894402614E0,-1.347905445E1,-2.253766632E1,5.025036812E0,2.673728309E1
5.899407978E0,-1.708510017E1,-2.877672005E1,3.311461926E0,3.362983861E1
5.904413343E0,-2.037440300E1,-3.454267120E1,1.481302083E-1,4.010404436E1
5.909418708E0,-2.109447861E1,-3.522904968E1,-3.680675626E-1,4.106334671E1
5.914424072E0,-1.824337196E1,-2.968693161E1,5.543619990E-1,3.484884283E1
5.919429437E0,-1.458118725E1,-2.158604050E1,2.106293678E0,2.613435744E1
5.924434801E0,-1.142055035E1,-1.411088753E1,2.860098600E0,1.837733063E1
5.929440166E0,-8.859472275E0,-8.184494019E0,2.560434818E0,1.233012643E1
5.934445531E0,-7.141528130E0,-4.192981720E0,1.569648743E0,8.428897728E0
5.939450895E0,-5.583375931E0,-1.962491989E0,9.259702563E-1,5.990232258E0
5.944456260E0,-4.078660965E0,-1.075155258E0,7.515021563E-1,4.284412397E0
5.949461624E0,-2.676107645E0,-1.099008560E0,9.899839759E-1,3.057685434E0
5.954466989E0,-1.493195534E0,-1.817438126E0,1.751878977E0,2.932881551E0
5.959472353E0,-6.289792061E-1,-3.104759216E0,2.668172598E0,4.141773732E0
5.964477718E0,-2.002820969E-1,-4.783122063E0,3.661518335E0,6.027029625E0
5.969483083E0,-1.349530220E-1,-6.852449417E0,4.677003860E0,8.297508086E0
5.974488447E0,4.226207733E-3,-9.112152100E0,5.305068493E0,1.054395967E1
5.979493812E0,4.338953495E-1,-1.106045151E1,5.713981152E0,1.245678262E1
5.984499176E0,1.258558750E0,-1.261636353E1,5.875850201E0,1.397434128E1
5.989504541E0,2.465158224E0,-1.342074585E1,5.728371620E0,1.479890758E1
5.994509906E0,3.369699478E0,-1.343492413E1,5.286926746E0,1.482577672E1
5.999515270E0,3.901391268E0,-1.269212437E1,4.767302036E0,1.410808433E1
6.004520635E0,3.972403288E0,-1.154655457E1,4.009813309E0,1.285229602E1
6.009525999E0,3.436252832E0,-9.912914276E0,3.009475231E0,1.091469854E1
6.014531364E0,2.512670755E0,-8.007865906E0,1.861583233E0,8.596797242E0
6.019536728E0,1.540208817E0,-6.090446472E0,5.979549289E-1,6.310572995E0
6.024542093E0,7.065348625E-1,-4.361144066E0,-4.979280233E-1,4.445975865E0
6.029547458E0,2.551531792E-2,-2.847736359E0,-1.284703255E0,3.124214438E0
6.034552822E0,-5.943014622E-1,-1.592556000E0,-1.776815176E0,2.458963402E0
6.039558187E0,-1.277122259E0,-6.575117111E-1,-1.995555639E0,2.458781248E0
6.044563551E0,-2.017153263E0,-4.267501831E-2,-2.039594889E0,2.868915432E0
6.049568916E0,-2.774173260E0,3.040475845E-1,-1.998581886E0,3.432610051E0
6.054574281E0,-3.450538397E0,5.207033157E-1,-1.962117910E0,4.003405284E0
6.059579645E0,-4.068796158E0,6.545133591E-1,-2.047844648E0,4.601864580E0
6.064585010E0,-4.460841179E0,7.720375061E-1,-2.238779545E0,5.050473224E0
6.069590374E0,-4.669959068E0,9.879007339E-1,-2.564903021E0,5.418781511E0
6.074595739E0,-4.606128216E0,1.306835175E0,-2.869270325E0,5.581840871E0
6.079601103E0,-4.356976032E0,1.728996754E0,-3.123995304E0,5.633117838E0
6.084606468E0,-4.000196457E0,2.201916695E0,-3.209715128E0,5.581422760E0
6.089611833E0,-3.512347698E0,2.644353390E0,-3.126270533E0,5.394697271E0
6.094617197E0,-2.941462040E0,3.051630020E0,-2.901738882E0,5.136607173E0
6.099622562E0,-2.325472116E0,3.366357327E0,-2.625879526E0,4.861627865E0
6.104627926E0,-1.659108400E0,3.574217319E0,-2.321374893E0,4.573450724E0
6.109633291E0,-9.231140614E-1,3.694506168E0,-1.963068008E0,4.284291237E0
6.114638656E0,-1.656770706E-1,3.765805721E0,-1.611805201E0,4.099592373E0
6.119644020E0,5.889468193E-1,3.745317936E0,-1.257081628E0,3.994310831E0
6.124649385E0,1.287594080E0,3.705145359E0,-9.173129797E-1,4.028332626E0
6.129654749E0,1.934103251E0,3.617008686E0,-5.968781114E-1,4.144848694E0
6.134660114E0,2.484560966E0,3.557795048E0,-3.055679798E-1,4.350209258E0
6.139665478E0,3.009928226E0,3.508566380E0,-4.427540302E-2,4.622949954E0
6.144670843E0,3.428144217E0,3.435993671E0,2.430310249E-1,4.859762274E0
6.149676208E0,3.829796791E0,3.440527439E0,4.876436591E-1,5.171302433E0
6.154681572E0,4.209777355E0,3.545935154E0,7.927983999E-1,5.560972109E0
6.159686937E0,4.630016804E0,3.756814957E0,1.022527218E0,6.049485609E0
6.164692301E0,5.013763428E0,3.934247017E0,1.165311575E0,6.478740184E0
6.169697666E0,5.365519524E0,4.040045738E0,1.224709034E0,6.827201589E0
6.174703031E0,5.613511562E0,4.016883850E0,1.090012312E0,6.988203973E0
6.179708395E0,5.691223621E0,3.879171371E0,8.286739588E-1,6.937196650E0
6.184713760E0,5.690393448E0,3.741628647E0,5.278056860E-1,6.830735053E0
6.189719124E0,5.745493412E0,3.575483322E0,2.223132849E-1,6.770834419E0
6.194724489E0,5.693784714E0,3.443074703E0,-2.922499180E-2,6.653931310E0
6.199729853E0,5.631443024E0,3.420871258E0,-2.253060937E-1,6.592895686E0
6.204735218E0,5.644854546E0,3.398752689E0,-3.599686027E-1,6.598899914E0
6.209740583E0,5.675989151E0,3.391408443E0,-4.324358106E-1,6.626122909E0
6.214745947E0,5.662350655E0,3.322537899E0,-4.611868262E-1,6.581349885E0
6.219751312E0,5.646158695E0,3.159226894E0,-4.695778489E-1,6.486935019E0
6.224756676E0,5.554576874E0,2.902168751E0,-4.380425215E-1,6.282339449E0
6.229762041E0,5.295568466E0,2.509056091E0,-3.951204419E-1,5.873204237E0
6.234767406E0,4.859190941E0,1.966018200E0,-2.976491451E-1,5.250291342E0
6.239772770E0,4.298322678E0,1.354547977E0,-9.780097008E-2,4.507764756E0
6.244778135E0,3.619055986E0,7.124986649E-1,1.086796522E-1,3.690126264E0
6.249783499E0,2.971172333E0,1.349592209E-1,2.596527338E-1,2.985548285E0
6.254788864E0,2.379682541E0,-3.499488831E-1,3.599679470E-1,2.432062939E0
6.259794228E0,1.883412600E0,-7.186975479E-1,4.431643486E-1,2.064016431E0
6.264799593E0,1.444262981E0,-1.009817123E0,5.187666416E-1,1.837047906E0
6.269804958E0,1.024136782E0,-1.204352379E0,5.677572489E-1,1.679782454E0
6.274810322E0,5.947058201E-1,-1.374363899E0,5.994703770E-1,1.613045527E0
6.279815687E0,1.708815098E-1,-1.491423607E0,5.899587870E-1,1.612946445E0
6.284821051E0,-2.182402611E-1,-1.584531784E0,5.531600714E-1,1.692440797E0
6.289826416E0,-5.961928368E-1,-1.658703804E0,4.984490871E-1,1.831719329E0
6.294831781E0,-9.390723705E-1,-1.737915993E0,3.920961618E-1,2.013938508E0
6.299837145E0,-1.271125793E0,-1.865122795E0,3.534340858E-1,2.284591753E0
6.304842510E0,-1.573763132E0,-2.073565483E0,2.768933773E-1,2.617837686E0
6.309847874E0,-1.914725542E0,-2.444168091E0,2.101376057E-1,3.111959089E0
6.314853239E0,-2.251645088E0,-3.029075623E0,1.624951363E-1,3.777778368E0
6.319858603E0,-2.661756277E0,-3.803862572E0,1.098217964E-1,4.643961431E0
6.324863968E0,-3.121617317E0,-4.729848862E0,4.713225365E-2,5.667290921E0
6.329869333E0,-3.641192913E0,-5.730249405E0,-6.975769997E-3,6.789263048E0
6.334874697E0,-4.211083412E0,-6.733301163E0,-1.202834845E-1,7.942608902E0
6.339880062E0,-4.759603977E0,-7.552758217E0,-3.183346987E-1,8.933046719E0
6.344885426E0,-5.257745743E0,-8.098485947E0,-6.220444441E-1,9.675551882E0
6.349890791E0,-5.532172203E0,-8.036908150E0,-1.037874579E0,9.811931794E0
6.354896156E0,-5.192996025E0,-6.949008942E0,-1.522319436E0,8.807575685E0
6.359901520E0,-4.233591080E0,-5.324444771E0,-2.158666134E0,7.136725091E0
6.364906885E0,-3.056440592E0,-3.765827179E0,-2.837949276E0,5.619362911E0
6.369912249E0,-1.964895010E0,-2.458090782E0,-3.393213749E0,4.627842072E0
6.374917614E0,-1.075622797E0,-1.351518631E0,-3.777454138E0,4.153640184E0
6.379922978E0,-4.704809189E-1,-3.970088959E-1,-3.949090004E0,3.996783734E0
6.384928343E0,-1.393706799E-1,4.490413666E-1,-3.930123806E0,3.958147984E0
6.389933708E0,-7.124280930E-2,1.162551880E0,-3.710474014E0,3.888986992E0
6.394939072E0,-2.215380669E-1,1.733529091E0,-3.329082489E0,3.759919207E0
6.399944437E0,-5.268058777E-1,2.142264366E0,-2.845017672E0,3.600131470E0
6.404949801E0,-9.194259644E-1,2.436097622E0,-2.308345318E0,3.479708872E0
6.409955166E0,-1.317540884E0,2.647908688E0,-1.755183339E0,3.439186379E0
6.414960531E0,-1.668317080E0,2.810646057E0,-1.173910379E0,3.472906379E0
6.419965895E0,-1.870901585E0,3.000272751E0,-6.052218676E-1,3.587227736E0
6.424971260E0,-1.963390112E0,3.230649471E0,-5.589437485E-2,3.780888906E0
6.429976624E0,-1.950207949E0,3.472669125E0,4.345211983E-1,4.006438638E0
6.434981989E0,-1.807514906E0,3.740523338E0,8.555108309E-1,4.241523755E0
6.439987353E0,-1.516719580E0,3.943370819E0,1.230264544E0,4.400472992E0
6.444992718E0,-1.097689867E0,4.100616455E0,1.592007518E0,4.533703375E0
6.449998083E0,-6.373975277E-1,4.236498356E0,1.902311802E0,4.687534973E0
6.455003447E0,-1.752107143E-1,4.361058712E0,2.195018053E0,4.885451477E0
6.460008812E0,2.588582039E-1,4.503518581E0,2.455760002E0,5.136092325E0
6.465014176E0,5.868847370E-1,4.540079594E0,2.789685488E0,5.360886264E0
6.470019541E0,8.368017673E-1,4.246469021E0,3.201278210E0,5.383392845E0
6.475024906E0,9.466121197E-1,3.742652893E0,3.690116882E0,5.340457638E0
6.480030270E0,9.262039661E-1,3.038414001E0,4.145617962E0,5.222639344E0
6.485035635E0,7.422869205E-1,2.181816578E0,4.509822369E0,5.064564270E0
6.490040999E0,6.100816727E-1,1.144441605E0,4.720232010E0,4.895154386E0
6.495046364E0,4.619290829E-1,-1.162509918E-1,4.834174156E0,4.857585053E0
6.500051728E0,2.638638020E-1,-1.351072311E0,4.784581661E0,4.978678757E0
6.505057093E0,-3.143548965E-2,-2.431060791E0,4.423570156E0,5.047674483E0
6.510062458E0,-2.650575638E-1,-3.232395172E0,3.952921629E0,5.113142230E0
6.515067822E0,-3.597095013E-1,-3.712711334E0,3.473289251E0,5.096798466E0
6.520073187E0,-2.579808235E-1,-3.853362083E0,3.003870964E0,4.892667393E0
6.525078551E0,-7.068657875E-2,-3.707212448E0,2.558384418E0,4.504858662E0
6.530083916E0,1.917273998E-1,-3.389151573E0,2.174516916E0,4.031331244E0
6.535089281E0,4.853317738E-1,-2.985251427E0,1.813167453E0,3.526308158E0
6.540094645E0,7.568883896E-1,-2.581593513E0,1.482967734E0,3.071920963E0
6.545100010E0,1.010982990E0,-2.254752159E0,1.159173012E0,2.729409456E0
6.550105374E0,1.228482723E0,-1.990449905E0,8.362876177E-1,2.484036555E0
6.555110739E0,1.414249659E0,-1.793646812E0,4.799414873E-1,2.334012600E0
6.560116103E0,1.592215300E0,-1.650141716E0,1.328135729E-1,2.296901541E0
6.565121468E0,1.723507881E0,-1.502476692E0,-2.243598700E-1,2.297444880E0
6.570126833E0,1.797999859E0,-1.331458092E0,-5.717376471E-1,2.309213736E0
6.575132197E0,1.810154438E0,-1.084256172E0,-9.030905366E-1,2.295178218E0
6.580137562E0,1.716202497E0,-8.370866776E-1,-1.216149569E0,2.263865034E0
6.585142926E0,1.530219078E0,-6.086463928E-1,-1.522287846E0,2.242628178E0
6.590148291E0,1.214423895E0,-4.752149582E-1,-1.818663716E0,2.237899096E0
6.595153656E0,7.845001221E-1,-3.744583130E-1,-2.202762842E0,2.368084375E0
6.600159020E0,2.759730816E-1,-3.399267197E-1,-2.652485371E0,2.688380546E0
6.605164385E0,-2.943282127E-1,-3.190679550E-1,-3.093059540E0,3.123371700E0
6.610169749E0,-8.041226864E-1,-3.118877411E-1,-3.583345652E0,3.685682205E0
6.615175114E0,-1.289311886E0,-2.896299362E-1,-4.029627323E0,4.240767266E0
6.620180478E0,-1.652565718E0,-1.899366379E-1,-4.434584618E0,4.736305534E0
6.625185843E0,-1.940931797E0,-1.740169525E-2,-4.763353825E0,5.143642554E0
6.630191208E0,-2.116508722E0,2.043066025E-1,-4.944086552E0,5.381945948E0
6.635196572E0,-2.180563688E0,5.327281952E-1,-4.982888222E0,5.465147057E0
6.640201937E0,-2.211693287E0,7.717380524E-1,-4.839396000E0,5.376515643E0
6.645207301E0,-2.269075394E0,7.921552658E-1,-4.459491730E0,5.065893761E0
6.650212666E0,-2.306049585E0,6.464662552E-1,-3.913561821E0,4.588218547E0
6.655218031E0,-2.317968369E0,4.012050629E-1,-3.228221893E0,3.994416034E0
6.660223395E0,-2.290012121E0,1.609420776E-1,-2.492017746E0,3.388245905E0
6.665228760E0,-2.216784954E0,-1.278686523E-2,-1.763945937E0,2.832985052E0
6.670234124E0,-2.049943447E0,-1.158256531E-1,-1.193695784E0,2.374993335E0
6.675239489E0,-1.751378059E0,-1.389312744E-1,-7.296672463E-1,1.902377801E0
6.680244853E0,-1.436561823E0,-5.343341827E-2,-3.724262714E-1,1.485013915E0
6.685250218E0,-1.087015629E0,6.891250610E-2,-8.911633492E-2,1.092837422E0
6.690255583E0,-7.223787308E-1,1.803846359E-1,1.726262569E-1,7.643098012E-1
6.695260947E0,-3.906736374E-1,2.954339981E-1,4.032161236E-1,6.344212958E-1
6.700266312E0,-7.286357880E-2,3.806219101E-1,6.072130203E-1,7.203400528E-1
6.705271676E0,2.740943432E-1,4.599285126E-1,7.941660881E-1,9.577900193E-1
6.710277041E0,6.067779064E-1,5.048322678E-1,9.736592770E-1,1.253414311E0
6.715282406E0,9.103386402E-1,4.869394302E-1,1.117149711E0,1.521134420E0
6.720287770E0,1.189161777E0,4.304695129E-1,1.248772383E0,1.777313197E0
6.725293135E0,1.414120436E0,3.022365570E-1,1.373527169E0,1.994407287E0
6.730298499E0,1.580093622E0,1.216402054E-1,1.476967216E0,2.166315847E0
6.735303864E0,1.715646029E0,-5.856132507E-2,1.578064203E0,2.331771291E0
6.740309228E0,1.849204302E0,-2.191267014E-1,1.662122965E0,2.496042029E0
6.745314593E0,1.942358732E0,-3.313388824E-1,1.762260556E0,2.643502443E0
6.750319958E0,2.009379625E0,-4.047899246E-1,1.839798450E0,2.754327450E0
6.755325322E0,2.021519899E0,-4.347229004E-1,1.923088312E0,2.823790955E0
6.760330687E0,1.988486052E0,-4.451494217E-1,1.978313565E0,2.840063265E0
6.765336051E0,1.943988085E0,-4.361410141E-1,2.010317802E0,2.830315587E0
6.770341416E0,1.883461475E0,-4.269351959E-1,1.999896526E0,2.780159511E0
6.775346781E0,1.816431284E0,-3.792190552E-1,1.908998728E0,2.662237000E0
6.780352145E0,1.728326797E0,-3.550891876E-1,1.742740989E0,2.479989517E0
6.785357510E0,1.609476566E0,-3.448467255E-1,1.549468040E0,2.260571894E0
6.790362874E0,1.478998899E0,-3.579826355E-1,1.329600334E0,2.020748960E0
6.795368239E0,1.332018852E0,-4.087362289E-1,1.150506377E0,1.806932332E0
6.800373603E0,1.149480104E0,-4.731397629E-1,9.694386721E-1,1.576381009E0
6.805378968E0,9.649910927E-1,-5.703744888E-1,8.101931810E-1,1.383093582E0
6.810384333E0,7.979588509E-1,-6.622896194E-1,6.534762383E-1,1.225723077E0
6.815389697E0,6.581575871E-1,-7.538299561E-1,4.750612974E-1,1.107751889E0
6.820395062E0,5.744292736E-1,-8.642520905E-1,2.986745834E-1,1.079864423E0
6.825400426E0,5.514709949E-1,-1.003151894E0,1.145360470E-1,1.150457512E0
6.830405791E0,5.555384159E-1,-1.141739845E0,-1.011184454E-1,1.273741632E0
6.835411156E0,5.959565639E-1,-1.217785835E0,-3.624969721E-1,1.403413917E0
6.840416520E0,6.583068371E-1,-1.264844894E0,-6.262556314E-1,1.557368490E0
6.845421885E0,7.569227219E-1,-1.292452812E0,-9.155379534E-1,1.755441831E0
6.850427249E0,8.775467873E-1,-1.324468613E0,-1.324868798E0,2.068715254E0
6.855432614E0,1.082460880E0,-1.331959724E0,-1.799523830E0,2.486789955E0
6.860437978E0,1.333722830E0,-1.300318718E0,-2.355736971E0,3.003188644E0
6.865443343E0,1.636368513E0,-1.238654137E0,-3.004103184E0,3.638214111E0
6.870448708E0,1.966808081E0,-1.136918068E0,-3.649854422E0,4.299110840E0
6.875454072E0,2.291507006E0,-9.275379181E-1,-4.308239460E0,4.967117695E0
6.880459437E0,2.553045511E0,-6.962890625E-1,-4.894983292E0,5.564505483E0
6.885464801E0,2.751174688E0,-4.477834702E-1,-5.403815746E0,6.080353347E0
6.890470166E0,2.870904446E0,-2.154283524E-1,-5.762054443E0,6.441255555E0
6.895475531E0,2.892543316E0,-2.820587158E-2,-5.998961449E0,6.659965531E0
6.900480895E0,2.763197660E0,1.514368057E-1,-5.935223579E0,6.548669587E0
6.905486260E0,2.454163551E0,2.984790802E-1,-5.528058052E0,6.055694372E0
6.910491624E0,2.104632378E0,5.407600403E-1,-4.856660366E0,5.320624848E0
6.915496989E0,1.581030846E0,9.011392593E-1,-4.401509762E0,4.762877143E0
6.920502353E0,9.555757046E-1,1.340753555E0,-3.885299921E0,4.219751237E0
6.925507718E0,1.279339790E-1,1.849831104E0,-3.236711502E0,3.730220311E0
6.930513083E0,-6.860516071E-1,2.313520432E0,-2.407654285E0,3.408789045E0
6.935518447E0,-1.456703901E0,2.645825863E0,-1.558444619E0,3.398695394E0
6.940523812E0,-2.082370996E0,2.918676853E0,-9.761453271E-1,3.715885257E0
6.945529176E0,-2.442391872E0,3.132181168E0,-7.059566975E-1,4.034130859E0
6.950534541E0,-2.722415209E0,3.458604813E0,-5.659140348E-1,4.437764135E0
6.955539906E0,-2.921114445E0,3.912055492E0,-4.499637187E-1,4.903014901E0
6.960545270E0,-3.028017759E0,4.449283600E0,-1.424131691E-1,5.383799552E0
6.965550635E0,-2.994606018E0,5.007943153E0,4.035823047E-1,5.848934818E0
6.970555999E0,-2.816398621E0,5.564192772E0,1.108828306E0,6.334180500E0
6.975561364E0,-2.432086706E0,6.056034088E0,1.821304798E0,6.775525499E0
6.980566728E0,-1.867027760E0,6.426398277E0,2.555611134E0,7.163486284E0
6.985572093E0,-1.280821800E0,6.651824951E0,3.167614460E0,7.478038582E0
6.990577458E0,-7.657024860E-1,6.632291794E0,3.541829348E0,7.557655051E0
6.995582822E0,-4.416842461E-1,6.301176071E0,3.581822634E0,7.261498346E0
7.000588187E0,-3.558278084E-1,5.672984123E0,3.549348116E0,6.701286021E0
7.005593551E0,-4.830973148E-1,4.652211666E0,3.408389330E0,5.787363322E0
7.010598916E0,-5.789248943E-1,3.258487701E0,2.925469875E0,4.417156339E0
7.015604281E0,-4.480645657E-1,1.598008633E0,1.774755239E0,2.429845593E0
7.020609645E0,1.422677040E-1,-2.419939041E-1,3.904570937E-1,4.808928064E-1
7.025615010E0,1.241475224E0,-2.025802612E0,-7.104249001E-1,2.479887194E0
7.030620374E0,2.586584091E0,-3.776143074E0,-1.255882502E0,4.746252694E0
7.035625739E0,4.082215309E0,-5.305659294E0,-1.203851700E0,6.801746929E0
7.040631103E0,5.246733189E0,-6.552125931E0,-9.497272968E-1,8.447517109E0
7.045636468E0,5.821359634E0,-7.487540245E0,-5.250957012E-1,9.498800577E0
7.050641833E0,5.870122910E0,-7.840455055E0,1.029013097E-1,9.794981732E0
7.055647197E0,5.167686462E0,-7.521924973E0,8.976949453E-1,9.170070604E0
7.060652562E0,4.308028221E0,-7.251475334E0,1.654445171E0,8.595358660E0
7.065657926E0,3.277565479E0,-7.102032661E0,1.976772785E0,8.067771318E0
7.070663291E0,2.321470261E0,-7.050765991E0,1.541731715E0,7.581521082E0
7.075668656E0,1.529841781E0,-6.859159470E0,5.906940699E-1,7.052475026E0
7.080674020E0,1.009960771E0,-6.628063202E0,-7.233213782E-1,6.743473614E0
7.085679385E0,4.072216749E-1,-6.055858612E0,-1.881813526E0,6.354563334E0
7.090684749E0,-5.530047417E-1,-4.941337585E0,-2.497604847E0,5.564230526E0
7.095690114E0,-1.637917757E0,-3.623933792E0,-2.442733288E0,4.667185086E0
7.100695478E0,-2.752554893E0,-2.471606255E0,-1.941971540E0,4.178115530E0
7.105700843E0,-3.887245655E0,-1.541383743E0,-9.297235608E-1,4.283798376E0
7.110706208E0,-4.801609039E0,-9.576787949E-1,7.394385338E-1,4.951703483E0
7.115711572E0,-5.594114780E0,-5.199203491E-1,2.566810369E0,6.176807656E0
7.120716937E0,-6.296118736E0,-2.334318161E-1,3.847665548E0,7.382420452E0
7.125722301E0,-7.030355453E0,-1.655569077E-1,4.569820404E0,8.386689777E0
7.130727666E0,-7.623896599E0,-1.872558594E-1,5.116375923E0,9.183472475E0
7.135733031E0,-8.106426239E0,-3.176355362E-1,5.500970364E0,9.801821955E0
7.140738395E0,-8.657093048E0,-6.998128891E-1,5.807943344E0,1.044831106E1
7.145743760E0,-9.149287224E0,-1.328270912E0,6.044451714E0,1.104577552E1
7.150749124E0,-9.428806305E0,-2.240108490E0,6.129973888E0,1.146721650E1
7.155754489E0,-9.696412086E0,-3.672714233E0,6.202167988E0,1.208205798E1
7.160759853E0,-1.023843384E1,-5.729200363E0,6.479823112E0,1.340288670E1
7.165765218E0,-1.089834309E1,-8.149973869E0,7.150985241E0,1.537311114E1
7.170770583E0,-1.137888145E1,-1.069598484E1,7.977713585E0,1.753644630E1
7.175775947E0,-1.150596046E1,-1.299053574E1,8.486061096E0,1.931720419E1
7.180781312E0,-1.127813530E1,-1.499215412E1,8.586180687E0,2.063209926E1
7.185786676E0,-1.079023838E1,-1.678340721E1,8.143852234E0,2.155073853E1
7.190792041E0,-1.000387192E1,-1.817853928E1,7.300712585E0,2.199629850E1
7.195797406E0,-9.125453949E0,-1.942203903E1,6.344051361E0,2.237714230E1
7.200802770E0,-8.022593498E0,-2.051862335E1,5.246364594E0,2.264730121E1
7.205808135E0,-6.754281044E0,-2.123888397E1,4.240422249E0,2.268681744E1
7.210813499E0,-5.250375271E0,-2.142096329E1,3.167449474E0,2.228131156E1
7.215818864E0,-3.479681969E0,-2.080273056E1,1.930572629E0,2.117991728E1
7.220824228E0,-1.512151718E0,-1.940401840E1,4.290071726E-1,1.946757766E1
7.225829593E0,5.158069134E-1,-1.740180016E1,-1.490388751E0,1.747312119E1
7.230834958E0,2.355281115E0,-1.506813526E1,-3.656576633E0,1.568332242E1
7.235840322E0,3.989206314E0,-1.262158680E1,-5.829184055E0,1.446366506E1
7.240845687E0,5.110089302E0,-1.017483425E1,-7.701470852E0,1.374601462E1
7.245851051E0,5.658902168E0,-7.725661278E0,-9.153694153E0,1.324760856E1
7.250856416E0,5.703677177E0,-5.454212189E0,-1.005049419E1,1.277860702E1
7.255861781E0,5.448934555E0,-3.546378136E0,-1.034204006E1,1.221578808E1
7.260867145E0,5.189235210E0,-2.126902580E0,-1.028560638E1,1.171518567E1
7.265872510E0,4.746098518E0,-9.863090515E-1,-1.006742477E1,1.117368777E1
7.270877874E0,4.172457695E0,7.935714722E-2,-9.676219940E0,1.053778597E1
7.275883239E0,3.713344097E0,9.154138565E-1,-9.125843048E0,9.894843013E0
7.280888603E0,3.417484283E0,1.655103207E0,-8.645144463E0,9.442303121E0
7.285893968E0,3.562950373E0,2.537352085E0,-8.272205353E0,9.357465061E0
7.290899333E0,3.848683834E0,3.380241871E0,-7.942564964E0,9.451070869E0
7.295904697E0,4.127528667E0,4.131082058E0,-7.528647423E0,9.528004192E0
7.300910062E0,4.453689575E0,4.818545341E0,-6.959363937E0,9.564856322E0
7.305915426E0,4.818630695E0,5.552799702E0,-6.312108994E0,9.689969363E0
7.310920791E0,5.141304016E0,6.181117058E0,-5.377990723E0,9.672745178E0
7.315926156E0,5.402771473E0,6.837798119E0,-4.494832516E0,9.805556692E0
7.320931520E0,5.570154190E0,7.312446117E0,-3.703451633E0,9.910299689E0
7.325936885E0,5.877636433E0,7.533795357E0,-2.734951735E0,9.939046408E0
7.330942249E0,6.166115761E0,7.851699829E0,-1.900802612E0,1.016283545E1
7.335947614E0,6.586818695E0,8.060954094E0,-1.126134157E0,1.047059404E1
7.340952978E0,7.017817497E0,8.568851471E0,-7.291743159E-1,1.109985014E1
7.345958343E0,7.490393639E0,9.217845917E0,-3.919582367E-1,1.188395185E1
7.350963708E0,8.097835541E0,9.912775040E0,-4.158329964E-2,1.279999135E1
7.355969072E0,8.584501266E0,1.052988148E1,1.282298565E-2,1.358573628E1
7.360974437E0,8.782341003E0,1.103613663E1,-2.145438790E-1,1.410573834E1
7.365979801E0,8.596213341E0,1.129288101E1,-4.507374167E-1,1.419954963E1
7.370985166E0,8.248293877E0,1.146696377E1,-7.190047503E-1,1.414364089E1
7.375990531E0,7.740700722E0,1.169141197E1,-1.018910766E0,1.405865359E1
7.380995895E0,7.052029133E0,1.194115448E1,-1.182103038E0,1.391832076E1
7.386001260E0,6.419071198E0,1.227736473E1,-1.102203608E0,1.389794994E1
7.391006624E0,5.700487137E0,1.253640079E1,-1.022224545E0,1.380948375E1
7.396011989E0,4.969771862E0,1.261257648E1,-8.925734758E-1,1.358574272E1
7.401017353E0,4.290349483E0,1.253919792E1,-6.592792869E-1,1.326925892E1
7.406022718E0,3.719969511E0,1.228289986E1,-2.784821987E-1,1.283687479E1
7.411028083E0,3.331085205E0,1.187225819E1,2.162969112E-1,1.233261641E1
7.416033447E0,3.152583838E0,1.146029854E1,6.762710810E-1,1.190523288E1
7.421038812E0,3.165509224E0,1.116158867E1,9.910731912E-1,1.164404295E1
7.426044176E0,3.221179247E0,1.085167408E1,1.112291098E0,1.137418206E1
7.431049541E0,3.328723431E0,1.063591862E1,1.192809820E0,1.120829870E1
7.436054906E0,3.492068768E0,1.056230354E1,1.236629963E0,1.119312530E1
7.441060270E0,3.681071758E0,1.058814621E1,1.338833809E0,1.128944664E1
7.446065635E0,3.837320089E0,1.057496738E1,1.454968691E0,1.134336346E1
7.451070999E0,3.936127901E0,1.049919796E1,1.588699222E0,1.132476163E1
7.456076364E0,4.034336090E0,1.038983822E1,1.676690221E0,1.127102018E1
7.461081728E0,4.083841801E0,1.020878601E1,1.699024320E0,1.112581500E1
7.466087093E0,4.117800713E0,1.011411762E1,1.693212986E0,1.105072976E1
7.471092458E0,4.121603966E0,1.004847431E1,1.687289119E0,1.099119647E1
7.476097822E0,4.114235401E0,9.959311485E0,1.709430456E0,1.091040653E1
7.481103187E0,4.066928387E0,9.841938972E0,1.740112782E0,1.079035040E1
7.486108551E0,3.932054281E0,9.696353912E0,1.783833742E0,1.061425423E1
7.491113916E0,3.767599583E0,9.555895805E0,1.797598243E0,1.042791018E1
7.496119281E0,3.583747864E0,9.391654968E0,1.724352956E0,1.019901098E1
7.501124645E0,3.328508377E0,9.184323311E0,1.655752420E0,9.908192508E0
7.506130010E0,3.093541384E0,8.928921700E0,1.597271204E0,9.583679685E0
7.511135374E0,2.922575474E0,8.668298721E0,1.501613617E0,9.270150677E0
7.516140739E0,2.777854919E0,8.459628105E0,1.402187347E0,9.013762532E0
7.521146103E0,2.688981056E0,8.230730057E0,1.278877020E0,8.752774578E0
7.526151468E0,2.613580704E0,7.938299179E0,1.093218088E0,8.428672715E0
7.531156833E0,2.536971807E0,7.635142326E0,8.458803892E-1,8.089940539E0
7.536162197E0,2.486911774E0,7.374252796E0,5.574439764E-1,7.802248282E0
7.541167562E0,2.471725464E0,7.132139683E0,2.912783921E-1,7.553918607E0
7.546172926E0,2.499727726E0,6.914034843E0,2.450209856E-2,7.352082485E0
7.551178291E0,2.598343372E0,6.653429031E0,-2.756157517E-1,7.148109554E0
7.556183656E0,2.732902050E0,6.293387890E0,-6.329135895E-1,6.890287683E0
7.561189020E0,2.859119654E0,5.681378365E0,-1.091175914E0,6.453161256E0
7.566194385E0,2.875623941E0,4.765313148E0,-1.656935692E0,5.807138568E0
7.571199749E0,2.681462049E0,3.531260490E0,-2.164867640E0,4.934236645E0
7.576205114E0,2.271457434E0,2.065757275E0,-2.482094288E0,3.948121584E0
7.581210478E0,1.626280546E0,4.649620056E-1,-2.362230062E0,2.905358661E0
7.586215843E0,7.323656082E-1,-7.877597809E-1,-1.857331514E0,2.146300354E0
7.591221208E0,-4.423530102E-1,-2.520102501E0,-1.789075494E0,3.122080064E0
7.596226572E0,-1.957846403E0,-5.779113770E0,-2.067582846E0,6.442531903E0
7.601231937E0,-3.983045578E0,-9.659631729E0,-1.953167319E0,1.062958136E1
7.606237301E0,-6.399459839E0,-1.362576675E1,-9.106057882E-1,1.508124029E1
7.611242666E0,-9.137124062E0,-1.819927025E1,-2.533657849E-1,2.036577197E1
7.616248031E0,-1.319867706E1,-2.475773621E1,-3.353847027E0,2.825595279E1
7.621253395E0,-1.820525360E1,-3.194190979E1,-9.280591011E0,3.791894288E1
7.626258760E0,-2.041454124E1,-3.462890625E1,-9.719492912E0,4.135677919E1
7.631264124E0,-1.926947212E1,-3.177966309E1,-6.866157532E0,3.779422788E1
7.636269489E0,-1.572334003E1,-2.383897400E1,-3.026384354E0,2.871722663E1
7.641274853E0,-1.260685635E1,-1.580175114E1,1.597174406E0,2.027755242E1
7.646280218E0,-1.029051208E1,-1.021005440E1,5.441610813E0,1.548389415E1
7.651285583E0,-8.114542007E0,-6.474532127E0,7.126577377E0,1.259180143E1
7.656290947E0,-5.801073074E0,-4.397920609E0,7.286077023E0,1.029956664E1
7.661296312E0,-3.767403603E0,-3.428593636E0,7.304446697E0,8.905252707E0
7.666301676E0,-1.985937595E0,-3.626954079E0,7.455155849E0,8.525144735E0
7.671307041E0,-2.991518974E-1,-4.675192833E0,7.774976730E0,9.077289410E0
7.676312406E0,1.405785322E0,-5.781780243E0,8.267110825E0,1.018579091E1
7.681317770E0,3.014609098E0,-6.892116547E0,8.715033531E0,1.151264296E1
7.686323135E0,4.106778145E0,-8.052297592E0,8.993021011E0,1.275066862E1
7.691328499E0,4.804730415E0,-8.936233521E0,9.025218010E0,1.357925860E1
7.696333864E0,5.347739220E0,-9.515592575E0,8.960167885E0,1.412194835E1
7.701339228E0,5.587996483E0,-9.924903870E0,8.787321091E0,1.438563288E1
7.706344593E0,5.627202988E0,-1.011224174E1,8.500857353E0,1.435922778E1
7.711349958E0,5.448016167E0,-9.901573181E0,8.084930420E0,1.389561555E1
7.716355322E0,5.186229706E0,-9.169666290E0,7.499243736E0,1.293129595E1
7.721360687E0,4.918745995E0,-8.127721786E0,6.741300583E0,1.164899383E1
7.726366051E0,4.315159798E0,-7.010309219E0,5.932655811E0,1.014699189E1
7.731371416E0,3.594944477E0,-5.841073036E0,5.213715076E0,8.615369110E0
7.736376781E0,2.781077385E0,-4.619660378E0,4.541964531E0,7.050184056E0
7.741382145E0,1.929964542E0,-3.551396370E0,3.988415718E0,5.678436339E0
7.746387510E0,1.045682669E0,-2.645462036E0,3.459753036E0,4.479041494E0
7.751392874E0,2.043831348E-1,-1.806032181E0,2.914221048E0,3.434560965E0
7.756398239E0,-6.315646172E-1,-9.617443085E-1,2.419948816E0,2.679548144E0
7.761403603E0,-1.504193783E0,-2.423906326E-1,1.863189936E0,2.406829635E0
7.766408968E0,-2.311185837E0,3.273468018E-1,1.309131145E0,2.676295996E0
7.771414333E0,-3.093915939E0,7.037477493E-1,7.144510150E-1,3.252386353E0
7.776419697E0,-3.840971947E0,9.149303436E-1,1.091339588E-1,3.949945981E0
7.781425062E0,-4.479241371E0,1.166155815E0,-5.048922896E-1,4.656011047E0
7.786430426E0,-5.051171780E0,1.399697304E0,-1.297595620E0,5.399744742E0
7.791435791E0,-5.489691734E0,1.625099659E0,-2.333536148E0,6.182479696E0
7.796441156E0,-5.785748959E0,1.938255787E0,-3.691412926E0,7.131497451E0
7.801446520E0,-6.164662361E0,2.329871178E0,-5.248772621E0,8.425020817E0
7.806451885E0,-6.640034676E0,2.790585041E0,-6.786979675E0,9.896490210E0
7.811457249E0,-7.028426170E0,3.244110107E0,-8.101078033E0,1.120493151E1
7.816462614E0,-7.084428310E0,3.757956982E0,-9.057641029E0,1.209761242E1
7.821467978E0,-6.912857056E0,4.289850235E0,-9.346879005E0,1.239171315E1
7.826473343E0,-6.537346840E0,4.759088993E0,-9.086831093E0,1.216373015E1
7.831478708E0,-5.790450096E0,5.108746529E0,-8.344105721E0,1.136893591E1
7.836484072E0,-4.782649040E0,5.315108776E0,-7.301684380E0,1.021952582E1
7.841489437E0,-3.739757538E0,5.368726730E0,-6.119449615E0,8.958609085E0
7.846494801E0,-2.825026751E0,5.374722481E0,-5.010146141E0,7.872101514E0
7.851500166E0,-1.962247610E0,5.213183880E0,-4.023725510E0,6.871540499E0
7.856505531E0,-1.252137661E0,4.989025116E0,-3.171905756E0,6.043112315E0
7.861510895E0,-6.467239857E-1,4.682574272E0,-2.423282623E0,5.311972553E0
7.866516260E0,-3.652215004E-2,4.370050907E0,-1.822996616E0,4.735186951E0
7.871521624E0,7.629868984E-1,4.051558495E0,-1.349409103E0,4.337992643E0
7.876526989E0,1.566955566E0,3.832923889E0,-1.066643834E0,4.276024363E0
7.881532353E0,2.243250370E0,3.676605225E0,-6.941344142E-1,4.362501666E0
7.886537718E0,2.761345625E0,3.449177265E0,-3.630225658E-1,4.433242476E0
7.891543083E0,3.197157383E0,3.074360371E0,-7.523930073E-2,4.436120825E0
7.896548447E0,3.512775183E0,2.695611954E0,2.058951855E-1,4.432640987E0
7.901553812E0,3.766485453E0,2.250461102E0,4.651187658E-1,4.412178974E0
7.906559176E0,4.002032757E0,1.724484444E0,6.641077995E-1,4.408078034E0
7.911564541E0,4.253184795E0,1.093924999E0,8.225601912E-1,4.467981432E0
7.916569906E0,4.557689667E0,2.971553802E-1,9.748061895E-1,4.670233776E0
7.921575270E0,4.843040943E0,-6.555500031E-1,1.116832733E0,5.013193268E0
7.926580635E0,5.012877464E0,-1.859157562E0,1.320980310E0,5.507303904E0
7.931585999E0,5.052362442E0,-3.202992439E0,1.496437311E0,6.166429391E0
7.936591364E0,4.928555965E0,-4.624759674E0,1.576768041E0,6.940119841E0
7.941596728E0,4.872008324E0,-6.033651352E0,1.634917498E0,7.925551651E0
7.946602093E0,4.830643654E0,-7.224172592E0,1.647827744E0,8.845288239E0
7.951607458E0,4.814685822E0,-8.139444351E0,1.596854329E0,9.590708923E0
7.956612822E0,4.848350525E0,-8.655550003E0,1.348572254E0,1.001217738E1
7.961618187E0,4.926386833E0,-8.710567474E0,1.023141026E0,1.005932853E1
7.966623551E0,4.995206833E0,-8.275890350E0,6.161997318E-1,9.686183691E0
7.971628916E0,4.819298267E0,-6.921181679E0,8.473181725E-2,8.434190601E0
7.976634281E0,4.483906746E0,-5.154018402E0,-4.276386499E-1,6.844866705E0
7.981639645E0,4.098649502E0,-3.653881073E0,-8.066186905E-1,5.549811560E0
7.986645010E0,3.731100798E0,-2.540409088E0,-1.091116667E0,4.643848305E0
7.991650374E0,3.315074921E0,-1.741847038E0,-1.362697244E0,3.985059173E0
7.996655739E0,2.842381477E0,-1.215308189E0,-1.639897227E0,3.499338419E0
8.001661103E0,2.300058126E0,-8.460235596E-1,-1.911701798E0,3.108154921E0
8.006666468E0,1.794468403E0,-5.240011215E-1,-2.167135239E0,2.862021867E0
8.011671833E0,1.283569336E0,-2.875566483E-1,-2.375902653E0,2.715723197E0
8.016677197E0,7.444710732E-1,-1.032800674E-1,-2.522588968E0,2.632177626E0
8.021682562E0,2.213249207E-1,1.003942490E-1,-2.601648331E0,2.612974887E0
8.026687926E0,-2.849524021E-1,3.042192459E-1,-2.602450371E0,2.635620449E0
8.031693291E0,-7.591884136E-1,4.889268875E-1,-2.533926010E0,2.690018136E0
8.036698656E0,-1.148384333E0,6.688146591E-1,-2.391102076E0,2.735592945E0
8.041704020E0,-1.462238312E0,9.012699127E-1,-2.198195219E0,2.789711554E0
8.046709385E0,-1.691430330E0,1.147853374E0,-1.984797239E0,2.849197082E0
8.051714749E0,-1.865252495E0,1.389450550E0,-1.722954631E0,2.894531458E0
8.056720114E0,-2.012769699E0,1.587738991E0,-1.408752918E0,2.925190891E0
8.061725478E0,-2.105552912E0,1.742713928E0,-1.090686798E0,2.942788234E0
8.066730843E0,-2.229689360E0,1.854224205E0,-7.695031166E-1,3.000299500E0
8.071736208E0,-2.313332558E0,1.855134964E0,-4.700446129E-1,3.002328296E0
8.076741572E0,-2.366055250E0,1.841073990E0,-1.833597422E-1,3.003563164E0
8.081746937E0,-2.445353031E0,1.788021088E0,7.069098949E-2,3.030143243E0
8.086752301E0,-2.513044596E0,1.633760452E0,2.866522074E-1,3.011102098E0
8.091757666E0,-2.588387728E0,1.469229221E0,4.688009024E-1,3.012998477E0
8.096763031E0,-2.637744665E0,1.275166035E0,6.262016296E-1,2.995976271E0
8.101768395E0,-2.694705963E0,1.104199409E0,7.968007326E-1,3.019203201E0
8.106773760E0,-2.768945456E0,9.658727646E-1,9.372227192E-1,3.078693807E0
8.111779124E0,-2.812691689E0,8.553056717E-1,1.075576544E0,3.130438824E0
8.116784489E0,-2.888335705E0,7.293968201E-1,1.191997766E0,3.208638580E0
8.121789853E0,-2.943346262E0,5.929460526E-1,1.290843010E0,3.268202551E0
8.126795218E0,-2.973081827E0,4.890031815E-1,1.328593016E0,3.292946866E0
8.131800583E0,-2.977560043E0,4.031257629E-1,1.333527088E0,3.287349797E0
8.136805947E0,-2.957236528E0,3.354053497E-1,1.300407410E0,3.247892250E0
8.141811312E0,-2.826064348E0,2.618274689E-1,1.219043970E0,3.088893252E0
8.146816676E0,-2.502822161E0,2.206134796E-1,1.055767179E0,2.725331798E0
8.151822041E0,-2.059390068E0,2.595157623E-1,8.250586987E-1,2.233642259E0
8.156827406E0,-1.582713604E0,2.735290527E-1,5.415625572E-1,1.695019321E0
8.161832770E0,-1.140777349E0,2.201089859E-1,2.632884979E-1,1.191277365E0
8.166838135E0,-7.532782555E-1,1.187696457E-1,9.817719460E-3,7.626471966E-1
8.171843499E0,-4.349446297E-1,-1.447677612E-3,-1.941717863E-1,4.763209099E-1
8.176848864E0,-1.712706089E-1,-1.500291824E-1,-4.007066488E-1,4.608776361E-1
8.181854228E0,6.215500832E-2,-2.982978821E-1,-6.185272932E-1,6.895077113E-1
8.186859593E0,3.087453842E-1,-4.510450363E-1,-8.563413024E-1,1.015916219E0
8.191864958E0,5.204653740E-1,-6.128635406E-1,-1.084729910E0,1.350231425E0
8.196870322E0,7.261264324E-1,-8.074798584E-1,-1.312052250E0,1.703163064E0
8.201875687E0,9.303247929E-1,-1.020208359E0,-1.546618223E0,2.073247994E0
8.206881051E0,1.128020763E0,-1.245873451E0,-1.791712165E0,2.456596015E0
8.211886416E0,1.328701496E0,-1.445856094E0,-2.036084890E0,2.828708043E0
8.216891781E0,1.517897129E0,-1.619851112E0,-2.316408157E0,3.208375924E0
8.221897145E0,1.705312490E0,-1.748550415E0,-2.564177036E0,3.541260103E0
8.226902510E0,1.838477612E0,-1.870124817E0,-2.797264338E0,3.834325825E0
8.231907874E0,1.984289408E0,-1.927112579E0,-2.976910114E0,4.063638908E0
8.236913239E0,2.123427153E0,-1.929160118E0,-3.155619383E0,4.264801909E0
