"Time (s)","Linear Acceleration x (m/s^2)","Linear Acceleration y (m/s^2)","Linear Acceleration z (m/s^2)","Absolute acceleration (m/s^2)"
3.774840600E-2,0.000000000E0,0.000000000E0,0.000000000E0,0.000000000E0
4.274861500E-2,2.282559872E-3,1.177811623E-2,-2.979373932E-2,3.211854611E-2
4.774918800E-2,5.478358269E-2,-2.125644684E-2,-3.391647339E-2,6.784839446E-2
5.275033400E-2,1.498218179E-1,-3.446722031E-2,-3.385734558E-2,1.574194595E-1
5.775220900E-2,2.224710584E-1,-2.070546150E-2,1.398944855E-2,2.238700351E-1
6.275491700E-2,2.664730549E-1,9.740114212E-3,8.660507202E-2,2.803626175E-1
6.775851100E-2,2.609775066E-1,3.597402573E-2,1.638669968E-1,3.102511598E-1
7.276304200E-2,2.353441715E-1,2.594494820E-2,2.393007278E-1,3.366375763E-1
7.776851100E-2,2.026213408E-1,-3.796339035E-3,2.889852524E-1,3.529621736E-1
8.277486500E-2,1.792769432E-1,-3.033733368E-2,3.545742035E-1,3.984764008E-1
8.778205200E-2,1.118206978E-1,-3.259134293E-2,4.263954163E-1,4.420170982E-1
9.278996900E-2,-1.459538937E-2,-4.327368736E-2,5.044088364E-1,5.064720245E-1
9.779845900E-2,-1.659945846E-1,-6.649827957E-2,5.709972382E-1,5.983427691E-1
1.028074170E-1,-3.157065511E-1,-1.019220352E-1,6.051168442E-1,6.900906627E-1
1.078166360E-1,-4.474133849E-1,-1.268270016E-1,6.222677231E-1,7.768403597E-1
1.128259590E-1,-5.498712659E-1,-1.691167355E-1,6.233243942E-1,8.482288487E-1
1.178349170E-1,-6.343194842E-1,-2.192776203E-1,6.089839935E-1,9.062590067E-1
1.228403340E-1,-6.523565650E-1,-2.501204014E-1,5.300102234E-1,8.769493372E-1
1.278457500E-1,-5.849549770E-1,-2.673122883E-1,4.344682693E-1,7.761384295E-1
1.328511670E-1,-4.268587232E-1,-2.576436996E-1,3.724393845E-1,6.223341069E-1
1.378565840E-1,-2.492924333E-1,-2.675797939E-1,4.055814743E-1,5.461153685E-1
1.428620000E-1,-1.384611726E-1,-2.732365131E-1,4.289722443E-1,5.271118238E-1
1.478674170E-1,-4.475814104E-2,-3.159530163E-1,4.063634872E-1,5.166825751E-1
1.528728340E-1,4.664850235E-2,-3.665266037E-1,3.990926743E-1,5.438683633E-1
1.578781980E-1,8.106440306E-2,-3.647282124E-1,4.661254883E-1,5.973868739E-1
1.628835630E-1,5.255109072E-2,-3.632504940E-1,6.783885956E-1,7.713129230E-1
1.678889270E-1,-1.652091742E-2,-3.992369175E-1,9.342308044E-1,1.016095592E0
1.728942920E-1,-8.352464437E-2,-4.161403179E-1,9.280729294E-1,1.020523637E0
1.778996560E-1,-1.039755940E-1,-3.634612560E-1,6.781473160E-1,7.764011791E-1
1.829050210E-1,-1.312553883E-1,-3.127989769E-1,4.095401764E-1,5.317841037E-1
1.879103860E-1,-2.216500640E-1,-2.779467106E-1,2.705888748E-1,4.467677965E-1
1.929157500E-1,-3.182991743E-1,-2.768359184E-1,1.641883850E-1,4.526702065E-1
1.979211150E-1,-3.613015413E-1,-3.130245209E-1,6.129455566E-2,4.819545383E-1
2.029264790E-1,-3.434979618E-1,-3.340024948E-1,-8.959007263E-2,4.874165543E-1
2.079318440E-1,-3.041101396E-1,-3.493931293E-1,-1.804027557E-1,4.970952526E-1
2.129372090E-1,-3.091840446E-1,-3.823499680E-1,-1.618251801E-1,5.176617238E-1
2.179425730E-1,-3.483124673E-1,-4.093976021E-1,-7.397842407E-2,5.425871162E-1
2.229479380E-1,-3.556801975E-1,-4.596493244E-1,2.577686310E-2,5.817648588E-1
2.279533020E-1,-3.463843465E-1,-5.052244663E-1,1.141223907E-1,6.231033598E-1
2.329586670E-1,-3.583790064E-1,-5.422756672E-1,1.682786942E-1,6.714284253E-1
2.379640310E-1,-3.913011551E-1,-5.623629093E-1,1.939716339E-1,7.120348520E-1
2.429693960E-1,-4.259077609E-1,-5.383188725E-1,1.592769623E-1,7.046657221E-1
2.479747610E-1,-4.579879045E-1,-4.901502132E-1,6.561851501E-2,6.740222116E-1
2.529801250E-1,-4.553559422E-1,-4.230277538E-1,-2.495288849E-2,6.220322832E-1
2.579854900E-1,-4.329361916E-1,-3.607013226E-1,-1.079416275E-1,5.737513268E-1
2.629908540E-1,-4.189647138E-1,-3.500409126E-1,-1.835613251E-1,5.759816247E-1
2.679962190E-1,-4.037923515E-1,-3.287899494E-1,-2.989683151E-1,6.004441251E-1
2.730015840E-1,-3.825547397E-1,-3.297457695E-1,-4.300518036E-1,6.633437685E-1
2.780069480E-1,-3.691889346E-1,-3.283693790E-1,-5.767650604E-1,7.594635300E-1
2.830123130E-1,-3.446436226E-1,-3.098921776E-1,-7.437915802E-1,8.763779454E-1
2.880176770E-1,-2.852463126E-1,-2.692606449E-1,-8.700056076E-1,9.543461170E-1
2.930230420E-1,-2.191839665E-1,-1.919035912E-1,-9.518156052E-1,9.954001937E-1
2.980284590E-1,-1.784813255E-1,-1.249239445E-1,-1.009045601E0,1.032295791E0
3.030338750E-1,-1.433055103E-1,-7.702255249E-2,-1.056410789E0,1.068865145E0
3.080392920E-1,-1.035845578E-1,-5.661773682E-2,-1.089588165E0,1.095964278E0
3.130447090E-1,-4.974390566E-2,-6.273269653E-3,-1.099587440E0,1.100729917E0
3.180501250E-1,1.825220883E-2,4.593515396E-2,-1.077595711E0,1.078728741E0
3.230555420E-1,8.234843612E-2,1.237187386E-1,-1.028927803E0,1.039605702E0
3.280609590E-1,1.385276467E-1,1.891145706E-1,-9.587516785E-1,9.869949395E-1
3.330663750E-1,1.405305713E-1,2.279701233E-1,-9.379501343E-1,9.754330695E-1
3.380717920E-1,1.222201586E-1,2.265985012E-1,-9.280185699E-1,9.630696310E-1
3.430772090E-1,4.582373798E-2,1.999719143E-1,-9.335269928E-1,9.558039693E-1
3.480826250E-1,-5.520252883E-2,1.532325745E-1,-9.259519577E-1,9.401673091E-1
3.530880420E-1,-1.577016413E-1,9.569883347E-2,-8.346414566E-1,8.547832681E-1
3.580934590E-1,-2.672960758E-1,4.110574722E-2,-6.983652115E-1,7.488997551E-1
3.630988750E-1,-3.563967347E-1,-3.985667229E-2,-5.315866470E-1,6.412421930E-1
3.681042920E-1,-3.834993243E-1,-1.334717274E-1,-3.816089630E-1,5.572358876E-1
3.731097090E-1,-3.548102677E-1,-1.976282597E-1,-2.574043274E-1,4.808370232E-1
3.781151250E-1,-3.091247976E-1,-2.470874786E-1,-1.396245956E-1,4.196491276E-1
3.831205420E-1,-2.182694077E-1,-2.727897167E-1,-6.585025787E-2,3.555165543E-1
3.881259590E-1,-1.392305493E-1,-2.847702503E-1,-2.593135834E-2,3.180435138E-1
3.931313750E-1,-8.627930284E-2,-2.834234238E-1,1.844787598E-2,2.968388104E-1
3.981367920E-1,-6.408285350E-2,-2.879188061E-1,8.615398407E-2,3.072887241E-1
4.031422090E-1,-4.390883818E-2,-2.887301445E-1,1.579971313E-1,3.320484542E-1
4.081476250E-1,-1.580091938E-2,-3.049521446E-1,2.623281479E-1,4.025686733E-1
4.131530420E-1,3.481511772E-2,-3.461346626E-1,3.279466629E-1,4.780902747E-1
4.181588750E-1,6.073634326E-2,-3.647537231E-1,3.884677887E-1,5.363221092E-1
4.231647090E-1,6.195924431E-2,-3.518002033E-1,4.345598221E-1,5.625340612E-1
4.281703340E-1,7.617913932E-2,-2.744750977E-1,4.096603394E-1,4.989603533E-1
4.331757500E-1,8.435684443E-2,-1.995069981E-1,3.476772308E-1,4.096322452E-1
4.381811670E-1,8.203727752E-2,-1.549172401E-1,2.915315628E-1,3.401765987E-1
4.431865840E-1,6.496939063E-2,-1.019809246E-1,2.362689972E-1,2.654132057E-1
4.481920000E-1,4.773045331E-2,-5.467510223E-2,1.770505905E-1,1.913490909E-1
4.531974170E-1,3.083180636E-2,3.469562531E-2,1.564044952E-1,1.631464153E-1
4.582027810E-1,4.776622355E-2,5.702280998E-2,1.170282364E-1,1.386680247E-1
4.632081460E-1,6.952938437E-2,6.994009018E-2,1.017093658E-1,1.416712625E-1
4.682135110E-1,1.062281281E-1,8.791041374E-2,8.645153046E-2,1.627468069E-1
4.732188750E-1,1.627144814E-1,1.537358761E-1,8.537769318E-2,2.395831224E-1
4.782242400E-1,2.196307629E-1,2.289657593E-1,9.834480286E-2,3.321666618E-1
4.832296040E-1,2.394327223E-1,3.276174068E-1,1.252212524E-1,4.246664054E-1
4.882349690E-1,2.323455811E-1,3.784174919E-1,8.061027527E-2,4.513117367E-1
4.932403340E-1,2.319416404E-1,4.151995182E-1,-3.002929688E-2,4.765388999E-1
4.982456980E-1,2.144272774E-1,3.912031651E-1,-1.445512772E-1,4.689499391E-1
5.032510630E-1,1.939518452E-1,3.450195789E-1,-2.203130722E-1,4.529830878E-1
5.082564270E-1,1.417986006E-1,3.479402065E-1,-2.577285767E-1,4.556240223E-1
5.132617920E-1,1.050539911E-1,3.942623138E-1,-3.186759949E-1,5.177195214E-1
5.182671560E-1,4.460541904E-2,4.452838898E-1,-3.649034500E-1,5.774269770E-1
5.232725210E-1,3.035321832E-3,4.627492428E-1,-3.917484283E-1,6.063108988E-1
5.282778860E-1,-5.810445547E-2,4.799797535E-1,-4.040975571E-1,6.301202482E-1
5.332832500E-1,-7.692956179E-2,4.494764805E-1,-4.162940979E-1,6.174528645E-1
5.382886150E-1,-7.286573201E-2,4.098360538E-1,-4.521007538E-1,6.145486942E-1
5.432939790E-1,-1.275762171E-2,3.755657673E-1,-4.828996658E-1,6.118860104E-1
5.482993440E-1,6.942925602E-2,3.658268452E-1,-4.993238449E-1,6.228755930E-1
5.533047090E-1,1.877682209E-1,4.044916630E-1,-5.016174316E-1,6.711858595E-1
5.583100730E-1,2.514376938E-1,4.199616909E-1,-4.519681931E-1,6.662311785E-1
5.633154380E-1,2.989634871E-1,4.217927456E-1,-3.935003281E-1,6.497159341E-1
5.683208020E-1,3.875418901E-1,4.381721020E-1,-3.119506836E-1,6.629455004E-1
5.733261670E-1,4.797492027E-1,4.687631130E-1,-2.501688004E-1,7.158788880E-1
5.783315310E-1,5.666443706E-1,5.465967655E-1,-1.842336655E-1,8.085764715E-1
5.833368960E-1,6.484673619E-1,5.571699142E-1,-1.473331451E-1,8.675570808E-1
5.883422610E-1,6.582490206E-1,5.530354977E-1,-6.320476532E-2,8.620527113E-1
5.933476250E-1,6.346712112E-1,5.057480335E-1,2.980518341E-2,8.120818732E-1
5.983530420E-1,5.879039764E-1,4.486503601E-1,1.127042770E-1,7.480778604E-1
6.033584590E-1,4.424495399E-1,3.674809933E-1,1.618824005E-1,5.975029601E-1
6.083638750E-1,2.613396049E-1,3.239464760E-1,1.871719360E-1,4.563694140E-1
6.133692920E-1,1.163490266E-1,2.753484249E-1,1.934289932E-1,3.560458208E-1
6.182745000E-1,-7.462024689E-3,2.027292252E-1,1.191082001E-1,2.352479200E-1
6.231877290E-1,-8.712555468E-2,1.211631298E-1,2.712249756E-3,1.492605862E-1
6.281123650E-1,-1.520825475E-1,8.335232735E-2,-1.127815247E-1,2.068728693E-1
6.330511670E-1,-1.980523765E-1,6.548976898E-2,-2.274675369E-1,3.086343047E-1
6.380062710E-1,-2.109769881E-1,8.185696602E-2,-2.416744232E-1,3.310866642E-1
6.429790310E-1,-2.288970649E-1,1.038832664E-1,-2.750072479E-1,3.725782948E-1
6.479700210E-1,-2.092619836E-1,1.413767338E-1,-2.466650009E-1,3.530178201E-1
6.529790840E-1,-1.664822102E-1,1.755206585E-1,-2.189655304E-1,3.262969987E-1
6.580053860E-1,-1.240778416E-1,2.107927799E-1,-1.443462372E-1,2.840153923E-1
6.630473650E-1,-9.622877836E-2,2.658717632E-1,-3.261852264E-2,2.846256143E-1
6.681029380E-1,-1.159770489E-1,3.209369183E-1,6.384086609E-2,3.471697532E-1
6.731695520E-1,-1.636883616E-1,3.232915401E-1,1.167783737E-1,3.807210110E-1
6.782443440E-1,-1.818636209E-1,3.205981255E-1,1.266126633E-1,3.897284967E-1
6.833241880E-1,-1.801391393E-1,2.748539448E-1,1.222057343E-1,3.506123813E-1
6.884059060E-1,-1.682129353E-1,2.386958599E-1,1.369056702E-1,3.225127403E-1
6.934570520E-1,-1.794061363E-1,2.497918606E-1,1.943511963E-1,3.638061611E-1
6.984624690E-1,-2.268395722E-1,3.173620701E-1,3.083877563E-1,4.972704328E-1
7.034678860E-1,-2.286385894E-1,2.987475395E-1,1.935548782E-1,4.230711380E-1
7.084733020E-1,-2.666687667E-1,2.462000847E-1,2.128286362E-1,4.207407055E-1
7.134787190E-1,-3.216368258E-1,2.450754642E-1,2.702159882E-1,4.863423806E-1
7.184840840E-1,-4.039059579E-1,2.801921368E-1,3.132991791E-1,5.829271241E-1
7.234894480E-1,-4.800967574E-1,3.032510281E-1,2.663412094E-1,6.272094724E-1
7.284948130E-1,-5.787590146E-1,2.999513149E-1,6.839656830E-2,6.554470832E-1
7.335001770E-1,-5.617477894E-1,3.278939724E-1,-2.936162949E-1,7.136424627E-1
7.385055420E-1,-4.974679053E-1,3.636789322E-1,-6.237697601E-1,8.768268906E-1
7.435109060E-1,-4.340919852E-1,4.174938202E-1,-9.082584381E-1,1.089802887E0
7.485162710E-1,-3.904805481E-1,4.756495953E-1,-1.152379036E0,1.306405388E0
7.535216360E-1,-3.710947931E-1,4.769375324E-1,-1.413580894E0,1.537332658E0
7.585270000E-1,-2.248023152E-1,4.508273602E-1,-1.744073391E0,1.815371417E0
7.635323650E-1,-6.793642044E-2,3.983032703E-1,-1.948778152E0,1.990225399E0
7.685377290E-1,8.864729106E-2,3.723697662E-1,-2.119101524E0,2.153394728E0
7.735430940E-1,9.263902903E-2,3.870966434E-1,-2.032168388E0,2.070781051E0
7.785484590E-1,3.201523423E-2,4.275934696E-1,-1.860991001E0,1.909750941E0
7.835538230E-1,-2.534586191E-2,5.263781548E-1,-1.753350735E0,1.830834557E0
7.885591880E-1,-9.815755486E-2,5.923895836E-1,-1.537683964E0,1.650767184E0
7.935645520E-1,-9.522853792E-2,6.020579338E-1,-1.390553474E0,1.518282317E0
7.985699170E-1,-8.310761303E-2,5.034682751E-1,-1.306602478E0,1.402710667E0
8.035752810E-1,-1.090541333E-1,3.969900608E-1,-1.285240173E0,1.349568900E0
8.085806460E-1,-1.954074800E-1,3.254246712E-1,-1.273710251E0,1.329068510E0
8.135860110E-1,-2.504363358E-1,2.604384422E-1,-1.324264526E0,1.372670054E0
8.185880420E-1,-2.930339575E-1,1.974120140E-1,-1.355702400E0,1.400988723E0
8.235900730E-1,-3.371760547E-1,1.409902573E-1,-1.349160194E0,1.397783665E0
8.285925210E-1,-3.870937228E-1,6.232905388E-2,-1.366607666E0,1.421739418E0
8.335954900E-1,-4.145557284E-1,-6.242620945E-2,-1.431507587E0,1.491632480E0
8.385990310E-1,-4.772816598E-1,-1.859061718E-1,-1.533841610E0,1.617105121E0
8.436031980E-1,-6.024961472E-1,-2.747348547E-1,-1.611583233E0,1.742320684E0
8.486080420E-1,-7.579938173E-1,-4.156939983E-1,-1.706654072E0,1.913118984E0
8.536135630E-1,-8.565294147E-1,-5.798176527E-1,-1.767721176E0,2.048089184E0
8.586197090E-1,-8.218325377E-1,-7.959429026E-1,-1.885301590E0,2.205288169E0
8.636264270E-1,-6.276458502E-1,-1.068891764E0,-2.192244530E0,2.518413190E0
8.686336670E-1,-4.159827828E-1,-1.360730648E0,-2.482712269E0,2.861553736E0
8.736413230E-1,-2.519009709E-1,-1.510284305E0,-2.623472691E0,3.037601313E0
8.786492920E-1,-1.593641192E-1,-1.556469202E0,-2.710681915E0,3.129822638E0
8.836574690E-1,1.925911009E-2,-1.628306746E0,-2.911327362E0,3.335802869E0
8.886656980E-1,2.264406532E-1,-1.782772779E0,-3.067700386E0,3.555325556E0
8.936734590E-1,3.529306054E-1,-1.971784830E0,-3.094393730E0,3.686158975E0
8.986788750E-1,4.279721975E-1,-2.123878956E0,-2.996906281E0,3.698035867E0
9.036842920E-1,4.998385310E-1,-2.230123758E0,-2.766356468E0,3.588316965E0
9.086897090E-1,6.453334689E-1,-2.343881607E0,-2.512853146E0,3.496379156E0
9.136951250E-1,8.404549360E-1,-2.442036867E0,-2.155440807E0,3.363901549E0
9.187005420E-1,1.005238414E0,-2.501696825E0,-1.689743042E0,3.181858391E0
9.237059060E-1,1.094315052E0,-2.519036770E0,-1.268521786E0,3.025263493E0
9.287112710E-1,1.087245107E0,-2.470904827E0,-1.024674416E0,2.887460865E0
9.337166360E-1,9.863594174E-1,-2.381655216E0,-1.028527260E0,2.775437766E0
9.387220000E-1,7.730271816E-1,-2.246348381E0,-1.297786236E0,2.707009639E0
9.437273650E-1,4.617446065E-1,-2.040519476E0,-1.607296944E0,2.638243976E0
9.487327290E-1,1.104832143E-1,-1.795996547E0,-2.109507084E0,2.772693685E0
9.537380940E-1,-2.529862225E-1,-1.554009795E0,-2.651296616E0,3.083556748E0
9.587434590E-1,-7.057842612E-1,-1.284389019E0,-3.013675213E0,3.351122926E0
9.637488230E-1,-1.042638063E0,-9.668161273E-1,-3.197847843E0,3.499722615E0
9.687541880E-1,-1.203234673E0,-7.054637671E-1,-3.452611923E0,3.723705399E0
9.737595520E-1,-1.332139969E0,-5.609964132E-1,-3.553956032E0,3.836654447E0
9.787649170E-1,-1.472266436E0,-4.457836151E-1,-3.498189926E0,3.821468860E0
9.837702810E-1,-1.571565866E0,-3.632243872E-1,-3.262604237E0,3.639551845E0
9.887756460E-1,-1.640371680E0,-2.695108652E-1,-2.757838249E0,3.220112912E0
9.937810110E-1,-1.611938119E0,-9.343647957E-2,-2.104296207E0,2.652383344E0
9.987863750E-1,-1.590376616E0,1.017210484E-1,-1.583436966E0,2.246534570E0
1.003791740E0,-1.699311972E0,3.196508884E-1,-1.241896152E0,2.128883257E0
1.008797104E0,-1.968065023E0,5.074307919E-1,-8.643455505E-1,2.208587597E0
1.013802469E0,-2.393309116E0,5.605677366E-1,-3.701953888E-1,2.485801549E0
1.018804500E0,-2.853018761E0,4.937891960E-1,2.302093506E-1,2.904572286E0
1.023806531E0,-3.078325033E0,4.256401062E-1,9.219198227E-1,3.241479704E0
1.028808979E0,-3.068626881E0,5.211045742E-1,1.866373062E0,3.629238118E0
1.033811948E0,-2.946348667E0,7.870244980E-1,3.238580704E0,4.448458497E0
1.038815490E0,-2.481770515E0,1.071703911E0,5.070565224E0,5.746160966E0
1.043819656E0,-1.934746504E0,1.503708482E0,6.746936798E0,7.178129240E0
1.048824500E0,-1.317214370E0,2.167300224E0,8.239747047E0,8.621233981E0
1.053830021E0,-5.326508284E-1,2.657320261E0,9.225958824E0,9.615788272E0
1.058836167E0,3.669303656E-1,2.996327400E0,1.005558395E1,1.049892301E1
1.063842886E0,1.059722424E0,3.377997875E0,1.091997623E1,1.147953667E1
1.068850125E0,1.528745890E0,3.767490864E0,1.187086105E1,1.254784418E1
1.073857781E0,1.734726906E0,3.877513409E0,1.285982132E1,1.354324156E1
1.078865750E0,1.654912591E0,3.750222921E0,1.397184467E1,1.456074693E1
1.083873927E0,1.342234373E0,3.473515272E0,1.547766781E1,1.591933109E1
1.088882156E0,1.002635956E0,2.955281019E0,1.732831192E1,1.760708263E1
1.093889865E0,7.768552303E-1,2.243892908E0,1.920915604E1,1.935536709E1
1.098895281E0,6.543484926E-1,1.530347109E0,2.055408669E1,2.062136304E1
1.103900698E0,6.001848578E-1,1.078577042E0,2.165625954E1,2.169140676E1
1.108906115E0,6.148072481E-1,9.082934856E-1,2.265043640E1,2.267697630E1
1.113911531E0,7.106406689E-1,1.019252300E0,2.340919113E1,2.344214399E1
1.118916948E0,8.975668550E-1,1.350178719E0,2.367716599E1,2.373261043E1
1.123922365E0,1.082216144E0,1.757151127E0,2.320937347E1,2.330093966E1
1.128927729E0,1.091476917E0,2.037697792E0,2.214271164E1,2.226304590E1
1.133933094E0,9.007399678E-1,2.167604208E0,2.047012329E1,2.060426626E1
1.138938459E0,4.591504335E-1,2.174919605E0,1.846544647E1,1.859875823E1
1.143943823E0,-1.900691986E-1,2.215663910E0,1.639162827E1,1.654178860E1
1.148949188E0,-9.469203949E-1,2.245239496E0,1.438153267E1,1.458650885E1
1.153954552E0,-1.592485189E0,2.232873678E0,1.242451668E1,1.272361382E1
1.158959917E0,-2.090697527E0,2.189941883E0,1.042428398E1,1.085507062E1
1.163965281E0,-2.586507082E0,2.055503607E0,8.609351158E0,9.221498866E0
1.168970646E0,-2.955650330E0,1.810924053E0,6.850070000E0,7.677159227E0
1.173976011E0,-3.098690033E0,1.528553486E0,5.050589561E0,6.119379919E0
1.178981375E0,-3.131396770E0,1.257444143E0,3.239121437E0,4.677469315E0
1.183986740E0,-3.097193003E0,9.432177544E-1,1.509916306E0,3.572409758E0
1.188992104E0,-3.048262596E0,6.508822441E-1,-6.228733063E-2,3.117600401E0
1.193997469E0,-2.992766857E0,4.014720917E-1,-1.421876907E0,3.337599023E0
1.199002834E0,-3.004966497E0,1.481027603E-1,-2.484466076E0,3.901836716E0
1.204008198E0,-3.014323473E0,-4.659891129E-2,-3.423313618E0,4.561512204E0
1.209013563E0,-2.931269646E0,-1.635723114E-1,-4.134256363E0,5.070618632E0
1.214018927E0,-2.639620304E0,-2.891135216E-1,-4.599291325E0,5.310806216E0
1.219020906E0,-2.134691477E0,-4.144496918E-1,-4.838359833E0,5.304564272E0
1.224022886E0,-1.575760126E0,-5.033848286E-1,-4.990052223E0,5.257094012E0
1.229025281E0,-1.073575377E0,-4.865915775E-1,-5.139817238E0,5.273239677E0
1.234028198E0,-7.898354530E-1,-4.710643291E-1,-5.306083202E0,5.385189003E0
1.239031740E0,-5.876603127E-1,-4.287989140E-1,-5.583818913E0,5.631007618E0
1.244035906E0,-3.780874014E-1,-4.643893242E-1,-5.977346420E0,6.007268743E0
1.249040750E0,-2.071291208E-1,-5.009617805E-1,-6.385953903E0,6.408921316E0
1.254046271E0,-7.398882508E-2,-5.048763752E-1,-6.780810356E0,6.799982617E0
1.259052417E0,-5.711397529E-2,-5.903697014E-1,-7.238133430E0,7.262394505E0
1.264059136E0,-9.401100874E-2,-6.948084831E-1,-7.547719479E0,7.580215447E0
1.269066375E0,-1.390081644E-1,-9.835131168E-1,-7.832846642E0,7.895575206E0
1.274074031E0,-2.424894571E-1,-1.135246992E0,-8.211527824E0,8.293176477E0
1.279082000E0,-2.693881989E-1,-1.177067041E0,-8.563442230E0,8.648155853E0
1.284090177E0,-2.365510464E-1,-1.153810143E0,-8.840744972E0,8.918856760E0
1.289098406E0,-7.544082403E-2,-1.228172660E0,-9.058257103E0,9.141450713E0
1.294106271E0,2.293566763E-1,-1.347490072E0,-9.092539787E0,9.194705746E0
1.299111688E0,6.656885147E-1,-1.502689123E0,-8.963563919E0,9.112995881E0
1.304117104E0,1.155957222E0,-1.656607628E0,-8.676706314E0,8.908749541E0
1.309122521E0,1.667916059E0,-1.782435894E0,-8.251304626E0,8.604827118E0
1.314127938E0,2.108042240E0,-1.892089844E0,-7.825713158E0,8.322597701E0
1.319133354E0,2.440153599E0,-2.077637196E0,-7.418748379E0,8.081383137E0
1.324138719E0,2.647770882E0,-2.225470304E0,-7.015776634E0,7.822054110E0
1.329144084E0,2.733545303E0,-2.346294403E0,-6.630869865E0,7.546244266E0
1.334149448E0,2.694490910E0,-2.421700716E0,-6.383129597E0,7.339568044E0
1.339154813E0,2.598163843E0,-2.404455185E0,-6.305452824E0,7.231223645E0
1.344160177E0,2.402772188E0,-2.361826181E0,-6.287458897E0,7.133279504E0
1.349165542E0,2.125042677E0,-2.351597071E0,-6.405039310E0,7.146351778E0
1.354170906E0,1.785594225E0,-2.378576994E0,-6.633694649E0,7.269929845E0
1.359176271E0,1.417468309E0,-2.427424431E0,-7.011322975E0,7.553823908E0
1.364181636E0,1.048156261E0,-2.544286728E0,-7.470869064E0,7.961526931E0
1.369187000E0,6.808891296E-1,-2.731768847E0,-7.988563061E0,8.470142314E0
1.374192365E0,3.287504017E-1,-2.920786381E0,-8.483505249E0,8.978247670E0
1.379197729E0,2.442252636E-2,-3.095002890E0,-8.927560806E0,9.448861376E0
1.384203094E0,-1.753005385E-1,-3.233778000E0,-9.359407425E0,9.903865800E0
1.389208459E0,-3.187991977E-1,-3.340549469E0,-9.746016502E0,1.030755749E1
1.394213823E0,-4.110734463E-1,-3.409171104E0,-1.012607384E1,1.069246465E1
1.399219188E0,-4.760466814E-1,-3.509984493E0,-1.042361832E1,1.100901587E1
1.404224552E0,-5.421966314E-1,-3.651469231E0,-1.062013435E1,1.124341845E1
1.409229917E0,-6.186668277E-1,-3.856925964E0,-1.068748856E1,1.137897351E1
1.414235281E0,-6.668600440E-1,-4.016138077E0,-1.065009880E1,1.140169601E1
1.419240646E0,-7.152445316E-1,-4.139009953E0,-1.052740479E1,1.133442675E1
1.424246011E0,-7.207695842E-1,-4.221487045E0,-1.033865738E1,1.119054503E1
1.429251375E0,-6.979077458E-1,-4.292757988E0,-1.007922363E1,1.097750406E1
1.434256740E0,-6.228635311E-1,-4.329231739E0,-9.844728470E0,1.077259881E1
1.439262104E0,-5.624685884E-1,-4.293210506E0,-9.677914619E0,1.060236100E1
1.444267469E0,-5.164384246E-1,-4.204113960E0,-9.588047981E0,1.048198201E1
1.449272834E0,-4.317750931E-1,-4.099834919E0,-9.498636246E0,1.035466883E1
1.454278198E0,-3.415378332E-1,-4.027749062E0,-9.447957039E0,1.027634676E1
1.459283563E0,-2.546721101E-1,-3.991950512E0,-9.383551598E0,1.020056701E1
1.464288979E0,-2.039114833E-1,-3.987273216E0,-9.262595177E0,1.008640655E1
1.469294396E0,-1.646904349E-1,-4.022906780E0,-9.099668503E0,9.950621526E0
1.474299813E0,-8.882355690E-2,-4.017739773E0,-8.904400826E0,9.769261823E0
1.479305229E0,7.593333721E-2,-3.986129284E0,-8.614939690E0,9.492743460E0
1.484310646E0,2.722499669E-1,-3.928275347E0,-8.274507523E0,9.163675135E0
1.489316063E0,4.475262761E-1,-3.858820200E0,-7.945230961E0,8.844064005E0
1.494321479E0,5.349342823E-1,-3.821410179E0,-7.626829624E0,8.547389108E0
1.499326896E0,6.012123823E-1,-3.740518093E0,-7.371420860E0,8.287989951E0
1.504332313E0,6.688138247E-1,-3.602990150E0,-7.235787392E0,8.110824196E0
1.509337729E0,7.734405398E-1,-3.390552282E0,-7.233823776E0,8.026347954E0
1.514343146E0,9.360557795E-1,-3.132768393E0,-7.198067665E0,7.905859620E0
1.519348563E0,1.097007990E0,-2.824844360E0,-7.085985184E0,7.706773528E0
1.524353979E0,1.283836842E0,-2.408917904E0,-6.936444283E0,7.454219060E0
1.529359396E0,1.524721622E0,-1.884272218E0,-6.530521870E0,6.965843359E0
1.534364813E0,1.762658954E0,-1.255206585E0,-5.759592056E0,6.152675094E0
1.539370229E0,1.883943558E0,-5.651240349E-1,-4.624711514E0,5.025591019E0
1.544375646E0,1.861925840E0,2.518746853E-1,-3.365194798E0,3.854185351E0
1.549381063E0,1.627126932E0,1.327990294E0,-2.205096722E0,3.045250700E0
1.554386479E0,1.145101070E0,2.732966900E0,-1.219638348E0,3.204353638E0
1.559391896E0,5.162744522E-1,4.475058556E0,-4.935832024E-1,4.531700869E0
1.564397313E0,-3.036224842E-2,6.540856838E0,-1.649274826E-1,6.543006275E0
1.569402729E0,-2.668149471E-1,8.585947037E0,-3.822293282E-1,8.598591512E0
1.574408146E0,-4.207426310E-2,9.887680054E0,-1.227981091E0,9.963730458E0
1.579413563E0,5.534408092E-1,9.727590561E0,-2.356017590E0,1.002412758E1
1.584418979E0,1.227581501E0,8.020449638E0,-3.121076107E0,8.693427679E0
1.589424396E0,1.738919497E0,5.541712761E0,-2.892429352E0,6.488495118E0
1.594429813E0,1.957837582E0,3.571949720E0,-1.266465664E0,4.265663850E0
1.599435229E0,1.768971205E0,2.611225605E0,1.237055779E0,3.387929350E0
1.604440646E0,1.272448301E0,2.485364914E0,3.703351974E0,4.637993023E0
1.609446063E0,5.025359392E-1,2.746126413E0,6.154653549E0,6.758218179E0
1.614451479E0,-3.400905132E-1,2.819519043E0,8.369070053E0,8.837798524E0
1.619456896E0,-9.066437483E-1,2.515172005E0,1.070269585E1,1.103158155E1
1.624462313E0,-1.130373478E0,1.875474215E0,1.321479988E1,1.339500219E1
1.629467729E0,-1.293224692E0,1.117952347E0,1.553468227E1,1.562845485E1
1.634473146E0,-1.572632909E0,2.926802635E-1,1.715339661E1,1.722782201E1
1.639478563E0,-1.937719941E0,-5.104447603E-1,1.785335541E1,1.796545607E1
1.644483979E0,-2.279434204E0,-1.061222911E0,1.794711685E1,1.812238995E1
1.649489396E0,-2.524099827E0,-1.339019537E0,1.759386826E1,1.782437246E1
1.654494813E0,-2.718195677E0,-1.335333586E0,1.684212112E1,1.711223970E1
1.659500229E0,-2.957420349E0,-1.100759149E0,1.556774998E1,1.588435851E1
1.664505646E0,-3.189517498E0,-7.404365540E-1,1.380424309E1,1.418726173E1
1.669511063E0,-3.339336872E0,-3.288912773E-1,1.196660137E1,1.242814904E1
1.674516479E0,-3.332554340E0,1.125619411E-1,1.014385033E1,1.067784098E1
1.679521896E0,-3.127774239E0,5.628631115E-1,8.520348549E0,9.093741032E0
1.684527313E0,-2.835039139E0,9.090793133E-1,7.256562233E0,7.843568547E0
1.689532729E0,-2.409124374E0,9.787902832E-1,6.484776497E0,6.986718606E0
1.694538146E0,-1.841310740E0,7.833232880E-1,6.094342232E0,6.414439013E0
1.699543563E0,-1.295603275E0,4.564702511E-1,5.979901314E0,6.135647697E0
1.704548979E0,-8.751969337E-1,1.641092300E-1,5.993343353E0,6.059130801E0
1.709554396E0,-6.023962498E-1,-8.173465729E-2,6.025197983E0,6.055788349E0
1.714559813E0,-4.665607214E-1,-2.024204731E-1,5.980561256E0,6.002146774E0
1.719565229E0,-4.714491367E-1,-2.194472551E-1,5.836287498E0,5.859408942E0
1.724570646E0,-5.489829779E-1,-2.300918102E-1,5.635997772E0,5.667344655E0
1.729576063E0,-6.787626743E-1,-2.309128046E-1,5.384932518E0,5.432452275E0
1.734581479E0,-8.166203499E-1,-2.564275265E-1,5.035709381E0,5.107934303E0
1.739586896E0,-9.519749284E-1,-3.071216345E-1,4.674632072E0,4.780456566E0
1.744592313E0,-1.040863514E0,-3.306087255E-1,4.359031677E0,4.493757464E0
1.749597729E0,-1.058426619E0,-3.323566914E-1,4.002926826E0,4.153811630E0
1.754603146E0,-1.081016421E0,-3.033423424E-1,3.544357300E0,3.717940525E0
1.759608563E0,-1.108902097E0,-3.014767170E-1,2.940618515E0,3.157180597E0
1.764613979E0,-1.118999720E0,-2.743293047E-1,2.249316216E0,2.527219891E0
1.769619396E0,-1.108247638E0,-2.121069431E-1,1.556406021E0,1.922394831E0
1.774624813E0,-1.030534744E0,-1.765861511E-1,9.046363831E-1,1.382588700E0
1.779630229E0,-8.971584439E-1,-1.482833624E-1,3.462095261E-1,9.730068165E-1
1.784635646E0,-7.044538260E-1,-1.317740679E-1,-1.813383102E-1,7.392585344E-1
1.789641063E0,-4.629784226E-1,-1.221086979E-1,-7.259578705E-1,8.696403760E-1
1.794646479E0,-2.028117180E-1,-1.378898621E-1,-1.297356606E0,1.320333431E0
1.799651896E0,6.015050411E-2,-1.925801039E-1,-1.795471191E0,1.806771147E0
1.804657313E0,2.908698320E-1,-2.373014688E-1,-2.196964264E0,2.228804438E0
1.809662729E0,4.739928246E-1,-2.473775148E-1,-2.473708153E0,2.530829283E0
1.814668146E0,6.332136989E-1,-2.131153345E-1,-2.669107437E0,2.751456386E0
1.819673563E0,7.882958651E-1,-1.536321640E-1,-2.792897701E0,2.906078248E0
1.824678979E0,9.255007505E-1,-7.420039177E-2,-2.778306484E0,2.929341950E0
1.829684396E0,1.016774058E0,9.936690331E-3,-2.721045971E0,2.904826914E0
1.834689813E0,1.009766698E0,6.918144226E-2,-2.635432243E0,2.823104314E0
1.839695229E0,9.665983319E-1,1.455792189E-1,-2.530995369E0,2.713197966E0
1.844700646E0,8.917962313E-1,1.904308796E-1,-2.393386841E0,2.561223342E0
1.849706063E0,8.046188951E-1,1.310849190E-1,-2.284632683E0,2.425724906E0
1.854711479E0,7.103277445E-1,6.260383129E-2,-2.156769753E0,2.271594266E0
1.859716896E0,5.811045170E-1,-1.084184647E-2,-2.109970570E0,2.188555645E0
1.864722313E0,4.703784585E-1,-1.325944662E-1,-2.129559994E0,2.184917150E0
1.869727729E0,3.355593681E-1,-2.501127720E-1,-2.224843979E0,2.263865548E0
1.874733146E0,2.147967219E-1,-3.823031187E-1,-2.357433319E0,2.397870964E0
1.879738563E0,9.827882051E-2,-4.619025588E-1,-2.498618126E0,2.542853759E0
1.884743979E0,-2.852433920E-2,-4.840381742E-1,-2.672269344E0,2.715903172E0
1.889749396E0,-1.085833907E-1,-4.862606525E-1,-2.892716885E0,2.935311014E0
1.894754813E0,-1.661456227E-1,-4.770152569E-1,-3.097887993E0,3.138798805E0
1.899760229E0,-2.345301509E-1,-4.885024428E-1,-3.254516602E0,3.299320739E0
1.904765646E0,-3.323305249E-1,-5.148436427E-1,-3.358042717E0,3.413496513E0
1.909771063E0,-3.825358152E-1,-5.122892261E-1,-3.389560699E0,3.449332636E0
1.914776479E0,-3.993580937E-1,-4.757858515E-1,-3.354069710E0,3.411105786E0
1.919781896E0,-3.683246970E-1,-4.003751278E-1,-3.232672691E0,3.278129963E0
1.924787313E0,-3.371869922E-1,-3.100769520E-1,-3.001707554E0,3.036460278E0
1.929792729E0,-2.864719629E-1,-1.958165169E-1,-2.675703526E0,2.698110385E0
1.934798146E0,-2.392761707E-1,-3.411436081E-2,-2.421959877E0,2.433989836E0
1.939803563E0,-1.896958351E-1,1.269540787E-1,-2.316609383E0,2.327827502E0
1.944808979E0,-2.085201144E-1,2.543785572E-1,-2.306758881E0,2.330091333E0
1.949814396E0,-2.805507183E-1,3.680722713E-1,-2.334952354E0,2.380375685E0
1.954819813E0,-3.866139054E-1,4.882892370E-1,-2.386984825E0,2.466899521E0
1.959825229E0,-5.267767310E-1,6.015994549E-1,-2.429562569E0,2.557770495E0
1.964830646E0,-6.153975725E-1,7.041407824E-1,-2.477251530E0,2.647886620E0
1.969836063E0,-7.245291471E-1,7.632611990E-1,-2.492009640E0,2.705110384E0
1.974841479E0,-8.163843751E-1,7.845517397E-1,-2.412010193E0,2.664544624E0
1.979846896E0,-8.726325035E-1,7.255724669E-1,-2.376143456E0,2.633249060E0
1.984852313E0,-8.657596707E-1,6.251791716E-1,-2.298472404E0,2.534435676E0
1.989857729E0,-8.783890009E-1,4.982780218E-1,-2.203141212E0,2.423567500E0
1.994863146E0,-8.827341795E-1,3.358011246E-1,-2.052095413E0,2.258999250E0
1.999868563E0,-8.744361401E-1,1.425658464E-1,-1.864562511E0,2.064353880E0
2.004873979E0,-8.678724766E-1,1.383054256E-2,-1.559330463E0,1.784630330E0
2.009879396E0,-8.571510911E-1,-5.651032925E-2,-1.188902855E0,1.466762220E0
2.014884813E0,-7.895812392E-1,-4.618620872E-2,-7.483491898E-1,1.088851785E0
2.019890229E0,-6.422053576E-1,1.040184498E-2,-2.663688660E-1,6.953332240E-1
2.024895646E0,-4.202263355E-1,7.878601551E-2,2.953310013E-1,5.196323793E-1
2.029901063E0,-1.319350004E-1,1.190304756E-1,7.745351791E-1,7.946570595E-1
2.034906479E0,1.262891889E-1,1.543666124E-1,1.219298363E0,1.235502532E0
2.039911896E0,4.174749553E-1,1.504702568E-1,1.701536179E0,1.758451593E0
2.044917313E0,6.947069764E-1,9.192633629E-2,2.149718285E0,2.261052175E0
2.049922729E0,8.907104731E-1,4.499650002E-2,2.621296883E0,2.768860267E0
2.054928146E0,1.087176085E0,-5.724906921E-3,2.982592583E0,3.174561880E0
2.059933563E0,1.312076569E0,-6.099474430E-2,3.295992851E0,3.548074711E0
2.064938979E0,1.609324217E0,-1.456916332E-1,3.413676262E0,3.776815604E0
2.069944396E0,1.892478704E0,-2.935964465E-1,3.436420441E0,3.934038633E0
2.074949813E0,2.180825472E0,-4.328004718E-1,3.354863167E0,4.024726432E0
2.079955229E0,2.435536385E0,-4.819022417E-1,3.245600700E0,4.086317555E0
2.084960646E0,2.560466290E0,-5.597160459E-1,3.060779572E0,4.029595669E0
2.089966063E0,2.545829058E0,-6.316773295E-1,2.910287857E0,3.917912359E0
2.094971479E0,2.406332731E0,-7.307045460E-1,2.707996368E0,3.695620473E0
2.099976896E0,2.190004110E0,-8.280645609E-1,2.563897133E0,3.472085458E0
2.104982313E0,2.036476374E0,-9.292359948E-1,2.387225151E0,3.272546329E0
2.109987729E0,1.883200526E0,-9.155287743E-1,2.230691910E0,3.059513614E0
2.114993146E0,1.780987382E0,-8.353084922E-1,2.084673882E0,2.866273107E0
2.119998563E0,1.723303437E0,-7.025048137E-1,1.662415504E0,2.495378340E0
2.125003979E0,1.681418180E0,-5.972909927E-1,1.036125183E0,2.063365945E0
2.130009396E0,1.503293991E0,-5.131477118E-1,2.921257019E-1,1.615100871E0
2.135014813E0,1.223524570E0,-4.715749621E-1,-4.071464539E-1,1.373012583E0
2.140020229E0,8.771156073E-1,-4.846189618E-1,-1.028613091E0,1.436047428E0
2.145025646E0,5.564464927E-1,-4.882777333E-1,-1.548801422E0,1.716634408E0
2.150031063E0,1.681754440E-1,-4.725364447E-1,-2.001416683E0,2.063308608E0
2.155036479E0,-2.677835822E-1,-4.231634736E-1,-2.396186829E0,2.447955614E0
2.160041896E0,-6.991584897E-1,-3.353350163E-1,-2.709426403E0,2.818202193E0
2.165047313E0,-1.027427435E0,-1.946463585E-1,-2.850669384E0,3.036414049E0
2.170052729E0,-1.172904134E0,-7.280838490E-2,-2.849048138E0,3.081895595E0
2.175058146E0,-1.179437280E0,4.422247410E-2,-2.795628071E0,3.034561621E0
2.180063563E0,-1.161422133E0,1.272659302E-1,-2.762078762E0,2.999029356E0
2.185068979E0,-1.160952806E0,1.757745743E-1,-2.805538654E0,3.041341030E0
2.190074396E0,-1.105648518E0,1.990201473E-1,-2.916176319E0,3.125084317E0
2.195079813E0,-9.810622334E-1,2.686704397E-1,-3.084239960E0,3.247645769E0
2.200085229E0,-8.121020198E-1,3.756194115E-1,-3.252354622E0,3.373189917E0
2.205090646E0,-6.711787581E-1,4.919476509E-1,-3.344184875E0,3.446166841E0
2.210096063E0,-5.496556759E-1,5.990917683E-1,-3.345643997E0,3.443017000E0
2.215101479E0,-4.145791531E-1,6.494225264E-1,-3.223477364E0,3.314276966E0
2.220106896E0,-1.897781193E-1,6.808010340E-1,-2.953961849E0,3.037333763E0
2.225112313E0,6.228858232E-2,7.449780703E-1,-2.628043652E0,2.732304088E0
2.230117729E0,2.937474847E-1,8.118971586E-1,-2.259974480E0,2.419286926E0
2.235123146E0,4.996674657E-1,8.421154022E-1,-1.792352200E0,2.042388879E0
2.240128563E0,7.136474848E-1,8.534534574E-1,-1.316005707E0,1.723237232E0
2.245133979E0,9.458813667E-1,8.355611563E-1,-8.833875656E-1,1.540528350E0
2.250139396E0,1.192221403E0,8.209655285E-1,-5.325078964E-1,1.542381578E0
2.255144813E0,1.353080630E0,7.947593927E-1,-3.156719208E-1,1.600661877E0
2.260150229E0,1.395901203E0,7.614229321E-1,-2.229909897E-1,1.605624499E0
2.265155646E0,1.340440154E0,6.923617721E-1,-2.207641602E-1,1.524756192E0
2.270161063E0,1.238994718E0,5.925645232E-1,-3.518486023E-1,1.417758112E0
2.275166479E0,1.148027658E0,4.437538385E-1,-4.775180817E-1,1.320192597E0
2.280171896E0,1.071507215E0,2.850403786E-1,-5.931138992E-1,1.257441779E0
2.285177313E0,9.946632385E-1,8.826065063E-2,-6.557168961E-1,1.194616904E0
2.290182729E0,8.987619281E-1,-1.270069778E-1,-7.418880463E-1,1.172306124E0
2.295188146E0,8.034512997E-1,-3.462001085E-1,-8.706645966E-1,1.234279282E0
2.300193563E0,7.755911350E-1,-5.450977683E-1,-1.027626038E0,1.398101734E0
2.305198979E0,7.952858806E-1,-6.705085039E-1,-1.064648628E0,1.488468336E0
2.310204396E0,8.096068501E-1,-7.458043098E-1,-1.058457375E0,1.527095064E0
2.315209813E0,8.191888928E-1,-8.185328245E-1,-9.804229736E-1,1.517331748E0
2.320215229E0,7.860925794E-1,-8.845419884E-1,-7.732954025E-1,1.413627197E0
2.325220646E0,7.203007340E-1,-9.258881211E-1,-3.417272568E-1,1.221834473E0
2.330226063E0,6.413230300E-1,-9.444943666E-1,1.705112457E-1,1.154313182E0
2.335231479E0,5.589598417E-1,-9.474855661E-1,6.915845871E-1,1.299405342E0
2.340236896E0,4.639784396E-1,-9.230297804E-1,1.068552017E0,1.486291822E0
2.345242313E0,3.706476688E-1,-9.448516965E-1,1.311201096E0,1.658123257E0
2.350247729E0,2.737379670E-1,-9.664019942E-1,1.434035301E0,1.750806253E0
2.355253146E0,1.629955173E-1,-9.693422318E-1,1.432410240E0,1.737236598E0
2.360258563E0,5.227524042E-2,-9.106952548E-1,1.287397385E0,1.577811958E0
2.365263979E0,-4.877209663E-2,-8.093098402E-1,1.027964592E0,1.309225854E0
2.370269396E0,-1.495889425E-1,-6.356830597E-1,6.639404297E-1,9.312822871E-1
2.375274813E0,-2.689542770E-1,-4.029764533E-1,2.481794357E-1,5.443523283E-1
2.380280229E0,-3.874388933E-1,-1.621073633E-1,-1.761283875E-1,4.554216751E-1
2.385285646E0,-4.381274581E-1,8.881103992E-2,-6.375865936E-1,7.786910393E-1
2.390291063E0,-4.788358808E-1,3.709342778E-1,-1.116996765E0,1.270652514E0
2.395296479E0,-5.005591512E-1,6.625509858E-1,-1.604813576E0,1.806920000E0
2.400301896E0,-4.751829505E-1,9.325152040E-1,-1.995977879E0,2.253732711E0
2.405307313E0,-4.558119774E-1,1.182963848E0,-2.176116943E0,2.518462423E0
2.410312729E0,-4.523670673E-1,1.410433888E0,-2.203118324E0,2.654748588E0
2.415318146E0,-4.313224554E-1,1.581794262E0,-2.106022835E0,2.668978143E0
2.420323511E0,-3.878447413E-1,1.677475452E0,-1.875548840E0,2.545983285E0
2.425328875E0,-2.988707423E-1,1.715705156E0,-1.526391029E0,2.315780102E0
2.430334240E0,-2.328957915E-1,1.695350409E0,-8.916921616E-1,1.929654987E0
2.435339604E0,-2.294021249E-1,1.633945704E0,-2.471446991E-2,1.650155963E0
2.440344969E0,-1.929345727E-1,1.524404764E0,9.880695343E-1,1.826831968E0
2.445350334E0,-2.274113297E-1,1.358950734E0,1.912411690E0,2.357070530E0
2.450355698E0,-3.743739128E-1,1.153834462E0,2.629240990E0,2.895582493E0
2.455361063E0,-6.234797239E-1,9.215669632E-1,3.201234818E0,3.389087929E0
2.460366427E0,-9.413322210E-1,6.709943414E-1,3.595286369E0,3.776562436E0
2.465371792E0,-1.270202637E0,4.264002442E-1,3.811860085E0,4.040483784E0
2.470377156E0,-1.547301054E0,2.077535987E-1,3.856231689E0,4.160267414E0
2.475382521E0,-1.786184549E0,1.898407936E-3,3.719342232E0,4.126010844E0
2.480387886E0,-1.971775770E0,-1.369548440E-1,3.468562126E0,3.992189818E0
2.485393250E0,-2.113301754E0,-1.971307099E-1,3.190148354E0,3.831703451E0
2.490398615E0,-2.215304375E0,-1.856432259E-1,2.965316772E0,3.706095039E0
2.495403979E0,-2.254714727E0,-5.266660452E-2,2.793760300E0,3.590488669E0
2.500409344E0,-2.127244473E0,1.174126863E-1,2.689485550E0,3.431076698E0
2.505414709E0,-1.777781963E0,3.402290940E-1,2.790625572E0,3.326237458E0
2.510420073E0,-1.190167189E0,5.732653737E-1,3.134683609E0,3.401672009E0
2.515425438E0,-5.814914107E-1,7.157644629E-1,3.663697243E0,3.777979422E0
2.520430802E0,-4.338842630E-2,7.621513009E-1,4.329530716E0,4.396315887E0
2.525436167E0,5.623186827E-1,7.968439460E-1,5.089060783E0,5.181669830E0
2.530441531E0,1.207356215E0,1.084773898E0,6.200518608E0,6.409436360E0
2.535446896E0,1.829848051E0,1.298733473E0,7.042975426E0,7.391789727E0
2.540452261E0,2.198358059E0,1.657262564E0,7.922697067E0,8.387396866E0
2.545457625E0,2.531714916E0,2.054041147E0,8.605761528E0,9.202597293E0
2.550462990E0,2.803181171E0,2.401797771E0,9.102710724E0,9.822718551E0
2.555468354E0,3.059169292E0,2.695130110E0,9.486192703E0,1.032521647E1
2.560473771E0,3.315599918E0,3.040063620E0,9.694632530E0,1.068742670E1
2.565479188E0,3.514918089E0,3.400977135E0,9.943451881E0,1.108122421E1
2.570484604E0,3.643351555E0,3.608919621E0,1.022290516E1,1.143704950E1
2.575490021E0,3.446873426E0,3.549112797E0,1.067119598E1,1.176229407E1
2.580495438E0,2.971649408E0,3.226994038E0,1.109163952E1,1.192764260E1
2.585500854E0,2.319481373E0,2.667432070E0,1.151689720E1,1.204716186E1
2.590506271E0,1.741048574E0,2.085194111E0,1.200292492E1,1.230648168E1
2.595511688E0,1.406789064E0,1.549472809E0,1.256726360E1,1.274033108E1
2.600517104E0,1.244186044E0,1.108397484E0,1.343804646E1,1.354096143E1
2.605522521E0,1.178614020E0,6.608777046E-1,1.424596596E1,1.430990693E1
2.610527938E0,1.122245550E0,2.871508598E-1,1.493365097E1,1.497851201E1
2.615533354E0,1.136050224E0,8.681178093E-3,1.537257004E1,1.541449302E1
2.620538771E0,1.187469363E0,-1.692948341E-1,1.565934753E1,1.570521918E1
2.625544188E0,1.126333952E0,-2.249661684E-1,1.554667187E1,1.558904244E1
2.630549604E0,8.403843641E-1,-1.639124155E-1,1.491704369E1,1.494159648E1
2.635555021E0,4.156529307E-1,-1.793146133E-2,1.384897232E1,1.385522007E1
2.640560438E0,-7.230067253E-2,1.258894205E-1,1.238226223E1,1.238311324E1
2.645565854E0,-5.154729486E-1,2.396844625E-1,1.069494820E1,1.071004565E1
2.650571271E0,-9.250252843E-1,3.532992601E-1,8.916722298E0,8.971534355E0
2.655576688E0,-1.315800548E0,5.060640574E-1,7.114742279E0,7.253067600E0
2.660582104E0,-1.709988356E0,6.657471657E-1,5.546989441E0,5.842633937E0
2.665587521E0,-2.041682959E0,7.761206627E-1,4.160227776E0,4.698758105E0
2.670592938E0,-2.282222748E0,8.337751627E-1,2.925182343E0,3.802685029E0
2.675598354E0,-2.431417465E0,8.590013981E-1,1.913079262E0,3.210848261E0
2.680603771E0,-2.431029320E0,7.905839682E-1,1.037338257E0,2.758803585E0
2.685609188E0,-2.342400551E0,6.859858036E-1,2.929830551E-1,2.458303467E0
2.690614604E0,-2.164657116E0,6.026967764E-1,-3.488416672E-1,2.273911683E0
2.695620021E0,-1.948996544E0,4.352704287E-1,-8.691062927E-1,2.177933337E0
2.700625438E0,-1.698165059E0,2.029374838E-1,-1.291930199E0,2.143369270E0
2.705630854E0,-1.434007406E0,-7.535254955E-2,-1.607931137E0,2.155805601E0
2.710636271E0,-1.239699602E0,-3.806179762E-1,-1.817451477E0,2.232678888E0
2.715641688E0,-1.136133313E0,-6.942493916E-1,-1.949544907E0,2.360827496E0
2.720647104E0,-1.101761103E0,-9.645472765E-1,-1.990165710E0,2.470827499E0
2.725652521E0,-1.077094436E0,-1.169023395E0,-1.973058701E0,2.533714419E0
2.730657938E0,-1.074518204E0,-1.318556786E0,-1.946321487E0,2.584830497E0
2.735663354E0,-1.158623934E0,-1.419239759E0,-2.053641319E0,2.752107117E0
2.740668771E0,-1.327811241E0,-1.514857650E0,-2.232917309E0,3.007290491E0
2.745674188E0,-1.542990327E0,-1.591049790E0,-2.498624802E0,3.339967737E0
2.750679604E0,-1.751710653E0,-1.638197660E0,-2.884172440E0,3.751084170E0
2.755685021E0,-1.877634525E0,-1.732168794E0,-3.322594166E0,4.191127787E0
2.760690438E0,-1.897404671E0,-1.829102039E0,-3.809118271E0,4.631969425E0
2.765695854E0,-1.807603002E0,-1.928213239E0,-4.410524368E0,5.141805141E0
2.770701271E0,-1.654356480E0,-2.066453457E0,-5.126337528E0,5.769442062E0
2.775706688E0,-1.460295916E0,-2.112203598E0,-5.722013474E0,6.271786539E0
2.780712104E0,-1.263722181E0,-2.217934608E0,-6.326938152E0,6.822490312E0
2.785717521E0,-1.132475853E0,-2.307654381E0,-6.959973335E0,7.419501272E0
2.790722938E0,-1.025821686E0,-2.315221310E0,-7.410264969E0,7.831001644E0
2.795728354E0,-9.499880672E-1,-2.280169487E0,-7.773318291E0,8.156355036E0
2.800733771E0,-9.153457284E-1,-2.156161070E0,-8.082382202E0,8.414974178E0
2.805739188E0,-9.357776046E-1,-1.991971970E0,-8.299226761E0,8.586081579E0
2.810744604E0,-1.015051603E0,-1.831768870E0,-8.443066597E0,8.698912605E0
2.815750021E0,-1.146792889E0,-1.671208143E0,-8.533270836E0,8.770677382E0
2.820755438E0,-1.290788412E0,-1.520215631E0,-8.574891090E0,8.803746220E0
2.825760854E0,-1.411859155E0,-1.412108302E0,-8.616037369E0,8.844404789E0
2.830766271E0,-1.537341833E0,-1.342060447E0,-8.695082664E0,8.931349769E0
2.835771688E0,-1.676052570E0,-1.314636111E0,-8.802453995E0,9.056523431E0
2.840777104E0,-1.780286908E0,-1.362906933E0,-8.938049316E0,9.214969472E0
2.845782521E0,-1.841421723E0,-1.443225622E0,-9.073009491E0,9.369804447E0
2.850787938E0,-1.816277146E0,-1.627180338E0,-9.188156128E0,9.506250131E0
2.855793354E0,-1.739802599E0,-1.880657315E0,-9.288116455E0,9.634982735E0
2.860798771E0,-1.680250764E0,-2.155171394E0,-9.406250000E0,9.795179704E0
2.865804188E0,-1.647828698E0,-2.426101446E0,-9.518628120E0,9.960200246E0
2.870809604E0,-1.595066786E0,-2.678404808E0,-9.558411598E0,1.005392076E1
2.875815021E0,-1.521846414E0,-2.930473328E0,-9.559358597E0,1.011360604E1
2.880820438E0,-1.418131471E0,-3.153038979E0,-9.550401688E0,1.015691509E1
2.885825854E0,-1.307785273E0,-3.355340958E0,-9.531643867E0,1.018925169E1
2.890831271E0,-1.176220059E0,-3.494394302E0,-9.546131134E0,1.023342097E1
2.895836688E0,-1.080975175E0,-3.603426456E0,-9.574742317E0,1.028731646E1
2.900842104E0,-1.002914310E0,-3.672645092E0,-9.617515564E0,1.034363402E1
2.905847521E0,-9.566881657E-1,-3.696915627E0,-9.684067726E0,1.040978411E1
2.910852938E0,-9.477603436E-1,-3.666430473E0,-9.793519974E0,1.050019026E1
2.915858354E0,-9.861019850E-1,-3.623897314E0,-9.831185341E0,1.052412629E1
2.920863771E0,-1.014597893E0,-3.573620796E0,-9.845151901E0,1.052269882E1
2.925869188E0,-1.014508486E0,-3.515283823E0,-9.826029778E0,1.048509938E1
2.930874604E0,-9.720251560E-1,-3.510784388E0,-9.759649277E0,1.041735062E1
2.935880021E0,-8.110542297E-1,-3.502578735E0,-9.607929230E0,1.025856573E1
2.940885438E0,-5.266039968E-1,-3.466736794E0,-9.438033104E0,1.006836852E1
2.945890854E0,-2.425702810E-1,-3.403606415E0,-9.249964714E0,9.859270976E0
2.950896271E0,-3.003503382E-2,-3.323023796E0,-9.010270119E0,9.603559593E0
2.955901688E0,1.014507860E-1,-3.258693933E0,-8.728542328E0,9.317554914E0
2.960907104E0,2.379900068E-1,-3.167967558E0,-8.457311630E0,9.034311136E0
2.965912521E0,2.839542925E-1,-3.099230528E0,-8.205943108E0,8.776295471E0
2.970917938E0,3.164983094E-1,-3.058050632E0,-8.007579803E0,8.577480933E0
2.975923354E0,3.355741203E-1,-3.049450636E0,-7.885917664E0,8.461646209E0
2.980928771E0,3.648542762E-1,-3.087717533E0,-7.821693420E0,8.417006960E0
2.985934188E0,4.323792458E-1,-3.182054996E0,-7.767111778E0,8.404787397E0
2.990939604E0,5.565527678E-1,-3.274258375E0,-7.641185760E0,8.331760841E0
2.995945021E0,6.743887663E-1,-3.344411612E0,-7.496961594E0,8.236766500E0
3.000950438E0,7.999720573E-1,-3.363821268E0,-7.296295166E0,8.074105026E0
3.005955854E0,9.097760916E-1,-3.313585281E0,-7.139643192E0,7.923512155E0
3.010961271E0,9.940390587E-1,-3.203474998E0,-6.926554680E0,7.695942142E0
3.015966688E0,1.080508709E0,-3.038334608E0,-6.446896553E0,7.208429193E0
3.020972104E0,1.158934116E0,-2.818413019E0,-5.897143364E0,6.637987653E0
3.025977521E0,1.094540238E0,-2.519493103E0,-5.234660625E0,5.911644077E0
3.030982938E0,8.247593641E-1,-2.113162994E0,-4.397548676E0,4.948143107E0
3.035988354E0,3.936979771E-1,-1.604858875E0,-3.500649452E0,3.871061443E0
3.040993771E0,3.458857536E-3,-1.048650503E0,-2.471823692E0,2.685068380E0
3.045999188E0,-3.157628179E-1,-3.844394684E-1,-1.415632248E0,1.500504756E0
3.051004604E0,-5.851332545E-1,4.767377377E-1,-3.025646210E-1,8.131452182E-1
3.056010021E0,-8.861290812E-1,1.537023067E0,6.821708679E-1,1.900795031E0
3.061015438E0,-1.100290060E0,2.565474749E0,1.319795609E0,3.087743407E0
3.066020854E0,-1.011753678E0,3.337690115E0,1.367309570E0,3.746112154E0
3.071026271E0,-5.333433151E-1,3.904969692E0,7.766437531E-1,4.017016170E0
3.076031688E0,9.864521027E-2,4.340792656E0,-1.098566055E-1,4.343302918E0
3.081037104E0,6.417719126E-1,4.815691948E0,-7.937383652E-1,4.922680237E0
3.086042521E0,1.037129998E0,5.575516701E0,-9.682736397E-1,5.753223353E0
3.091047938E0,1.230128407E0,6.332184792E0,-6.601638794E-1,6.484257589E0
3.096053354E0,1.532145023E0,7.010689735E0,3.062810898E-1,7.182690794E0
3.101058771E0,2.091953516E0,7.609910011E0,2.021775246E0,8.147059288E0
3.106064188E0,2.848385334E0,7.729398251E0,4.257767677E0,9.272835700E0
3.111069604E0,3.578947306E0,7.253688812E0,6.624550819E0,1.045512022E1
3.116075021E0,3.861012459E0,6.340023041E0,8.857140541E0,1.155648078E1
3.121080438E0,3.564710140E0,5.237248421E0,1.080512619E1,1.252544137E1
3.126085854E0,2.939692020E0,4.142430305E0,1.233699608E1,1.334177613E1
3.131091271E0,2.182250500E0,3.186338902E0,1.326824093E1,1.381887080E1
3.136096688E0,1.380772352E0,2.405145884E0,1.361939430E1,1.389889061E1
3.141102104E0,6.611151695E-1,1.759773493E0,1.342481232E1,1.355579071E1
3.146107521E0,4.247963428E-2,1.150551081E0,1.280914593E1,1.286078503E1
3.151112938E0,-4.440878630E-1,5.414063931E-1,1.183418083E1,1.185487962E1
3.156118354E0,-8.267827034E-1,-7.841944695E-2,1.070461845E1,1.073678609E1
3.161123771E0,-1.048217058E0,-6.525957584E-1,9.653542519E0,9.732190061E0
3.166129188E0,-1.222509623E0,-1.101953745E0,8.856704712E0,9.008332264E0
3.171134604E0,-1.310289860E0,-1.420181990E0,8.480358124E0,8.697715235E0
3.176140021E0,-1.313493371E0,-1.584031105E0,8.676869392E0,8.917537879E0
3.181145438E0,-1.197909594E0,-1.658557296E0,9.202295303E0,9.426984595E0
3.186150854E0,-9.611752033E-1,-1.748255968E0,9.717770576E0,9.920449671E0
3.191156271E0,-7.738811970E-1,-1.948263526E0,1.006641293E1,1.028237774E1
3.196161688E0,-7.783296108E-1,-2.219283104E0,1.021556187E1,1.048278201E1
3.201167104E0,-9.396905899E-1,-2.502453327E0,1.012285042E1,1.046983246E1
3.206172521E0,-1.242647052E0,-2.680708408E0,9.874835014E0,1.030741169E1
3.211177938E0,-1.662452579E0,-2.660258770E0,9.409608841E0,9.918743057E0
3.216183354E0,-2.179294825E0,-2.489956856E0,8.693973541E0,9.302386092E0
3.221188771E0,-2.768765450E0,-2.222278118E0,7.752091408E0,8.526400374E0
3.226194188E0,-3.325596333E0,-1.989698291E0,6.655827522E0,7.701852392E0
3.231199604E0,-3.730381727E0,-1.832885504E0,5.562982559E0,6.944205646E0
3.236205021E0,-3.978410721E0,-1.696425200E0,4.463788033E0,6.215385259E0
3.241210438E0,-4.064599991E0,-1.529707432E0,3.391547203E0,5.510314904E0
3.246215854E0,-3.922196388E0,-1.339775324E0,2.393825531E0,4.786337128E0
3.251221271E0,-3.532432318E0,-1.143041492E0,1.489366531E0,4.000354309E0
3.256226688E0,-3.048038244E0,-9.704259634E-1,6.490821838E-1,3.263980908E0
3.261232104E0,-2.540596485E0,-8.862385750E-1,-1.179018021E-1,2.693315828E0
3.266237521E0,-2.000221729E0,-8.542049527E-1,-7.786350250E-1,2.310157044E0
3.271242938E0,-1.407406330E0,-8.623501062E-1,-1.266742706E0,2.080643498E0
3.276248354E0,-8.087182045E-1,-8.707784414E-1,-1.525421143E0,1.933698500E0
3.281253771E0,-2.409086078E-1,-8.601732850E-1,-1.669879913E0,1.893788257E0
3.286259188E0,2.638035715E-1,-8.073348999E-1,-1.724194527E0,1.922037651E0
3.291264604E0,6.246656775E-1,-6.941687465E-1,-1.645421982E0,1.891954269E0
3.296270021E0,8.372752666E-1,-5.650331378E-1,-1.529274940E0,1.832750437E0
3.301275438E0,8.879233599E-1,-3.736407757E-1,-1.385207176E0,1.687250498E0
3.306280854E0,8.536715508E-1,-1.742781401E-1,-1.275238037E0,1.544461083E0
3.311286271E0,7.825766206E-1,2.656435966E-2,-1.199117661E0,1.432136514E0
3.316291688E0,6.748000383E-1,2.369066477E-1,-1.175745964E0,1.376175288E0
3.321297104E0,5.253689289E-1,4.121196270E-1,-1.161827087E0,1.340036298E0
3.326302521E0,3.197607398E-1,5.555614233E-1,-1.181079865E0,1.343817351E0
3.331307938E0,1.387858391E-1,6.423264742E-1,-1.290701866E0,1.448363254E0
3.336313354E0,5.686134100E-4,6.718734503E-1,-1.437879562E0,1.587108028E0
3.341318771E0,-1.103726029E-1,6.678860188E-1,-1.603371620E0,1.740417880E0
3.346324188E0,-1.855167001E-1,6.681990623E-1,-1.777503967E0,1.907990248E0
3.351329604E0,-1.923248023E-1,6.488518715E-1,-1.945887089E0,2.060212160E0
3.356335021E0,-1.316352934E-1,6.480207443E-1,-2.127605915E0,2.227995885E0
3.361340438E0,-8.042696118E-2,6.323199272E-1,-2.341750145E0,2.426950912E0
3.366345854E0,-4.369570315E-2,6.164879799E-1,-2.626534462E0,2.698267967E0
3.371351271E0,4.985472560E-2,5.918059349E-1,-2.967591763E0,3.026436952E0
3.376356688E0,1.947997063E-1,5.834478140E-1,-3.274137497E0,3.331416309E0
3.381362104E0,3.428053856E-1,5.976257324E-1,-3.493820190E0,3.561102578E0
3.386367521E0,4.648813307E-1,6.978077888E-1,-3.583936214E0,3.680713131E0
3.391372938E0,5.084879994E-1,8.130737543E-1,-3.606983662E0,3.732288857E0
3.396378354E0,4.742305279E-1,9.293597937E-1,-3.529659271E0,3.680638367E0
3.401383771E0,4.109529257E-1,1.051386356E0,-3.380816460E0,3.564297338E0
3.406389188E0,3.003245294E-1,1.164276004E0,-3.260897636E0,3.475512456E0
3.411394604E0,1.616564691E-1,1.305977821E0,-3.145907402E0,3.410050479E0
3.416400021E0,2.318353951E-2,1.524003506E0,-2.978407383E0,3.345748750E0
3.421405438E0,-1.919899732E-1,1.699021459E0,-2.854154110E0,3.327120339E0
3.426410854E0,-4.312025011E-1,1.812796354E0,-2.859299183E0,3.412881193E0
3.431416271E0,-7.033741474E-1,1.823571205E0,-2.955644131E0,3.543441739E0
3.436421688E0,-9.747558236E-1,1.766148210E0,-3.014207840E0,3.626965304E0
3.441427104E0,-1.212126017E0,1.684686303E0,-2.973108768E0,3.625850682E0
3.446432521E0,-1.339900732E0,1.589494824E0,-2.861336231E0,3.536816760E0
3.451437938E0,-1.349291325E0,1.461872101E0,-2.679086208E0,3.336938721E0
3.456443354E0,-1.217004776E0,1.297593474E0,-2.512631893E0,3.078663424E0
3.461448771E0,-9.100272059E-1,1.078451276E0,-2.323865891E0,2.718742236E0
3.466454188E0,-4.620182514E-1,8.294999599E-1,-1.916971684E0,2.139231517E0
3.471459604E0,-5.865670741E-2,5.750958920E-1,-1.287535667E0,1.411355373E0
3.476465021E0,2.730174065E-1,2.816809416E-1,-5.696992874E-1,6.916935269E-1
3.481470438E0,4.772540927E-1,4.902172089E-2,1.648759842E-1,5.073053206E-1
3.486475854E0,6.125330925E-1,-1.335824728E-1,8.686246872E-1,1.071237562E0
3.491481271E0,7.125390768E-1,-2.912108898E-1,1.532317162E0,1.714792000E0
3.496486688E0,7.673085928E-1,-4.013562202E-1,2.137222290E0,2.305985345E0
3.501492104E0,8.000378609E-1,-4.942461252E-1,2.726789474E0,2.884392596E0
3.506497521E0,8.056640029E-1,-6.003819108E-1,3.301378250E0,3.450891374E0
3.511502938E0,8.322067857E-1,-7.312548161E-1,3.837411880E0,3.994124645E0
3.516508354E0,8.944866061E-1,-8.456478715E-1,4.311277390E0,4.483563242E0
3.521513771E0,9.209300280E-1,-9.408727288E-1,4.708956718E0,4.889542615E0
3.526519188E0,9.930063486E-1,-1.009162664E0,5.021149635E0,5.216935360E0
3.531524604E0,1.087038040E0,-1.085704684E0,5.119003296E0,5.344586149E0
3.536530021E0,1.241155386E0,-1.157055020E0,4.983726501E0,5.264672151E0
3.541535438E0,1.377961516E0,-1.204495907E0,4.673015594E0,5.018631594E0
3.546540854E0,1.491711020E0,-1.204140782E0,4.196640015E0,4.613777650E0
3.551546271E0,1.547875404E0,-1.174595594E0,3.674283028E0,4.156434631E0
3.556551688E0,1.593814254E0,-1.096439242E0,3.115525246E0,3.667276979E0
3.561557104E0,1.605000257E0,-9.835829735E-1,2.506029129E0,3.134269179E0
3.566562521E0,1.599846244E0,-8.354569077E-1,1.817126274E0,2.561141180E0
3.571567938E0,1.562885404E0,-6.703454256E-1,1.115796089E0,2.033955429E0
3.576573354E0,1.502978802E0,-5.109641552E-1,4.449729919E-1,1.648645083E0
3.581578771E0,1.414571881E0,-3.274965882E-1,-1.715860367E-1,1.462090760E0
3.586584188E0,1.278195858E0,-1.522740126E-1,-7.340831757E-1,1.481840118E0
3.591589604E0,1.127053857E0,2.997183800E-2,-1.266595840E0,1.695704494E0
3.596595021E0,9.463500381E-1,2.056912184E-1,-1.716656685E0,1.970988951E0
3.601600438E0,7.548841238E-1,3.851000071E-1,-2.050972462E0,2.219153013E0
3.606605854E0,5.808762312E-1,5.497008562E-1,-2.303239822E0,2.438134924E0
3.611611271E0,4.813791811E-1,6.855889559E-1,-2.373181343E0,2.516693827E0
3.616616688E0,4.281836450E-1,8.312578201E-1,-2.356664658E0,2.535389340E0
3.621622104E0,2.607247531E-1,9.151558876E-1,-2.311174393E0,2.499402882E0
3.626627521E0,1.029956341E-2,9.039225578E-1,-2.265432358E0,2.439132190E0
3.631632938E0,-2.540375590E-1,8.170492649E-1,-2.224279404E0,2.383175077E0
3.636638354E0,-4.450865984E-1,7.649110556E-1,-2.221274376E0,2.391077342E0
3.641643771E0,-6.583214998E-1,7.575786114E-1,-2.242166519E0,2.456547018E0
3.646649188E0,-9.130806923E-1,7.573500872E-1,-2.320554733E0,2.606198338E0
3.651654604E0,-1.213911891E0,7.507457733E-1,-2.399212837E0,2.791670384E0
3.656660021E0,-1.512461782E0,7.814841270E-1,-2.444883347E0,2.979213430E0
3.661665438E0,-1.741003275E0,8.072633743E-1,-2.496127605E0,3.148558334E0
3.666670854E0,-1.856164694E0,8.190503120E-1,-2.524451733E0,3.238679875E0
3.671676271E0,-1.896370888E0,8.174283504E-1,-2.530079365E0,3.265840358E0
3.676681688E0,-1.866809249E0,8.073925972E-1,-2.537044048E0,3.251684499E0
3.681687104E0,-1.791792512E0,8.274567127E-1,-2.492828846E0,3.179528373E0
3.686692521E0,-1.628831148E0,8.486742973E-1,-2.373557091E0,3.001185138E0
3.691697938E0,-1.425936222E0,8.277435303E-1,-2.203190804E0,2.751818159E0
3.696703354E0,-1.255254149E0,7.883164883E-1,-1.991279602E0,2.482398098E0
3.701708771E0,-1.107396722E0,7.824022770E-1,-1.723374844E0,2.192829604E0
3.706714188E0,-9.823148251E-1,8.140635490E-1,-1.428082466E0,1.914957286E0
3.711719604E0,-8.557448387E-1,8.295183182E-1,-1.076496124E0,1.606002421E0
3.716725021E0,-7.038356066E-1,7.799439430E-1,-7.640914917E-1,1.299050778E0
3.721730438E0,-5.458137393E-1,6.979675293E-1,-5.288572311E-1,1.031872706E0
3.726735854E0,-4.155370593E-1,6.307826042E-1,-3.561735153E-1,8.351151504E-1
3.731741271E0,-2.654966712E-1,6.064462662E-1,-2.505912781E-1,7.078570087E-1
3.736746688E0,-1.108324528E-1,5.912735462E-1,-1.545648575E-1,6.211107262E-1
3.741752104E0,3.818929195E-2,5.613869429E-1,-3.936576843E-2,5.640597356E-1
3.746757521E0,1.384529471E-1,4.928897619E-1,1.428031921E-1,5.315094427E-1
3.751762938E0,2.098928094E-1,3.762229681E-1,2.627086639E-1,5.045934554E-1
3.756768354E0,2.725926042E-1,2.209258080E-1,3.490886688E-1,4.949523605E-1
3.761773771E0,2.745441794E-1,1.273769140E-1,5.071744919E-1,5.906143834E-1
3.766779188E0,2.114579678E-1,6.182861328E-2,6.268939972E-1,6.644797463E-1
3.771784604E0,1.316158175E-1,4.309022427E-2,7.465820312E-1,7.593182602E-1
3.776790021E0,5.939817429E-2,1.836276054E-2,7.753734589E-1,7.778620281E-1
3.781795438E0,-9.964525700E-3,-6.497514248E-2,7.229547501E-1,7.259370713E-1
3.786800854E0,-1.242530346E-1,-1.108814478E-1,6.515369415E-1,6.724833814E-1
3.791806271E0,-2.213083506E-1,-1.144533157E-1,5.563421249E-1,6.095847008E-1
3.796811688E0,-2.675264180E-1,-1.092767715E-1,4.565401077E-1,5.403153404E-1
3.801817104E0,-2.197141051E-1,-6.673371792E-2,3.091068268E-1,3.850645497E-1
3.806822521E0,-1.398022473E-1,-2.972924709E-2,7.103347778E-2,1.596065520E-1
3.811827938E0,-1.090858877E-1,-1.246821880E-2,-2.097444534E-1,2.367444257E-1
3.816833354E0,-8.507055044E-2,2.844917774E-2,-4.997062683E-1,5.076935186E-1
3.821838771E0,-3.992277384E-2,9.307277203E-2,-7.653217316E-1,7.719933430E-1
3.826844188E0,1.123338938E-2,1.911193132E-1,-1.044870377E0,1.062264979E0
3.831849604E0,2.503654361E-2,3.128043413E-1,-1.323936462E0,1.360617926E0
3.836855021E0,-8.217871189E-3,3.626488447E-1,-1.640795708E0,1.680414316E0
3.841860438E0,-2.190697193E-2,3.741692305E-1,-1.942771435E0,1.978596315E0
3.846865854E0,-1.182615757E-2,3.667007685E-1,-2.253805161E0,2.283472578E0
3.851871271E0,-1.210178435E-2,3.069531918E-1,-2.526083469E0,2.544693382E0
3.856876688E0,2.883499116E-2,2.570154667E-1,-2.697459698E0,2.709829741E0
3.861882104E0,6.195927411E-2,1.882407665E-1,-2.811121464E0,2.818098192E0
3.866887521E0,7.697135955E-2,1.435453892E-1,-2.867139339E0,2.871762153E0
3.871892938E0,9.286062419E-2,1.466594934E-1,-2.865594387E0,2.870847139E0
3.876898354E0,1.149134561E-1,1.590106487E-1,-2.840021610E0,2.846789812E0
3.881903771E0,1.481796652E-1,1.757057905E-1,-2.852626324E0,2.861871185E0
3.886909188E0,1.406653076E-1,1.535989046E-1,-2.855536938E0,2.863122518E0
3.891914604E0,1.456788927E-1,1.217945814E-1,-2.887090206E0,2.893327862E0
3.896920021E0,1.395503134E-1,5.670309067E-2,-2.942519665E0,2.946372602E0
3.901925438E0,1.222511083E-1,2.120447159E-2,-2.993207455E0,2.995778001E0
3.906930854E0,6.965695322E-2,-1.775312424E-2,-2.876635075E0,2.877533078E0
3.911936271E0,3.422164917E-2,-2.726316452E-3,-2.564330578E0,2.564560365E0
3.916941688E0,9.301178157E-2,2.266407013E-2,-2.161670685E0,2.163789500E0
3.921947104E0,1.948421299E-1,1.943111420E-2,-1.836038113E0,1.846449830E0
3.926952521E0,2.219689190E-1,-1.788806915E-2,-1.615913391E0,1.631185542E0
3.931957938E0,2.285564095E-1,-3.222131729E-2,-1.505887985E0,1.523474604E0
3.936963354E0,1.334323138E-1,-4.520297050E-3,-1.419729233E0,1.425992886E0
3.941968771E0,-1.158699393E-2,5.112349987E-2,-1.323971748E0,1.325009080E0
3.946974188E0,-1.739463210E-1,1.444460154E-1,-1.189962387E0,1.211252433E0
3.951979604E0,-3.443179131E-1,2.560160160E-1,-1.084666252E0,1.166447557E0
3.956985021E0,-4.893558621E-1,3.184999228E-1,-1.022337914E0,1.177321609E0
3.961990438E0,-6.094299555E-1,3.462550640E-1,-1.022047043E0,1.239305288E0
3.966995854E0,-7.338079214E-1,3.395298719E-1,-1.078966141E0,1.348303576E0
3.972001271E0,-8.390698433E-1,2.702854872E-1,-1.121379852E0,1.426388874E0
3.977006688E0,-8.775472045E-1,1.584444046E-1,-1.163753510E0,1.466122763E0
3.982012104E0,-8.016104698E-1,3.773927689E-2,-1.153511047E0,1.405201528E0
3.987017521E0,-6.550220251E-1,-3.412699699E-2,-1.019038200E0,1.211881743E0
3.992022938E0,-4.577411413E-1,-2.877533436E-2,-7.222213745E-1,8.555458410E-1
3.997028354E0,-2.243660688E-1,4.836297035E-2,-3.397226334E-1,4.099885088E-1
4.002033771E0,4.020175338E-2,1.580333710E-1,5.672550201E-2,1.726514115E-1
4.007039188E0,3.078716695E-1,2.085800171E-1,4.002561569E-1,5.463474898E-1
4.012044604E0,4.841075540E-1,1.857926846E-1,6.813879013E-1,8.562526014E-1
4.017050021E0,5.941084623E-1,8.534181118E-2,8.714933395E-1,1.058181804E0
4.022055438E0,7.152184844E-1,-6.341922283E-2,1.090196609E0,1.305407264E0
4.027060854E0,7.425889373E-1,-2.222257257E-1,1.399661064E0,1.599960530E0
4.032066271E0,7.198021412E-1,-3.482853770E-1,1.761569023E0,1.934565390E0
4.037071688E0,6.856820583E-1,-3.995338678E-1,2.104265213E0,2.248937368E0
4.042077104E0,6.263595819E-1,-4.108352661E-1,2.351451874E0,2.467881248E0
4.047082521E0,4.940270782E-1,-4.071815014E-1,2.446014404E0,2.528407798E0
4.052087938E0,2.454355806E-1,-3.984765410E-1,2.383424759E0,2.428937167E0
4.057093354E0,-1.636978388E-1,-3.986813426E-1,2.240326881E0,2.281404903E0
4.062098771E0,-6.105234027E-1,-3.970792890E-1,2.131401062E0,2.252394564E0
4.067104188E0,-9.959434867E-1,-4.355989099E-1,2.118574142E0,2.381177489E0
4.072109604E0,-1.311247826E0,-4.417120814E-1,2.211144447E0,2.608378843E0
4.077115021E0,-1.518796086E0,-4.055515528E-1,2.337155342E0,2.816648488E0
4.082120438E0,-1.647690177E0,-3.214817047E-1,2.510753632E0,3.020284292E0
4.087125854E0,-1.606523752E0,-1.885650158E-1,2.698282242E0,3.145981943E0
4.092131271E0,-1.337376833E0,4.084587097E-3,2.889984131E0,3.184431151E0
4.097136688E0,-9.352315664E-1,2.196664810E-1,3.219582558E0,3.359854653E0
4.102142104E0,-4.326268435E-1,4.974298477E-1,3.648553848E0,3.707633696E0
4.107147521E0,7.576656342E-2,8.043524027E-1,4.152848244E0,4.230705839E0
4.112152938E0,5.621811748E-1,1.106657982E0,4.627272606E0,4.790865405E0
4.117158354E0,9.792838097E-1,1.355967164E0,5.033739090E0,5.304354151E0
4.122163771E0,1.217011333E0,1.537225008E0,5.492024422E0,5.831510058E0
4.127169188E0,1.159644604E0,1.678102970E0,6.116939545E0,6.448081465E0
4.132174604E0,8.347457647E-1,1.752875805E0,6.788876534E0,7.061035240E0
4.137180021E0,3.939521909E-1,1.669023275E0,7.383532524E0,7.580065274E0
4.142185438E0,-1.831609011E-1,1.444750905E0,7.958399773E0,8.090548809E0
4.147190854E0,-8.448608518E-1,1.122553110E0,8.642603874E0,8.756056023E0
4.152196271E0,-1.385536671E0,7.159835100E-1,9.306962967E0,9.436731633E0
4.157201688E0,-1.676673889E0,3.013963699E-1,9.831904411E0,9.978397640E0
4.162207104E0,-1.689703107E0,-2.437758446E-2,1.017439747E1,1.031377985E1
4.167212521E0,-1.448730707E0,-2.256567478E-1,1.039174080E1,1.049466619E1
4.172217938E0,-1.145289302E0,-3.183673620E-1,1.067014980E1,1.073616050E1
4.177223354E0,-9.560025930E-1,-3.764698505E-1,1.108574009E1,1.113325217E1
4.182228771E0,-9.467648864E-1,-4.988448620E-1,1.164302254E1,1.169209920E1
4.187234188E0,-1.020410299E0,-7.142213583E-1,1.217462540E1,1.223817196E1
4.192239604E0,-1.123147249E0,-9.280169010E-1,1.262350273E1,1.270730091E1
4.197245021E0,-1.336371660E0,-1.185099602E0,1.299960136E1,1.312173715E1
4.202250438E0,-1.604344845E0,-1.449111581E0,1.334616852E1,1.352013539E1
4.207255854E0,-1.810436845E0,-1.718078852E0,1.361550140E1,1.384237534E1
4.212261271E0,-1.848127842E0,-2.019261360E0,1.364997292E1,1.392173673E1
4.217266688E0,-1.754135847E0,-2.312857389E0,1.348825741E1,1.379707903E1
4.222272104E0,-1.597114205E0,-2.601433754E0,1.320256138E1,1.355086190E1
4.227277521E0,-1.477770329E0,-2.753140450E0,1.277426720E1,1.315087411E1
4.232282938E0,-1.429024339E0,-2.774146080E0,1.208917332E1,1.248543586E1
4.237288354E0,-1.355132818E0,-2.659911871E0,1.111924076E1,1.151299402E1
4.242293771E0,-1.294039965E0,-2.423742771E0,1.000382233E1,1.037427249E1
4.247299188E0,-1.148600340E0,-2.106755972E0,8.882107735E0,9.200518533E0
4.252304604E0,-8.254139423E-1,-1.692406416E0,7.730480194E0,7.956498708E0
4.257310021E0,-2.740110159E-1,-1.168905735E0,6.644792557E0,6.752384081E0
4.262315438E0,5.560772419E-1,-5.244692564E-1,5.553229332E0,5.605590595E0
4.267320854E0,1.543382049E0,2.572525740E-1,4.460410118E0,4.726887502E0
4.272326271E0,2.423220634E0,1.091894507E0,3.389904022E0,4.307630571E0
4.277331688E0,3.041455984E0,1.856485605E0,2.384222984E0,4.287366621E0
4.282337104E0,3.329612255E0,2.518893242E0,1.418731689E0,4.409528381E0
4.287342521E0,3.365814924E0,3.003415585E0,4.306268692E-1,4.531517933E0
4.292347938E0,3.169021368E0,3.358823299E0,-4.849147797E-1,4.643224389E0
4.297353354E0,2.800206661E0,3.532702446E0,-1.285197258E0,4.687523430E0
4.302358771E0,2.391646624E0,3.539226294E0,-2.070866108E0,4.747060434E0
4.307364188E0,1.947182536E0,3.416501522E0,-2.751140594E0,4.799247550E0
4.312369604E0,1.495107055E0,3.140320063E0,-3.393157959E0,4.859061240E0
4.317375021E0,1.044837713E0,2.777216434E0,-3.992206097E0,4.974165909E0
4.322380438E0,5.813827515E-1,2.365217209E0,-4.562676430E0,5.172066758E0
4.327385854E0,1.332938671E-1,1.903846502E0,-5.051982403E0,5.400455995E0
4.332391271E0,-2.615472674E-1,1.440600038E0,-5.508014679E0,5.699294794E0
4.337396688E0,-5.940906405E-1,9.895305634E-1,-5.902077675E0,6.013870243E0
4.342402104E0,-9.452557564E-1,5.503851175E-1,-6.239096165E0,6.334252377E0
4.347407521E0,-1.299975872E0,1.423127651E-1,-6.543193817E0,6.672598858E0
4.352412938E0,-1.590762019E0,-1.866930723E-1,-6.857604980E0,7.042167576E0
4.357418354E0,-1.779656410E0,-4.413572550E-1,-7.124959469E0,7.357106809E0
4.362423771E0,-1.943422318E0,-7.362856865E-1,-7.292762756E0,7.583099336E0
4.367429188E0,-2.019618988E0,-1.066570401E0,-7.423369408E0,7.766778395E0
4.372434604E0,-2.041771889E0,-1.403463125E0,-7.502476692E0,7.900993463E0
4.377440021E0,-2.019376278E0,-1.728145242E0,-7.506172180E0,7.962850452E0
4.382445438E0,-1.938332677E0,-2.002890587E0,-7.482212067E0,7.984497585E0
4.387450854E0,-1.832722902E0,-2.261774540E0,-7.506937981E0,8.051621896E0
4.392456271E0,-1.705183268E0,-2.465863228E0,-7.527451515E0,8.102509349E0
4.397461688E0,-1.578549623E0,-2.572609901E0,-7.443339348E0,8.032025975E0
4.402467104E0,-1.479934931E0,-2.679757118E0,-7.354925156E0,7.966569504E0
4.407472521E0,-1.355998158E0,-2.722170353E0,-7.281019211E0,7.890638959E0
4.412477938E0,-1.163751602E0,-2.686753750E0,-7.283480644E0,7.849971579E0
4.417483354E0,-9.751662016E-1,-2.608269930E0,-7.376244545E0,7.884351891E0
4.422488771E0,-8.193227649E-1,-2.502210140E0,-7.520606041E0,7.968177998E0
4.427494188E0,-6.975783110E-1,-2.369262218E0,-7.668333054E0,8.056261588E0
4.432499604E0,-5.730604529E-1,-2.214551926E0,-7.790463924E0,8.119357528E0
4.437505021E0,-4.417005777E-1,-2.124271154E0,-7.982520580E0,8.272137702E0
4.442510438E0,-3.231599331E-1,-2.036084890E0,-8.220395088E0,8.474961323E0
4.447515854E0,-1.987542212E-1,-1.987822533E0,-8.527898788E0,8.758767003E0
4.452521271E0,-1.032704711E-1,-1.930852413E0,-8.938418388E0,9.145172449E0
4.457526688E0,-4.834470153E-2,-1.887712479E0,-9.423259735E0,9.610599339E0
4.462532104E0,-6.022450328E-2,-1.842428923E0,-9.848674774E0,1.001970888E1
4.467537521E0,-1.353608072E-1,-1.845908642E0,-1.018642712E1,1.035321200E1
4.472542938E0,-2.218734175E-1,-1.906121731E0,-1.042747688E1,1.060258469E1
4.477548354E0,-2.865396738E-1,-1.954896212E0,-1.055319214E1,1.073655385E1
4.482553771E0,-3.150310516E-1,-2.010401964E0,-1.057841587E1,1.077236478E1
4.487559188E0,-3.167294264E-1,-2.047913790E0,-1.047011280E1,1.067321556E1
4.492564604E0,-3.247424066E-1,-2.095708370E0,-1.024780464E1,1.046493914E1
4.497570021E0,-3.288045228E-1,-2.158778906E0,-9.945161819E0,1.018207653E1
4.502575438E0,-2.756031752E-1,-2.213770390E0,-9.528748512E0,9.786408159E0
4.507580854E0,-2.263980210E-1,-2.242690563E0,-9.065440178E0,9.341473259E0
4.512586271E0,-1.708307266E-1,-2.251724958E0,-8.559769630E0,8.852632634E0
4.517591688E0,-1.179154366E-1,-2.271104574E0,-8.001863480E0,8.318752261E0
4.522597104E0,-2.869202942E-2,-2.292704105E0,-7.439233303E0,7.784568548E0
4.527602521E0,4.031604528E-2,-2.322696924E0,-6.986278534E0,7.362379652E0
4.532607938E0,3.311782330E-2,-2.376654863E0,-6.666398525E0,7.077461016E0
4.537613354E0,-6.471127272E-3,-2.479285479E0,-6.445656776E0,6.906040084E0
4.542618771E0,-9.233580530E-2,-2.597419024E0,-6.361996651E0,6.872416814E0
4.547624188E0,-2.053488940E-1,-2.735683203E0,-6.353005409E0,6.920029515E0
4.552629604E0,-3.123793006E-1,-2.859992981E0,-6.385165215E0,7.003390286E0
4.557635021E0,-3.848098218E-1,-2.964559317E0,-6.406002045E0,7.069197461E0
4.562640438E0,-3.839709461E-1,-3.081866503E0,-6.492239475E0,7.196840156E0
4.567645854E0,-3.383263350E-1,-3.220015049E0,-6.668055534E0,7.412551938E0
4.572651271E0,-2.816995382E-1,-3.410674810E0,-6.756899834E0,7.574150293E0
4.577656688E0,-2.919422984E-1,-3.561161995E0,-6.663822174E0,7.561324687E0
4.582662104E0,-2.885782719E-1,-3.617535114E0,-6.446959972E0,7.398184278E0
4.587667521E0,-3.006890416E-1,-3.526817799E0,-6.159326553E0,7.103953918E0
4.592672938E0,-3.425705135E-1,-3.336726189E0,-5.748585701E0,6.655624221E0
4.597678354E0,-3.330160677E-1,-3.042797089E0,-5.176648140E0,6.013917175E0
4.602683771E0,-3.377744257E-1,-2.669450760E0,-4.558389664E0,5.293295311E0
4.607689188E0,-3.397656977E-1,-2.207597733E0,-3.994114399E0,4.576229705E0
4.612694604E0,-3.987821937E-1,-1.647722721E0,-3.521974564E0,3.908749446E0
4.617700021E0,-5.986570716E-1,-9.608006477E-1,-3.132370472E0,3.330656534E0
4.622705438E0,-9.094135761E-1,-1.076576710E-1,-2.825531483E0,2.970227497E0
4.627710854E0,-1.196264267E0,8.267416954E-1,-2.625683784E0,3.001460538E0
4.632716271E0,-1.439105988E0,1.829441786E0,-2.580958366E0,3.475518577E0
4.637721688E0,-1.585095406E0,2.835090399E0,-2.720363617E0,4.236819942E0
4.642727104E0,-1.651084185E0,3.664555311E0,-2.882091999E0,4.945856741E0
4.647732521E0,-1.709518075E0,4.138493538E0,-2.670318604E0,5.213461639E0
4.652737938E0,-1.647182226E0,4.038075924E0,-1.914130688E0,4.762684405E0
4.657743354E0,-1.484211564E0,3.439190865E0,-4.994792938E-1,3.778941298E0
4.662748771E0,-1.420696497E0,2.669301748E0,1.516160011E0,3.382645642E0
4.667754188E0,-1.428855538E0,1.972658873E0,3.798836708E0,4.512667893E0
4.672759604E0,-1.392532229E0,1.310505629E0,5.953267097E0,6.252836168E0
4.677765021E0,-1.152342200E0,7.215259075E-1,7.746930122E0,7.865330159E0
4.682770438E0,-8.125202656E-1,2.313070297E-1,9.095295906E0,9.134445782E0
4.687775854E0,-5.251928568E-1,-8.527207375E-2,1.009988308E1,1.011388833E1
4.692781271E0,-5.796819925E-1,-1.664915085E-1,1.088572407E1,1.090241896E1
4.697786688E0,-9.915769100E-1,4.992794991E-2,1.137672520E1,1.141996470E1
4.702792104E0,-1.603142500E0,6.892483234E-1,1.152541351E1,1.165676995E1
4.707797521E0,-2.114405632E0,1.576045275E0,1.122661781E1,1.153219742E1
4.712802938E0,-2.428991795E0,2.473629951E0,1.059479713E1,1.114758147E1
4.717808354E0,-2.332989216E0,3.199090242E0,9.681609154E0,1.045995090E1
4.722813771E0,-1.761752844E0,3.637245417E0,8.590995789E0,9.494131658E0
4.727819188E0,-8.098134398E-1,3.758963585E0,7.441058159E0,8.375855274E0
4.732824604E0,2.843656540E-1,3.597020626E0,6.545928955E0,7.474530560E0
4.737830021E0,1.436989069E0,3.302227974E0,6.162709236E0,7.137831065E0
4.742835438E0,2.623542786E0,2.975110531E0,6.405789375E0,7.534480535E0
4.747840854E0,3.663029432E0,2.598976374E0,7.108224869E0,8.408288982E0
4.752846271E0,4.361075878E0,2.179530144E0,7.945995331E0,9.322455484E0
4.757851688E0,4.666615963E0,1.659631968E0,8.758110046E0,1.006161888E1
4.762857104E0,4.600516319E0,1.173340559E0,9.359744072E0,1.049506015E1
4.767862521E0,4.231660843E0,7.306706905E-1,9.714222908E0,1.062106209E1
4.772867938E0,3.628907681E0,3.711342812E-1,9.755828857E0,1.041551287E1
4.777873354E0,2.918213367E0,4.930591583E-2,9.523675919E0,9.960863584E0
4.782878771E0,2.229969263E0,-1.786050797E-1,8.975169182E0,9.249774296E0
4.787884188E0,1.579164982E0,-2.935411930E-1,8.196572304E0,8.352468258E0
4.792889604E0,9.130419493E-1,-3.475282192E-1,7.269086838E0,7.334442373E0
4.797895021E0,2.931119800E-1,-2.869031429E-1,6.268964767E0,6.282367969E0
4.802900438E0,-2.619175017E-1,-1.726438999E-1,5.329769135E0,5.338992950E0
4.807905854E0,-6.943600178E-1,2.027392387E-2,4.417628288E0,4.471910840E0
4.812911271E0,-1.027700901E0,2.259867191E-1,3.513090134E0,3.667293474E0
4.817916688E0,-1.223519683E0,4.744791985E-1,2.572780609E0,2.888136248E0
4.822922104E0,-1.325278878E0,6.956727505E-1,1.653697968E0,2.230480139E0
4.827927521E0,-1.371750116E0,9.011909962E-1,7.935600281E-1,1.823069146E0
4.832932938E0,-1.311287999E0,1.116826296E0,-7.038307190E-2,1.723870926E0
4.837938354E0,-1.125683546E0,1.329886675E0,-8.955392838E-1,1.959018280E0
4.842943771E0,-8.824552298E-1,1.513150930E0,-1.558007240E0,2.344299369E0
4.847949188E0,-6.106052995E-1,1.624527216E0,-2.029545784E0,2.670390158E0
4.852954604E0,-3.392479420E-1,1.693294525E0,-2.358357430E0,2.923043838E0
4.857960021E0,-6.847393513E-2,1.695326805E0,-2.587595463E0,3.094264361E0
4.862965438E0,2.155345976E-1,1.625594854E0,-2.688610554E0,3.149228557E0
4.867970854E0,4.308075309E-1,1.526633978E0,-2.690107822E0,3.122961179E0
4.872976271E0,5.963968635E-1,1.397722483E0,-2.568087101E0,2.984022238E0
4.877981688E0,6.550863385E-1,1.261578560E0,-2.336717606E0,2.735135781E0
4.882987104E0,6.507188678E-1,1.112092733E0,-2.086642265E0,2.452399078E0
4.887992521E0,5.556561351E-1,9.525101185E-1,-1.870085239E0,2.171001628E0
4.892997938E0,4.088055789E-1,7.909560204E-1,-1.705789089E0,1.924175108E0
4.898003354E0,1.527500898E-1,5.878195763E-1,-1.579043388E0,1.691816322E0
4.903008771E0,-1.125983149E-1,3.327424526E-1,-1.489639282E0,1.530497015E0
4.908014188E0,-3.498716950E-1,5.857777596E-2,-1.466097832E0,1.508404591E0
4.913019604E0,-5.787464976E-1,-2.348760366E-1,-1.465256691E0,1.592824985E0
4.918025021E0,-7.750903368E-1,-5.239012241E-1,-1.458338737E0,1.732625002E0
4.923030438E0,-9.718948007E-1,-7.703518867E-1,-1.402267456E0,1.871997743E0
4.928035854E0,-1.116186857E0,-9.839955568E-1,-1.464432716E0,2.087746042E0
4.933041271E0,-1.194089413E0,-1.107319832E0,-1.606443882E0,2.287502717E0
4.938046688E0,-1.239945650E0,-1.154206276E0,-1.823517323E0,2.488950134E0
4.943052104E0,-1.268667698E0,-1.132967710E0,-2.048882484E0,2.662903114E0
4.948057521E0,-1.261375427E0,-1.089807868E0,-2.254200935E0,2.803599653E0
4.953062938E0,-1.198490143E0,-9.756391048E-1,-2.387174606E0,2.843739244E0
4.958068354E0,-1.084189534E0,-7.943556309E-1,-2.481599331E0,2.822198266E0
4.963073771E0,-8.793451786E-1,-5.739738941E-1,-2.513806820E0,2.724319860E0
4.968079188E0,-6.505562067E-1,-3.330707550E-1,-2.455349445E0,2.561815841E0
4.973084604E0,-4.537813663E-1,-9.992647171E-2,-2.344755173E0,2.390351365E0
4.978090021E0,-2.734403610E-1,1.355187893E-1,-2.277924538E0,2.298276566E0
4.983095438E0,-4.662340879E-2,3.401572704E-1,-2.087575912E0,2.115621398E0
4.988100854E0,2.320909649E-1,5.859286785E-1,-1.802664280E0,1.909653670E0
4.993106271E0,3.632090092E-1,8.154006004E-1,-1.542952061E0,1.782554343E0
4.998111688E0,3.440256715E-1,9.999208450E-1,-1.356325150E0,1.719829431E0
5.003117104E0,2.233131826E-1,1.067804813E0,-1.276212692E0,1.678926661E0
5.008122521E0,1.160338968E-1,1.038598299E0,-1.202123642E0,1.592875244E0
5.013127938E0,-4.540145397E-2,9.220745564E-1,-1.167510986E0,1.488410119E0
5.018133667E0,-2.380082309E-1,7.231299877E-1,-1.119650841E0,1.353950849E0
5.023139136E0,-4.774810672E-1,5.134613514E-1,-9.962596893E-1,1.218262737E0
5.028144552E0,-7.371207476E-1,2.783329487E-1,-8.833189011E-1,1.183667397E0
5.033149969E0,-9.470988512E-1,5.596399307E-2,-8.094215393E-1,1.247113239E0
5.038155386E0,-1.075587869E0,-1.823477745E-1,-7.888307571E-1,1.346251811E0
5.043160802E0,-1.143021941E0,-3.932466507E-1,-7.067632675E-1,1.400234410E0
5.048166219E0,-1.207604289E0,-5.191959143E-1,-4.772596359E-1,1.398445307E0
5.053171636E0,-1.236175299E0,-6.276834011E-1,-2.295160294E-1,1.405273436E0
5.058177052E0,-1.190470815E0,-7.051643133E-1,4.621505737E-2,1.384418037E0
5.063182469E0,-1.075437784E0,-7.285947800E-1,2.831487656E-1,1.329507429E0
5.068187886E0,-8.818580508E-1,-6.699206829E-1,4.862489700E-1,1.209506265E0
5.073193302E0,-6.244012713E-1,-5.727518797E-1,6.269588470E-1,1.054039401E0
5.078198719E0,-3.415108919E-1,-4.660835266E-1,6.719217300E-1,8.861954380E-1
5.083204136E0,-2.847173810E-2,-3.401556015E-1,6.737947464E-1,7.553249853E-1
5.088209552E0,2.287193090E-1,-2.373671532E-1,6.515913010E-1,7.302238774E-1
5.093214969E0,4.450048506E-1,-1.378881931E-1,6.769304276E-1,8.217525629E-1
5.098220386E0,6.261735559E-1,-6.027245522E-2,7.735671997E-1,9.970618353E-1
5.103225802E0,7.587221861E-1,2.869582176E-2,9.702119827E-1,1.231987864E0
5.108231219E0,8.723614216E-1,9.014320374E-2,1.309962273E0,1.576433127E0
5.113236636E0,9.913092852E-1,1.324560642E-1,1.649454117E0,1.928973196E0
5.118242052E0,1.096882224E0,1.303198338E-1,1.960314751E0,2.250103952E0
5.123247469E0,1.165301204E0,6.327557564E-2,2.185471535E0,2.477542436E0
5.128252886E0,1.211354971E0,-4.088568687E-2,2.258267403E0,2.562971745E0
5.133258302E0,1.220784783E0,-1.876893044E-1,2.183807373E0,2.508895654E0
5.138263719E0,1.212666631E0,-3.536139727E-1,1.991027832E0,2.357921760E0
5.143269136E0,1.152753472E0,-5.102313757E-1,1.684862137E0,2.104266391E0
5.148274552E0,1.040184021E0,-6.243234873E-1,1.284571648E0,1.766886225E0
5.153279969E0,9.068462253E-1,-7.056990862E-1,8.715305328E-1,1.442202048E0
5.158285386E0,7.848088741E-1,-6.875694990E-1,4.074440002E-1,1.120128295E0
5.163290802E0,7.394908667E-1,-5.698561668E-1,-9.338951111E-2,9.382453802E-1
5.168296219E0,6.783663034E-1,-4.189020395E-1,-5.020132065E-1,9.421661318E-1
5.173301636E0,6.342608929E-1,-1.955682039E-1,-8.187370300E-1,1.053975392E0
5.178307052E0,6.021463871E-1,1.000666618E-2,-1.091642380E0,1.246741148E0
5.183312469E0,6.115804911E-1,2.080749273E-1,-1.344754219E0,1.491874587E0
5.188317886E0,6.730942726E-1,3.610925674E-1,-1.625974178E0,1.796450882E0
5.193323302E0,7.303076982E-1,4.938683510E-1,-1.901879787E0,2.096282903E0
5.198328719E0,7.597659230E-1,6.172728539E-1,-2.105740547E0,2.322157033E0
5.203334136E0,7.286509871E-1,6.945793629E-1,-2.209229469E0,2.427770088E0
5.208339552E0,6.284703612E-1,7.415487766E-1,-2.294026375E0,2.491470769E0
5.213344969E0,4.659290314E-1,7.302026749E-1,-2.288535118E0,2.446973395E0
5.218282469E0,3.202330470E-1,7.042851448E-1,-2.283855438E0,2.411340381E0
5.223225386E0,1.874277294E-1,6.687633991E-1,-2.265711784E0,2.369772885E0
5.228176011E0,5.976356566E-3,6.383969784E-1,-2.129033089E0,2.222693931E0
5.233136219E0,-1.906816363E-1,6.181738377E-1,-1.878835201E0,1.987088346E0
5.238107417E0,-3.689630628E-1,5.505125523E-1,-1.553503036E0,1.688955149E0
5.243090542E0,-4.947326779E-1,4.541251659E-1,-1.253465652E0,1.422028914E0
5.248086011E0,-5.481177568E-1,3.572177887E-1,-1.026400566E0,1.217183530E0
5.253093719E0,-5.862724781E-1,2.501556873E-1,-8.626308441E-1,1.072578790E0
5.258113094E0,-6.286708713E-1,1.664564610E-1,-6.998891830E-1,9.553950420E-1
5.263143094E0,-7.141768932E-1,1.537830830E-1,-4.902868271E-1,8.798176199E-1
5.268182313E0,-7.810944319E-1,1.641330719E-1,-2.864236832E-1,8.479898013E-1
5.273229031E0,-7.818157077E-1,1.825189590E-1,-4.028797150E-2,8.038483015E-1
5.278281323E0,-7.165597677E-1,2.034221888E-1,1.813106537E-1,7.666237935E-1
5.283337104E0,-6.335529089E-1,2.400903702E-1,4.264898300E-1,8.005786965E-1
5.288394188E0,-5.908149481E-1,2.773622274E-1,5.614995956E-1,8.609726500E-1
5.293431792E0,-4.939902425E-1,3.095037937E-1,6.392726898E-1,8.651523160E-1
5.298437209E0,-3.635677695E-1,3.455222845E-1,6.695356369E-1,8.365674756E-1
5.303442625E0,-2.579968572E-1,3.854321241E-1,6.953601837E-1,8.358505164E-1
5.308448042E0,-1.682854742E-1,4.339160919E-1,7.980365753E-1,9.238319929E-1
5.313453459E0,-4.234832525E-2,4.470610619E-1,9.154100418E-1,1.019623714E0
5.318458875E0,3.826314211E-2,4.431781769E-1,1.023652077E0,1.116124786E0
5.323464292E0,3.016731143E-2,4.024970531E-1,1.079787254E0,1.152759498E0
5.328469709E0,-4.498839378E-3,3.245967627E-1,1.126946449E0,1.172770906E0
5.333475125E0,-1.042543054E-1,2.571277618E-1,1.093387604E0,1.128042596E0
5.338480542E0,-1.974377632E-1,2.097244263E-1,1.012631416E0,1.052800262E0
5.343485959E0,-2.983850837E-1,1.491746902E-1,9.277038574E-1,9.858606359E-1
5.348491375E0,-4.068050981E-1,8.560776711E-2,8.289480209E-1,9.273477767E-1
5.353496792E0,-4.984611869E-1,1.469683647E-2,7.736988068E-1,9.204832402E-1
5.358502603E0,-5.438111424E-1,-5.363726616E-2,7.570819855E-1,9.336919448E-1
5.363508019E0,-5.420714021E-1,-1.143141985E-1,7.072896957E-1,8.984252081E-1
5.368513436E0,-5.307184458E-1,-1.481181383E-1,6.434974670E-1,8.471658879E-1
5.373518853E0,-5.523985624E-1,-1.500947475E-1,6.039600372E-1,8.321299968E-1
5.378524269E0,-5.734162331E-1,-1.393674612E-1,5.503864288E-1,8.069415633E-1
5.383529686E0,-5.838893652E-1,-1.063855886E-1,4.780168533E-1,7.620661365E-1
5.388535103E0,-5.499781370E-1,-8.465158939E-2,3.486242294E-1,6.566435076E-1
5.393540519E0,-5.005143285E-1,-3.079605103E-2,1.622352600E-1,5.270514864E-1
5.398545936E0,-4.311713278E-1,4.609751701E-2,-1.899623871E-2,4.340444126E-1
5.403551353E0,-2.991099060E-1,1.179820299E-1,-2.190904617E-1,3.890849851E-1
5.408556769E0,-1.524381638E-1,1.999436617E-1,-4.620523453E-1,5.260296868E-1
5.413562186E0,-1.503250003E-2,2.834986448E-1,-7.001638412E-1,7.555308480E-1
5.418563071E0,7.015253603E-2,3.455212116E-1,-8.952884674E-1,9.622098138E-1
5.423564737E0,1.558683515E-1,3.915967941E-1,-1.047592163E0,1.129199864E0
5.428566821E0,2.374477684E-1,4.125021696E-1,-1.133256912E0,1.229150402E0
5.433569425E0,3.198503256E-1,4.417500496E-1,-1.147570610E0,1.270576893E0
5.438572654E0,3.265570700E-1,4.500699043E-1,-1.114438057E0,1.245461610E0
5.443576560E0,2.906820476E-1,4.368209839E-1,-1.033823013E0,1.159352685E0
5.448581196E0,2.214947641E-1,4.108673334E-1,-9.630699158E-1,1.070222201E0
5.453586560E0,1.808600128E-1,3.569419384E-1,-8.829078674E-1,9.693524612E-1
5.458592654E0,1.301277131E-1,2.981562614E-1,-7.741117477E-1,8.396900475E-1
5.463599425E0,9.764407575E-2,2.337293625E-1,-6.892299652E-1,7.343035649E-1
5.468606768E0,8.789572120E-2,1.295667887E-1,-6.329469681E-1,6.520238300E-1
5.473614581E0,9.106132388E-2,5.194199085E-2,-6.147117615E-1,6.235869505E-1
5.478622758E0,9.706664085E-2,4.510879517E-4,-6.248912811E-1,6.323853647E-1
5.483631143E0,1.009048074E-1,-5.379211903E-2,-6.921405792E-1,7.015225967E-1
5.488639633E0,1.022855788E-1,-8.204650879E-2,-7.685861588E-1,7.796913830E-1
5.493648123E0,1.438330710E-1,-6.979048252E-2,-8.064365387E-1,8.221304974E-1
5.498653643E0,1.683776379E-1,-6.005918980E-2,-8.535594940E-1,8.720790933E-1
5.503659060E0,1.717216372E-1,-5.268919468E-2,-8.908081055E-1,9.087373398E-1
5.508664477E0,1.927620173E-1,-9.061288834E-2,-9.755716324E-1,9.985529033E-1
5.513669893E0,2.798423469E-1,-9.215199947E-2,-1.093459129E0,1.132456003E0
5.518675310E0,3.946838081E-1,-7.616448402E-2,-1.230116844E0,1.294126650E0
5.523680727E0,4.655615985E-1,-4.229664803E-2,-1.361650467E0,1.439662670E0
5.528686143E0,5.213034153E-1,1.447749138E-2,-1.478526115E0,1.567803024E0
5.533691560E0,6.001842618E-1,6.570434570E-2,-1.642964363E0,1.750391416E0
5.538696977E0,6.972882748E-1,9.756815434E-2,-1.840628147E0,1.970695933E0
5.543702393E0,8.124902844E-1,1.442990303E-1,-1.985488415E0,2.150145790E0
5.548707810E0,9.216891527E-1,1.397509575E-1,-2.049032688E0,2.251127758E0
5.553713227E0,1.029928923E0,6.542539597E-2,-2.031435490E0,2.278544320E0
5.558718643E0,1.118901134E0,-2.572941780E-2,-1.904127598E0,2.208688221E0
5.563724060E0,1.198977351E0,-1.384320259E-1,-1.638553619E0,2.035084293E0
5.568729477E0,1.252289414E0,-2.208299637E-1,-1.320855141E0,1.833481102E0
5.573734893E0,1.299272299E0,-3.074250221E-1,-1.003563881E0,1.670257200E0
5.578740310E0,1.317337155E0,-3.799129128E-1,-7.535238266E-1,1.564451712E0
5.583745727E0,1.293112636E0,-5.156578422E-1,-5.992374420E-1,1.515628190E0
5.588751143E0,1.179283977E0,-6.289619803E-1,-4.831342697E-1,1.421169445E0
5.593756560E0,9.952538013E-1,-7.345594168E-1,-4.385852814E-1,1.312427032E0
5.598761977E0,7.555376887E-1,-7.947648168E-1,-4.510536194E-1,1.185722430E0
5.603767393E0,4.885228872E-1,-8.387399912E-1,-5.873317719E-1,1.134503413E0
5.608772810E0,2.369421870E-1,-8.619306087E-1,-7.993669510E-1,1.199188683E0
5.613778227E0,5.750364065E-2,-8.354133964E-1,-1.110964775E0,1.391209885E0
5.618779893E0,-5.080072582E-2,-7.536337376E-1,-1.445561409E0,1.631009599E0
5.623781560E0,-1.657745987E-1,-6.632670164E-1,-1.736330509E0,1.866078238E0
5.628783643E0,-2.403099835E-1,-6.493887305E-1,-1.883033276E0,2.006307287E0
5.633786248E0,-3.132203519E-1,-6.825989485E-1,-1.838112354E0,1.985624673E0
5.638789477E0,-3.129031956E-1,-7.199648619E-1,-1.673505306E0,1.848479868E0
5.643793383E0,-2.683973312E-1,-7.714127302E-1,-1.446685791E0,1.661329138E0
5.648798018E0,-1.850484312E-1,-7.656567097E-1,-1.238965034E0,1.468164662E0
5.653803383E0,-1.023033559E-1,-7.029686570E-1,-9.738187790E-1,1.205385384E0
5.658809477E0,-9.339034557E-2,-5.594477654E-1,-6.848897934E-1,8.892567615E-1
5.663816248E0,-1.113621593E-1,-3.348559141E-1,-3.101758957E-1,4.698287986E-1
5.668823591E0,-6.547468901E-2,-1.481218338E-1,6.874465942E-2,1.759341944E-1
5.673831404E0,-1.795458794E-2,-3.149151802E-2,5.137939453E-1,5.150711613E-1
5.678839581E0,-5.438661575E-2,2.249240875E-3,1.067667007E0,1.069053695E0
5.683847966E0,-2.464077473E-1,-2.613282204E-2,1.930779457E0,1.946614758E0
5.688856456E0,-4.789077044E-1,1.769888401E-2,3.193522453E0,3.229280338E0
5.693864946E0,-7.077214718E-1,1.276475191E-1,4.712196350E0,4.766755502E0
5.698870414E0,-8.304852843E-1,3.203862906E-1,6.319657326E0,6.382039008E0
5.703875831E0,-7.490606308E-1,5.411558151E-1,7.738999367E0,7.793975407E0
5.708881248E0,-6.575674415E-1,7.887107134E-1,8.875242233E0,8.934449296E0
5.713886664E0,-6.746755838E-1,1.057769895E0,9.767219543E0,9.847468807E0
5.718892081E0,-7.768602967E-1,1.286358953E0,1.037696552E1,1.048521076E1
5.723897498E0,-8.221759200E-1,1.484735727E0,1.081463146E1,1.094699352E1
5.728902914E0,-8.166674376E-1,1.672835588E0,1.105633068E1,1.121194777E1
5.733908331E0,-7.758836746E-1,1.861248970E0,1.109725952E1,1.127898099E1
5.738913748E0,-7.203888893E-1,1.998584151E0,1.108557415E1,1.128730495E1
5.743919164E0,-5.851541758E-1,2.090695858E0,1.117396545E1,1.138292223E1
5.748924581E0,-3.486665487E-1,2.123413563E0,1.133804989E1,1.154044318E1
5.753929998E0,-8.983552456E-2,2.057914495E0,1.150575066E1,1.168868601E1
5.758935414E0,6.497967243E-2,1.974527836E0,1.154777622E1,1.171555027E1
5.763940831E0,-9.248256683E-4,1.906332254E0,1.156442070E1,1.172049187E1
5.768946248E0,-2.360112667E-1,1.920008779E0,1.160332298E1,1.176347055E1
5.773951664E0,-5.453130007E-1,1.952762246E0,1.173611164E1,1.190995227E1
5.778957081E0,-8.470844030E-1,1.864800453E0,1.190074062E1,1.207570537E1
5.783962498E0,-1.068989038E0,1.678688049E0,1.195886040E1,1.212332764E1
5.788967914E0,-1.281917572E0,1.446170688E0,1.195880604E1,1.211394916E1
5.793973331E0,-1.498536825E0,1.218989611E0,1.185331249E1,1.200968631E1
5.798978748E0,-1.693470478E0,1.000924706E0,1.167645741E1,1.184100292E1
5.803984164E0,-1.807857394E0,8.246186972E-1,1.134747791E1,1.152013886E1
5.808989581E0,-1.907109737E0,6.278250217E-1,1.079514027E1,1.098026799E1
5.813994998E0,-1.937663555E0,4.781243801E-1,1.000548172E1,1.020258827E1
5.818996664E0,-1.956215143E0,3.959525824E-1,9.026552200E0,9.244576830E0
5.823998331E0,-1.890172005E0,3.833640814E-1,7.882266998E0,8.114792127E0
5.829000414E0,-1.666889668E0,4.144148827E-1,6.677636147E0,6.895004377E0
5.834003018E0,-1.342713356E0,4.916505814E-1,5.579717636E0,5.760021558E0
5.839006248E0,-9.545594454E-1,5.451098680E-1,4.588074684E0,4.717918801E0
5.844010154E0,-5.489021540E-1,6.181515455E-1,3.649930000E0,3.742378110E0
5.849014789E0,-2.206684351E-1,7.199606895E-1,2.530899048E0,2.640546902E0
5.854020154E0,6.651878357E-4,8.357589245E-1,1.259834290E0,1.511845184E0
5.859026248E0,1.144109964E-1,8.649749756E-1,8.074283600E-2,8.762368345E-1
5.864033018E0,9.655797482E-2,7.068889141E-1,-1.016036987E0,1.241509782E0
5.869040362E0,-5.231410265E-3,3.181326389E-1,-2.068806171E0,2.093130363E0
5.874048175E0,-4.829639196E-2,-2.247611284E-1,-3.034587383E0,3.043282881E0
5.879056352E0,-6.705504656E-2,-8.691513538E-1,-3.851329327E0,3.948753985E0
5.884064737E0,-8.152630925E-2,-1.481360197E0,-4.495257378E0,4.733752577E0
5.889073227E0,-8.685392141E-2,-2.004387379E0,-4.999977589E0,5.387475128E0
5.894081716E0,-4.422479868E-2,-2.400372505E0,-5.461227417E0,5.965630637E0
5.899087237E0,-1.531085372E-2,-2.649993420E0,-5.831290722E0,6.405204995E0
5.904092654E0,-4.663169384E-3,-2.795839787E0,-6.076920986E0,6.689223462E0
5.909098071E0,-6.438463181E-2,-2.880557537E0,-6.207930088E0,6.843986637E0
5.914103487E0,-5.965138227E-2,-2.927979708E0,-6.210131168E0,6.866028880E0
5.919108904E0,4.366317019E-2,-2.996126175E0,-6.083568096E0,6.781480613E0
5.924114321E0,2.222404033E-1,-3.057231903E0,-5.852140903E0,6.606331119E0
5.929119737E0,4.196307659E-1,-3.117310286E0,-5.573163986E0,6.399521093E0
5.934125154E0,6.027866602E-1,-3.124876022E0,-5.251311302E0,6.140396755E0
5.939130571E0,7.013078928E-1,-3.066612244E0,-4.948688984E0,5.863912182E0
5.944135987E0,7.023693323E-1,-2.986765146E0,-4.794261456E0,5.692014724E0
5.949141404E0,6.167640686E-1,-2.886324167E0,-4.692084312E0,5.543186837E0
5.954146821E0,5.264644623E-1,-2.771003246E0,-4.766316891E0,5.538357204E0
5.959152237E0,4.788722694E-1,-2.622385502E0,-4.978359699E0,5.647148809E0
5.964157654E0,4.635711610E-1,-2.469478607E0,-5.270577431E0,5.838853420E0
5.969163071E0,4.365822673E-1,-2.293162823E0,-5.604557991E0,6.071265937E0
5.974168487E0,4.112392068E-1,-2.117536068E0,-5.999289513E0,6.375307941E0
5.979173904E0,4.391603172E-1,-1.947266817E0,-6.445080757E0,6.747130932E0
5.984179321E0,4.521658123E-1,-1.777394652E0,-6.903564453E0,7.143023718E0
5.989184737E0,4.205892682E-1,-1.631129980E0,-7.346087456E0,7.536742085E0
5.994190154E0,4.150715768E-1,-1.517773032E0,-7.758314133E0,7.916271696E0
5.999195571E0,3.670983911E-1,-1.408247948E0,-8.140328407E0,8.269393574E0
6.004200987E0,2.608207762E-1,-1.331117988E0,-8.525684357E0,8.632913548E0
6.009206404E0,1.088162363E-1,-1.291009068E0,-8.943157196E0,9.036515148E0
6.014211821E0,-4.273954034E-2,-1.239687920E0,-9.306784630E0,9.389083712E0
6.019217237E0,-1.907348037E-1,-1.157367229E0,-9.626440048E0,9.697640263E0
6.024222654E0,-3.363836408E-1,-1.053028345E0,-9.849810600E0,9.911649283E0
6.029228071E0,-4.662657976E-1,-9.451540112E-1,-1.000595379E1,1.006130365E1
6.034233487E0,-6.140329838E-1,-8.331845999E-1,-1.008556557E1,1.013853371E1
6.039238904E0,-7.223884463E-1,-7.167066336E-1,-1.015583038E1,1.020668429E1
6.044244321E0,-7.720370293E-1,-5.859060287E-1,-1.012596130E1,1.017223768E1
6.049249737E0,-7.670994997E-1,-4.642865658E-1,-1.004395866E1,1.008390348E1
6.054255154E0,-7.254474759E-1,-3.752119541E-1,-9.833395004E0,9.867254702E0
6.059260571E0,-6.738771796E-1,-3.806364536E-1,-9.542167664E0,9.573502926E0
6.064265987E0,-6.054201126E-1,-5.093311071E-1,-9.189332008E0,9.223327732E0
6.069271404E0,-4.891077280E-1,-6.946501732E-1,-8.765167236E0,8.806243349E0
6.074276821E0,-2.756696939E-1,-8.462623358E-1,-8.365198135E0,8.412413064E0
6.079282237E0,-4.057383537E-2,-9.267600775E-1,-8.008284569E0,8.061833055E0
6.084287654E0,1.598991156E-1,-9.700948000E-1,-7.660745144E0,7.723578692E0
6.089293071E0,2.750039995E-1,-1.082328558E0,-7.350975990E0,7.435315079E0
6.094298487E0,3.494475782E-1,-1.240170121E0,-7.145611763E0,7.260847265E0
6.099303904E0,3.654332161E-1,-1.424883604E0,-7.063426018E0,7.214972060E0
6.104309321E0,3.330651522E-1,-1.569926381E0,-7.075352669E0,7.255082124E0
6.109314737E0,2.948515415E-1,-1.722861528E0,-7.195615768E0,7.404868369E0
6.114320154E0,2.542362213E-1,-1.845059156E0,-7.333255768E0,7.566076890E0
6.119325571E0,2.907791734E-1,-1.931083918E0,-7.502762318E0,7.752746611E0
6.124330987E0,4.934929311E-1,-1.970316410E0,-7.723538399E0,7.986158490E0
6.129336404E0,8.126007318E-1,-1.998973131E0,-7.957912445E0,8.245276467E0
6.134341821E0,1.136699438E0,-2.019389391E0,-8.125373840E0,8.449362057E0
6.139347237E0,1.478885889E0,-1.957568645E0,-8.159882545E0,8.520731285E0
6.144352654E0,1.799810648E0,-1.816574097E0,-8.009749413E0,8.408052418E0
6.149358071E0,2.136789560E0,-1.599933624E0,-7.594542503E0,8.050014476E0
6.154363487E0,2.522566795E0,-1.378945112E0,-6.857576370E0,7.435804364E0
6.159368904E0,2.884845257E0,-1.115693092E0,-5.784974098E0,6.559956444E0
6.164374321E0,3.023391485E0,-8.303974867E-1,-4.534676552E0,5.513052466E0
6.169379737E0,2.916567802E0,-5.578739643E-1,-3.125452518E0,4.311153506E0
6.174385154E0,2.672557831E0,-3.285319805E-1,-1.657096863E0,3.161719253E0
6.179390571E0,2.290535688E0,-8.240127563E-2,-1.811170578E-1,2.299162260E0
6.184395987E0,1.712087154E0,2.020416260E-1,1.155460358E0,2.075367891E0
6.189401404E0,8.354204893E-1,5.075311661E-1,2.234673500E0,2.439114784E0
6.194406821E0,-3.798661232E-1,8.842875957E-1,2.967231750E0,3.119411336E0
6.199412237E0,-1.736691594E0,1.315853596E0,3.187238693E0,3.860836550E0
6.204417654E0,-2.968263865E0,1.734881163E0,2.871800423E0,4.479692030E0
6.209423071E0,-3.795739651E0,1.999421597E0,2.221966743E0,4.831403774E0
6.214428487E0,-4.167759895E0,2.184499025E0,1.260541916E0,4.871470462E0
6.219433904E0,-3.959000349E0,2.280597925E0,1.954803467E-1,4.573075904E0
6.224439321E0,-3.253691673E0,2.241482019E0,-4.028053284E-1,3.971524050E0
6.229444737E0,-2.468232393E0,2.115919590E0,-4.072380066E-2,3.251299015E0
6.234450154E0,-1.813400030E0,2.025645733E0,1.331952095E0,3.027500072E0
6.239455571E0,-1.658849478E0,2.297993422E0,3.141359329E0,4.230921152E0
6.244460987E0,-1.747596979E0,2.912606955E0,4.753204346E0,5.842116571E0
6.249466404E0,-1.643497944E0,3.548626900E0,5.834522247E0,7.023922566E0
6.254471821E0,-1.219759226E0,3.897629261E0,6.476919174E0,7.657010410E0
6.259477237E0,-6.950342655E-1,3.912006140E0,6.919217110E0,7.978873986E0
6.264482654E0,-3.866829872E-1,3.693087578E0,7.323649406E0,8.211227693E0
6.269488071E0,-3.892974854E-1,3.370362520E0,7.757404327E0,8.466889508E0
6.274493487E0,-5.904412270E-1,3.010136604E0,8.307347298E0,8.855594974E0
6.279498904E0,-7.861387730E-1,2.687834978E0,8.893156052E0,9.323663207E0
6.284504321E0,-9.200055599E-1,2.364243031E0,9.449082375E0,9.783721841E0
6.289509737E0,-9.159355164E-1,1.947940111E0,9.794684410E0,1.002842217E1
6.294515154E0,-6.995813847E-1,1.468034506E0,9.758607864E0,9.893177795E0
6.299520571E0,-4.800961018E-1,9.589660168E-1,9.408366203E0,9.469290507E0
6.304525987E0,-3.958861828E-1,4.602293968E-1,8.877983093E0,8.898714557E0
6.309531404E0,-3.813188076E-1,-3.180384636E-2,8.300944328E0,8.309758857E0
6.314536821E0,-3.813254833E-1,-5.159785748E-1,7.786505699E0,7.812894087E0
6.319542237E0,-3.737599850E-1,-9.535255432E-1,7.401080132E0,7.471605892E0
6.324547654E0,-3.162770271E-1,-1.335254669E0,7.149281502E0,7.279777619E0
6.329553071E0,-1.707252264E-1,-1.619027376E0,6.949887276E0,7.138020026E0
6.334558487E0,-1.313519478E-2,-1.787194014E0,6.846338272E0,7.075774354E0
6.339563904E0,7.137918472E-2,-1.870539665E0,6.791305542E0,7.044561348E0
6.344569321E0,1.077035666E-1,-1.899688721E0,6.589157104E0,6.858382363E0
6.349574737E0,7.730209827E-2,-1.895327806E0,6.288223267E0,6.568104366E0
6.354580154E0,-5.328178406E-3,-1.867867470E0,5.850440025E0,6.141384678E0
6.359585571E0,-1.833035946E-1,-1.784363985E0,5.323780060E0,5.617845598E0
6.364590987E0,-4.472323656E-1,-1.635264874E0,4.636478424E0,4.936703371E0
6.369596404E0,-7.163199186E-1,-1.410575032E0,3.841083527E0,4.154125516E0
6.374601821E0,-9.102971554E-1,-1.156934261E0,3.023378372E0,3.362730227E0
6.379607237E0,-1.040026784E0,-8.868251443E-1,2.264163971E0,2.644721731E0
6.384612654E0,-1.120634317E0,-6.126479506E-1,1.668162346E0,2.100934172E0
6.389618071E0,-1.123050094E0,-3.281462193E-1,1.196785927E0,1.673683963E0
6.394623487E0,-1.079764605E0,-5.135703087E-2,8.164434433E-1,1.354661966E0
6.399628904E0,-9.894479513E-1,2.225842476E-1,5.272588730E-1,1.143045456E0
6.404634321E0,-8.272342682E-1,3.978220224E-1,3.723669052E-1,9.905735753E-1
6.409639737E0,-5.971795321E-1,5.983014107E-1,2.561550140E-1,8.832912106E-1
6.414645154E0,-4.038552046E-1,7.610951662E-1,1.166028976E-1,8.694602429E-1
6.419650571E0,-2.894353867E-1,8.856602907E-1,-4.130554199E-2,9.326698995E-1
6.424655987E0,-2.341258526E-1,9.570057392E-1,-2.652359009E-1,1.020306318E0
6.429661404E0,-1.898021698E-1,9.938118458E-1,-4.880971909E-1,1.123354671E0
6.434666821E0,-1.759305000E-1,9.716861248E-1,-7.385997772E-1,1.233148449E0
6.439672237E0,-1.979011297E-1,9.332427979E-1,-9.450216293E-1,1.342822720E0
6.444677654E0,-3.136978149E-1,8.394908905E-1,-1.112204552E0,1.428338279E0
6.449683071E0,-4.471521378E-1,7.376492023E-1,-1.254539490E0,1.522478476E0
6.454688487E0,-5.227588415E-1,6.268503666E-1,-1.458156586E0,1.671059190E0
6.459693904E0,-5.414562225E-1,5.066559315E-1,-1.694328308E0,1.849492765E0
6.464699321E0,-5.036806464E-1,3.436473608E-1,-1.939147472E0,2.032751982E0
6.469704737E0,-4.574270844E-1,2.051960230E-1,-2.216565132E0,2.272554935E0
6.474710154E0,-4.606480598E-1,1.208580732E-1,-2.483654022E0,2.528901068E0
6.479715571E0,-5.424984694E-1,8.676564693E-2,-2.659284115E0,2.715441929E0
6.484720987E0,-6.312603354E-1,5.122697353E-2,-2.820202351E0,2.890442027E0
6.489726404E0,-7.123693824E-1,5.735158920E-4,-2.899521351E0,2.985748571E0
6.494731821E0,-7.856354713E-1,-6.923413277E-2,-2.835229397E0,2.942879915E0
6.499737237E0,-8.744341731E-1,-1.579719782E-1,-2.579648972E0,2.728402295E0
6.504742654E0,-8.869218826E-1,-2.752903700E-1,-2.324218750E0,2.502879943E0
6.509748071E0,-8.462518454E-1,-3.163059950E-1,-2.121433258E0,2.305790697E0
6.514753487E0,-7.898435593E-1,-2.859272957E-1,-1.937694073E0,2.111934087E0
6.519758904E0,-7.553285360E-1,-1.841738224E-1,-1.720361233E0,1.887878165E0
6.524764321E0,-7.373519540E-1,-3.030145168E-2,-1.550765991E0,1.717405381E0
6.529769737E0,-7.260853052E-1,1.613956690E-1,-1.428880692E0,1.610884373E0
6.534775154E0,-6.732659340E-1,3.623522520E-1,-1.345112801E0,1.547228044E0
6.539780571E0,-6.456149817E-1,5.780822039E-1,-1.328238487E0,1.585943006E0
6.544785987E0,-5.848851204E-1,7.667354345E-1,-1.282709122E0,1.604779275E0
6.549791404E0,-4.277331531E-1,9.679720402E-1,-1.199192047E0,1.599370841E0
6.554796821E0,-3.205671310E-1,1.211793780E0,-1.111372948E0,1.675218577E0
6.559802237E0,-3.720351458E-1,1.432026744E0,-1.033708572E0,1.804900041E0
6.564807654E0,-5.436301231E-1,1.528521299E0,-9.040479660E-1,1.857205912E0
6.569813071E0,-7.744648457E-1,1.525042176E0,-7.176485062E-1,1.854877035E0
6.574818487E0,-9.043868780E-1,1.449631333E0,-5.175609589E-1,1.785277562E0
6.579823904E0,-9.407018423E-1,1.344493032E0,-2.798070908E-1,1.664594087E0
6.584829321E0,-9.809831381E-1,1.179976225E0,-4.336357117E-3,1.534500118E0
6.589834737E0,-1.054854274E0,1.021691918E0,3.376789093E-1,1.506850676E0
6.594840154E0,-1.134337187E0,8.778289557E-1,7.271881104E-1,1.608137767E0
6.599845571E0,-1.191106677E0,7.467420101E-1,1.111722946E0,1.792285316E0
6.604850987E0,-1.211154103E0,6.316705942E-1,1.424508095E0,1.973607183E0
6.609856404E0,-1.228515744E0,5.552830696E-1,1.660954475E0,2.139242854E0
6.614861821E0,-1.205439329E0,5.022706985E-1,1.806867599E0,2.229378916E0
6.619867237E0,-1.151726007E0,4.814113379E-1,1.819378853E0,2.206438099E0
6.624872654E0,-1.048150182E0,4.592374563E-1,1.698637962E0,2.048142762E0
6.629878071E0,-8.993656635E-1,4.359626770E-1,1.454353333E0,1.764671547E0
6.634883487E0,-7.488296032E-1,4.315129519E-1,1.110468864E0,1.407156815E0
6.639888904E0,-5.973250270E-1,4.566881657E-1,7.481927872E-1,1.060732631E0
6.644894321E0,-4.457658529E-1,5.176069736E-1,4.390430450E-1,8.120239961E-1
6.649899737E0,-2.898386121E-1,5.628752708E-1,2.114515305E-1,6.674928773E-1
6.654905154E0,-1.439422369E-1,5.742281675E-1,8.433818817E-2,5.979718103E-1
6.659910571E0,2.581733465E-2,5.574295521E-1,5.270385742E-2,5.605104253E-1
6.664915987E0,2.532029450E-1,4.941213131E-1,6.853389740E-2,5.594323002E-1
6.669921404E0,4.476364851E-1,3.849351406E-1,2.321548462E-1,6.343889642E-1
6.674926821E0,6.148283482E-1,2.634441853E-1,4.286718369E-1,7.944660346E-1
6.679932237E0,7.035245299E-1,1.295362711E-1,6.294612885E-1,9.528630140E-1
6.684937654E0,7.103174329E-1,2.587318420E-2,8.059597015E-1,1.074612171E0
6.689943071E0,7.414615154E-1,-1.911461353E-2,8.961086273E-1,1.163245984E0
6.694948487E0,7.782892585E-1,-8.656859398E-2,9.382514954E-1,1.222106444E0
6.699953904E0,7.785066962E-1,-1.570760012E-1,1.008946419E0,1.284024307E0
6.704959321E0,7.430536747E-1,-2.923051119E-1,1.136787415E0,1.389192812E0
6.709964737E0,6.968930960E-1,-4.446820021E-1,1.293076515E0,1.534747192E0
6.714970154E0,6.364099979E-1,-5.572775602E-1,1.444392204E0,1.673871203E0
6.719975571E0,5.912835598E-1,-6.260910034E-1,1.552609444E0,1.775444248E0
6.724980987E0,5.237725973E-1,-6.711353064E-1,1.546178818E0,1.765057866E0
6.729986404E0,4.626376629E-1,-6.978456378E-1,1.406205177E0,1.636592540E0
6.734991821E0,4.118959904E-1,-7.208530307E-1,1.214177132E0,1.470888679E0
6.739997237E0,4.276382327E-1,-7.209922671E-1,9.892463684E-1,1.296654420E0
6.745002654E0,5.135754347E-1,-7.317138314E-1,8.414220810E-1,1.227662811E0
6.750008071E0,6.361355782E-1,-6.716392040E-1,7.132225037E-1,1.168098469E0
6.755013487E0,7.957899570E-1,-5.984770060E-1,5.186195374E-1,1.122685444E0
6.760018904E0,8.677276373E-1,-4.793196917E-1,2.960577011E-1,1.034576620E0
6.765024321E0,7.889301777E-1,-3.246394396E-1,1.126546860E-1,8.605188373E-1
6.770029737E0,6.591210365E-1,-2.068790197E-1,-1.797943115E-1,7.138385420E-1
6.775035154E0,4.575982392E-1,-8.278679848E-2,-6.290607452E-1,7.822833398E-1
6.780040571E0,2.976377010E-1,1.486778259E-2,-1.139493942E0,1.177818193E0
6.785045987E0,1.631848812E-1,9.723472595E-2,-1.615736961E0,1.626865030E0
6.790051404E0,8.687970042E-2,1.707752943E-1,-1.972111225E0,1.981397226E0
6.795056821E0,3.981059790E-2,2.366030216E-1,-2.199442863E0,2.212490629E0
6.800062237E0,8.451497555E-2,3.383138180E-1,-2.269306183E0,2.295941979E0
6.805067654E0,7.804822922E-2,4.425650835E-1,-2.248872757E0,2.293334702E0
6.810073071E0,1.674538851E-2,5.061289072E-1,-2.214693069E0,2.271852167E0
6.815078487E0,-7.966351509E-2,5.384703875E-1,-2.190648079E0,2.257262865E0
6.820083904E0,-2.206381559E-1,5.346236229E-1,-2.191038132E0,2.266087313E0
6.825089321E0,-3.492487073E-1,5.042295456E-1,-2.278049469E0,2.359180255E0
6.830094737E0,-4.472749233E-1,4.477050304E-1,-2.384756088E0,2.467297358E0
6.835100154E0,-5.302524567E-1,3.801734447E-1,-2.439614296E0,2.525354911E0
6.840105571E0,-5.797809958E-1,3.217381239E-1,-2.356825829E0,2.448323796E0
6.845110987E0,-5.716875792E-1,3.111100197E-1,-2.107913971E0,2.206109118E0
6.850116404E0,-4.956659079E-1,3.097178936E-1,-1.779036999E0,1.872587116E0
6.855121821E0,-3.842628002E-1,3.357776403E-1,-1.374808311E0,1.466459143E0
6.860127237E0,-2.421354651E-1,4.122728109E-1,-9.238061905E-1,1.040200140E0
6.865132654E0,-1.172739863E-1,5.191318989E-1,-3.589439392E-1,6.419438198E-1
6.870138071E0,5.769908428E-3,5.738683939E-1,2.816724777E-1,6.392946191E-1
6.875143487E0,1.294821203E-1,5.366977453E-1,8.644552231E-1,1.025715810E0
6.880148904E0,2.082166225E-1,4.351403713E-1,1.298913002E0,1.385596006E0
6.885154321E0,2.620121539E-1,3.210941553E-1,1.580583572E0,1.634012318E0
6.890159737E0,2.667970955E-1,2.131171227E-1,1.743186951E0,1.776316510E0
6.895165154E0,2.126801908E-1,1.300461292E-1,1.734261513E0,1.752086714E0
6.900170571E0,1.232006550E-1,5.773472786E-2,1.544376373E0,1.550358050E0
6.905175987E0,9.393166006E-2,1.127088070E-2,1.187956810E0,1.191717908E0
6.910181404E0,1.298136413E-1,1.416802406E-3,7.510805130E-1,7.622175056E-1
6.915186821E0,1.210976392E-1,4.417729378E-2,3.531236649E-1,3.759156743E-1
6.920192237E0,7.257109880E-2,8.791053295E-2,4.167938232E-2,1.213754386E-1
6.925197654E0,2.644994855E-2,1.379125118E-1,-1.930408478E-1,2.387136980E-1
6.930203071E0,-3.925651312E-3,1.987564564E-1,-3.224372864E-1,3.787945925E-1
6.935208487E0,-1.924502850E-2,2.317568064E-1,-3.752861023E-1,4.414988641E-1
6.940213904E0,-8.238580823E-2,2.506735325E-1,-4.568109512E-1,5.275423077E-1
6.945219321E0,-1.794309020E-1,2.599921227E-1,-5.478105545E-1,6.323667892E-1
6.950224737E0,-2.246669233E-1,2.504066229E-1,-6.483297348E-1,7.304177902E-1
6.955230154E0,-2.660508454E-1,2.081568241E-1,-7.058477402E-1,7.825173149E-1
6.960235571E0,-2.651467025E-1,1.670646667E-1,-7.348079681E-1,7.988467480E-1
6.965240987E0,-1.976640224E-1,1.656494141E-1,-7.304887772E-1,7.746771248E-1
6.970246404E0,-8.271956444E-2,2.230008841E-1,-6.833639145E-1,7.235731893E-1
6.975251821E0,4.157516360E-2,3.341199160E-1,-5.934495926E-1,6.823100698E-1
6.980257237E0,1.179726422E-1,4.219274521E-1,-4.607114792E-1,6.357636245E-1
6.985262654E0,1.419293433E-1,4.762748480E-1,-2.659645081E-1,5.636654938E-1
6.990268071E0,2.334040105E-1,4.917051792E-1,-9.524440765E-2,5.525603248E-1
6.995273487E0,3.354102969E-1,4.725385904E-1,3.722858429E-2,5.806709518E-1
7.000278904E0,3.575913310E-1,4.521934986E-1,6.457996368E-2,5.801043802E-1
7.005284321E0,2.815700471E-1,4.164747000E-1,1.085281372E-2,5.028425705E-1
7.010289737E0,1.696424186E-1,4.326022863E-1,-7.606506348E-2,4.708600453E-1
7.015295154E0,4.033383727E-2,4.720042944E-1,-1.961832047E-1,5.127404042E-1
7.020300571E0,-7.353284955E-2,5.012634993E-1,-3.112373352E-1,5.945930158E-1
7.025305987E0,-1.529549956E-1,5.444447994E-1,-4.021272659E-1,6.939176524E-1
7.030311404E0,-1.645224392E-1,5.682002306E-1,-5.215110779E-1,7.886018891E-1
7.035316821E0,-1.084344387E-1,6.061942577E-1,-6.550321579E-1,8.990531872E-1
7.040322237E0,-4.216843843E-2,6.346635818E-1,-6.879196167E-1,9.369148512E-1
7.045327654E0,1.993536949E-2,6.537432671E-1,-7.111806870E-1,9.662068348E-1
7.050333071E0,7.791343331E-2,6.728652716E-1,-7.582750320E-1,1.016759166E0
7.055338487E0,7.935422659E-2,6.585476398E-1,-7.956848145E-1,1.035903669E0
7.060343904E0,8.175280690E-2,6.301132441E-1,-8.330030441E-1,1.047673753E0
7.065349321E0,1.040824056E-1,5.875282288E-1,-9.037017822E-1,1.082912498E0
7.070354737E0,6.458812952E-2,5.308569670E-1,-9.551563263E-1,1.094670888E0
7.075360154E0,1.077419519E-2,4.887654781E-1,-9.730587006E-1,1.088967865E0
7.080365571E0,4.857957363E-3,4.419435263E-1,-1.005248070E0,1.098117190E0
7.085370987E0,5.635964870E-2,4.238799810E-1,-1.085184097E0,1.166394090E0
7.090376404E0,1.270813942E-1,4.009717703E-1,-1.169742584E0,1.243071098E0
7.095381821E0,1.453879476E-1,3.685569763E-1,-1.278057098E0,1.338058985E0
7.100387237E0,1.161263585E-1,2.977483273E-1,-1.362241745E0,1.399229062E0
7.105392654E0,7.249248028E-2,2.362000942E-1,-1.465356827E0,1.486040468E0
7.110398071E0,2.843123674E-2,1.454846859E-1,-1.553910255E0,1.560964833E0
7.115403487E0,-4.022771120E-2,4.448640347E-2,-1.594422340E0,1.595550033E0
7.120408904E0,-9.533470869E-2,-9.102129936E-2,-1.634745598E0,1.640050839E0
7.125414321E0,-1.368042231E-1,-2.087250948E-1,-1.665265560E0,1.683861914E0
7.130419737E0,-1.169543862E-1,-2.515281439E-1,-1.748138905E0,1.770009708E0
7.135425154E0,-7.897680998E-2,-2.817841768E-1,-1.878515720E0,1.901173577E0
7.140430571E0,-8.027595282E-2,-2.898888588E-1,-2.032436371E0,2.054574744E0
7.145435987E0,-7.302325964E-2,-3.141765594E-1,-2.147695541E0,2.171781629E0
7.150441404E0,-7.651400566E-2,-3.451124430E-1,-2.243478775E0,2.271156975E0
7.155446821E0,-2.841037512E-2,-3.780071735E-1,-2.305434227E0,2.336391138E0
7.160452237E0,1.867431402E-2,-3.746446371E-1,-2.429239273E0,2.458029857E0
7.165457654E0,7.429182529E-2,-3.300585747E-1,-2.528763294E0,2.551294130E0
7.170463071E0,9.976917505E-2,-2.581282854E-1,-2.699793339E0,2.713939604E0
7.175468487E0,1.190957427E-1,-2.442810535E-1,-2.817996502E0,2.831070701E0
7.180473904E0,1.416647434E-1,-2.500166893E-1,-2.806961536E0,2.821632561E0
7.185479321E0,2.154491544E-1,-2.609864473E-1,-2.786392689E0,2.806869516E0
7.190484737E0,3.310009539E-1,-2.917718887E-1,-2.698858738E0,2.734690285E0
7.195490154E0,4.264578223E-1,-3.467714787E-1,-2.582725048E0,2.640565357E0
7.200495571E0,4.743611217E-1,-4.541721344E-1,-2.423650742E0,2.511050322E0
7.205500987E0,5.429344773E-1,-5.754032135E-1,-2.336406708E0,2.466710970E0
7.210506404E0,6.037049890E-1,-6.098683476E-1,-2.244386673E0,2.402846365E0
7.215511821E0,6.466846466E-1,-5.431629419E-1,-2.104621887E0,2.267743438E0
7.220517237E0,5.998725891E-1,-4.710530043E-1,-1.941111565E0,2.085581972E0
7.225522654E0,5.256893635E-1,-4.607115984E-1,-1.811226368E0,1.941428711E0
7.230528071E0,4.770137966E-1,-4.976712465E-1,-1.729257107E0,1.861598499E0
7.235533487E0,3.916341662E-1,-5.387330055E-1,-1.632987499E0,1.763592567E0
7.240538904E0,2.169034481E-1,-5.404609442E-1,-1.383819580E0,1.501366633E0
7.245544321E0,4.370361567E-2,-5.603672266E-1,-1.034544945E0,1.177371937E0
7.250549737E0,-9.465539455E-2,-6.182018518E-1,-6.091012955E-1,8.730049035E-1
7.255555154E0,-1.598784924E-1,-6.861246824E-1,-1.695795059E-1,7.246277810E-1
7.260560571E0,-1.854110360E-1,-7.457706332E-1,2.076425552E-1,7.960317333E-1
7.265565987E0,-2.096058726E-1,-8.023843765E-1,5.657768250E-1,1.003921673E0
7.270571404E0,-2.473855615E-1,-7.750028968E-1,9.431257248E-1,1.245518060E0
7.275576821E0,-3.184159994E-1,-6.736690998E-1,1.272736549E0,1.474814269E0
7.280582237E0,-3.708724976E-1,-4.986037016E-1,1.559403419E0,1.678657525E0
7.285587654E0,-3.436106443E-1,-2.449289560E-1,1.798269272E0,1.847114193E0
7.290593071E0,-2.849493027E-1,8.345019817E-2,2.022646904E0,2.044323981E0
7.295598487E0,-2.806729078E-1,4.354269505E-1,2.203588486E0,2.263664314E0
7.300603904E0,-3.059024811E-1,7.508710623E-1,2.331269264E0,2.468238251E0
7.305609321E0,-3.935128450E-1,1.027653217E0,2.429187775E0,2.666810218E0
7.310614737E0,-4.565383196E-1,1.239901900E0,2.621226311E0,2.935406502E0
7.315620154E0,-4.799879789E-1,1.424070477E0,3.054990768E0,3.404604791E0
7.320625571E0,-5.106743574E-1,1.601071358E0,3.964289665E0,4.305788005E0
7.325630987E0,-6.619508266E-1,1.770804524E0,5.133569717E0,5.470600114E0
7.330636404E0,-8.844597340E-1,1.907757759E0,6.405284882E0,6.741623180E0
7.335641821E0,-1.178151131E0,1.928524375E0,7.789428711E0,8.110637829E0
7.340647237E0,-1.678161383E0,1.783156753E0,9.338880539E0,9.654561790E0
7.345652654E0,-2.161173820E0,1.492347360E0,1.100134277E1,1.131049582E1
7.350658071E0,-2.432962894E0,1.152554035E0,1.252853012E1,1.281451350E1
7.355663487E0,-2.496315956E0,8.075528145E-1,1.384441090E1,1.409082851E1
7.360668904E0,-2.324924946E0,4.779921770E-1,1.492068672E1,1.510829722E1
7.365674321E0,-2.031231880E0,1.852629185E-1,1.572890186E1,1.586059832E1
7.370679737E0,-1.751149893E0,1.855170727E-2,1.631707001E1,1.641077828E1
7.375685154E0,-1.513882399E0,3.423511982E-2,1.656587410E1,1.663493903E1
7.380690623E0,-1.367116332E0,1.176452637E-1,1.650916672E1,1.656609288E1
7.385696091E0,-1.228874207E0,2.127575874E-1,1.623332596E1,1.628116302E1
7.390701560E0,-1.093875647E0,3.986030817E-1,1.584361744E1,1.588633570E1
7.395707029E0,-9.801493883E-1,6.156783104E-1,1.533045101E1,1.537408472E1
7.400712498E0,-9.192453623E-1,8.326631784E-1,1.479443169E1,1.484633116E1
7.405717966E0,-9.853196144E-1,1.008478045E0,1.426913643E1,1.433862396E1
7.410723435E0,-1.142006278E0,1.111424685E0,1.373552704E1,1.382765874E1
7.415728904E0,-1.291153312E0,1.176120520E0,1.316503906E1,1.328038365E1
7.420734373E0,-1.388546586E0,1.164938092E0,1.254337502E1,1.267364980E1
7.425739841E0,-1.419280529E0,1.097598791E0,1.181314659E1,1.194861970E1
7.430745310E0,-1.468882918E0,1.027346611E0,1.102221966E1,1.116702218E1
7.435750779E0,-1.560723662E0,1.007509232E0,1.004618549E1,1.021649530E1
7.440756248E0,-1.675972700E0,1.024980783E0,8.932712555E0,9.146191759E0
7.445761716E0,-1.805812836E0,1.081069469E0,7.772378922E0,8.052300621E0
7.450767185E0,-1.918312907E0,1.124887943E0,6.521547318E0,6.890274066E0
7.455772654E0,-2.009799480E0,1.081624985E0,5.385384560E0,5.849066029E0
7.460778123E0,-2.105138540E0,9.047834873E-1,4.401550293E0,4.962246106E0
7.465783591E0,-2.190530300E0,6.093397141E-1,3.631812096E0,4.284831033E0
7.470789060E0,-2.223285198E0,2.476754189E-1,3.123760223E0,3.842163208E0
7.475794529E0,-2.222934246E0,-1.288852692E-1,2.767368317E0,3.551953755E0
7.480799998E0,-2.189619064E0,-5.415446758E-1,2.491218567E0,3.360635689E0
7.485805466E0,-2.128205538E0,-9.735394716E-1,2.214490891E0,3.221957141E0
7.490810935E0,-1.972307920E0,-1.398843884E0,1.889926910E0,3.068971566E0
7.495816404E0,-1.726765871E0,-1.790887356E0,1.470243454E0,2.889742845E0
7.500821873E0,-1.444363356E0,-2.137498379E0,9.320898056E-1,2.742968507E0
7.505827341E0,-1.188087583E0,-2.397335291E0,1.849803925E-1,2.681974337E0
7.510832810E0,-9.976766109E-1,-2.552509069E0,-6.847190857E-1,2.824801125E0
7.515838227E0,-8.933379650E-1,-2.589847088E0,-1.628977776E0,3.187307524E0
7.520843643E0,-8.570154905E-1,-2.485956192E0,-2.576036453E0,3.681089180E0
7.525849060E0,-8.796353340E-1,-2.340939045E0,-3.459088326E0,4.268377441E0
7.530854477E0,-8.608838320E-1,-2.153771639E0,-4.278410912E0,4.866688111E0
7.535859893E0,-7.718752623E-1,-1.961412907E0,-5.034266949E0,5.457726241E0
7.540865310E0,-6.745066643E-1,-1.810383677E0,-5.664719582E0,5.985106201E0
7.545870727E0,-5.824606419E-1,-1.766491413E0,-6.217825413E0,6.490077440E0
7.550876143E0,-3.990181088E-1,-1.837928891E0,-6.732018471E0,6.989797619E0
7.555881560E0,-8.928221464E-2,-1.918131828E0,-7.188271999E0,7.440326294E0
7.560886977E0,3.386609554E-1,-1.905490756E0,-7.500650406E0,7.746311559E0
7.565892393E0,7.909538150E-1,-1.846843600E0,-7.717232704E0,7.974466743E0
7.570897810E0,1.173629761E0,-1.794311523E0,-7.809461594E0,8.098435098E0
7.575903227E0,1.526941299E0,-1.681242943E0,-7.834725857E0,8.157270182E0
7.580908643E0,1.819385886E0,-1.489067793E0,-7.826416492E0,8.171920399E0
7.585914060E0,2.090926647E0,-1.276149511E0,-7.836965084E0,8.210880193E0
7.590919477E0,2.352443695E0,-1.028792381E0,-7.904469967E0,8.311019827E0
7.595924893E0,2.585456371E0,-7.715311050E-1,-8.019197464E0,8.460932151E0
7.600930310E0,2.770911694E0,-5.239763260E-1,-8.176239014E0,8.648895144E0
7.605935727E0,2.817524195E0,-3.006765842E-1,-8.409013748E0,8.873576574E0
7.610941143E0,2.767947197E0,-1.067590714E-1,-8.640842438E0,9.073978577E0
7.615946560E0,2.669463634E0,-1.423740387E-2,-8.871656418E0,9.264584524E0
7.620951977E0,2.593425512E0,1.001763344E-2,-9.091753006E0,9.454413200E0
7.625957393E0,2.524064541E0,1.358032227E-2,-9.296303749E0,9.632878574E0
7.630962810E0,2.426048994E0,1.991057396E-2,-9.557011604E0,9.860151163E0
7.635968227E0,2.311693192E0,1.404023170E-2,-9.792454720E0,1.006162472E1
7.640973643E0,2.236483812E0,1.008462906E-2,-1.002184963E1,1.026837044E1
7.645979060E0,2.141539335E0,-3.996849060E-2,-1.024047756E1,1.046208244E1
7.650984477E0,1.987186909E0,-1.552948952E-1,-1.047714615E1,1.066506539E1
7.655989893E0,1.757079005E0,-3.210055828E-1,-1.071780586E1,1.086562164E1
7.660995310E0,1.535673857E0,-4.986345768E-1,-1.092921162E1,1.104783224E1
7.666000727E0,1.287787676E0,-6.689887047E-1,-1.106858921E1,1.116331537E1
7.671006143E0,1.050715089E0,-8.655523062E-1,-1.110747910E1,1.119058867E1
7.676011560E0,7.767628431E-1,-1.031162262E0,-1.106507874E1,1.114013571E1
7.681016977E0,5.140387416E-1,-1.237275958E0,-1.093676090E1,1.101852198E1
7.686022393E0,3.399924040E-1,-1.440588832E0,-1.075125885E1,1.085267054E1
7.691027810E0,2.268635631E-1,-1.664779902E0,-1.048942947E1,1.062313936E1
7.696033227E0,1.947488785E-1,-1.847812891E0,-1.021333599E1,1.038097161E1
7.701038643E0,1.968494058E-1,-2.061493397E0,-9.927602768E0,1.014129190E1
7.706044060E0,2.339165807E-1,-2.253131628E0,-9.608203888E0,9.871620994E0
7.711049477E0,3.451745510E-1,-2.460743427E0,-9.226406097E0,9.555154272E0
7.716054893E0,5.314993262E-1,-2.612496614E0,-8.877820015E0,9.269483174E0
7.721060310E0,7.651073337E-1,-2.732070923E0,-8.519316673E0,8.979329448E0
7.726065727E0,1.046991229E0,-2.761906385E0,-8.122154236E0,8.642552108E0
7.731071143E0,1.235215902E0,-2.754464388E0,-7.748477936E0,8.315752685E0
7.736076560E0,1.284154415E0,-2.723973751E0,-7.412478924E0,8.000870537E0
7.741081977E0,1.286751986E0,-2.756244421E0,-7.190582275E0,7.807501997E0
7.746087393E0,1.243747234E0,-2.831534863E0,-7.006267548E0,7.658477774E0
7.751092810E0,1.231650829E0,-2.949159861E0,-6.845374107E0,7.554710737E0
7.756098227E0,1.298270464E0,-3.136986971E0,-6.722497940E0,7.531146792E0
7.761103643E0,1.391207337E0,-3.288982391E0,-6.685658455E0,7.579636667E0
7.766109060E0,1.342457533E0,-3.380786180E0,-6.505424500E0,7.453351954E0
7.771114477E0,1.193912029E0,-3.431470871E0,-6.139097214E0,7.133647936E0
7.776119893E0,1.049528718E0,-3.503942013E0,-5.495919228E0,6.601836738E0
7.781125310E0,1.090315104E0,-3.652482986E0,-4.752603531E0,6.092344320E0
7.786130727E0,1.258505583E0,-3.888758183E0,-4.147546291E0,5.823093400E0
7.791136143E0,1.424319267E0,-4.161743641E0,-3.761201382E0,5.787523766E0
7.796141560E0,1.606787920E0,-4.424508572E0,-3.597617149E0,5.924600634E0
7.801146977E0,1.819044828E0,-4.634361267E0,-3.742475033E0,6.228350328E0
7.806152393E0,2.021369696E0,-4.517221928E0,-3.870853901E0,6.282892591E0
7.811157810E0,2.072904587E0,-4.144732475E0,-4.092574596E0,6.182629501E0
7.816163227E0,1.839898586E0,-3.458002806E0,-4.432090759E0,5.914933534E0
7.821168643E0,1.297871351E0,-2.453726292E0,-4.876551628E0,5.611238592E0
7.826174060E0,5.333572626E-1,-1.157103300E0,-5.308002472E0,5.458777176E0
7.831179477E0,-1.990449429E-1,4.162361622E-1,-5.493830681E0,5.513170320E0
7.836184893E0,-9.603123665E-1,2.130537987E0,-5.431004524E0,5.912461594E0
7.841190310E0,-1.704607010E0,3.834109545E0,-5.191928864E0,6.675492969E0
7.846195727E0,-2.352816105E0,5.288213253E0,-4.776525021E0,7.504407659E0
7.851201143E0,-2.742970467E0,6.119596481E0,-4.227712631E0,7.927603810E0
7.856206560E0,-2.564565659E0,6.156730652E0,-3.708837986E0,7.631370031E0
7.861211977E0,-1.768582106E0,5.359115601E0,-3.078413963E0,6.428424007E0
7.866217393E0,-8.400520086E-1,4.131915569E0,-2.085313797E0,4.703928920E0
7.871222810E0,-3.411339521E-1,3.222490788E0,-3.910961151E-1,3.264012166E0
7.876228227E0,-3.761090040E-1,3.020361900E0,1.775255203E0,3.523574184E0
7.881233643E0,-5.016554594E-1,3.606907606E0,4.061935425E0,5.455342343E0
7.886239060E0,-9.280657768E-2,4.287902832E0,6.074859619E0,7.436305746E0
7.891244477E0,7.938231230E-1,4.180202484E0,7.538824081E0,8.656680454E0
7.896249893E0,1.454195499E0,3.417461157E0,8.474243164E0,9.252379289E0
7.901255310E0,1.347181201E0,2.321125269E0,9.211677551E0,9.594661172E0
7.906260727E0,6.076629162E-1,1.346116066E0,1.010546684E1,1.021282247E1
7.911266143E0,-2.785325050E-1,5.719523430E-1,1.121402454E1,1.123205486E1
7.916271560E0,-8.726878166E-1,-5.744981766E-2,1.217546844E1,1.220683892E1
7.921276977E0,-1.057342768E0,-6.368483305E-1,1.256122494E1,1.262172419E1
7.926282393E0,-1.077425718E0,-1.016147494E0,1.255412292E1,1.264117891E1
7.931287810E0,-1.155272961E0,-1.145393133E0,1.243655109E1,1.254250311E1
7.936293227E0,-1.239574909E0,-1.089367628E0,1.215101051E1,1.226255782E1
7.941298643E0,-1.404951096E0,-9.027667642E-1,1.179260445E1,1.191026427E1
7.946304060E0,-1.665544510E0,-6.639455557E-1,1.155150795E1,1.168983311E1
7.951309477E0,-1.633128405E0,-5.373743773E-1,1.139787102E1,1.152680976E1
7.956314893E0,-8.984422684E-1,-5.240613222E-1,1.127849579E1,1.132635449E1
7.961320310E0,3.335087299E-1,-5.750486851E-1,1.103549767E1,1.105550170E1
7.966325727E0,1.505077839E0,-5.723632574E-1,1.071204662E1,1.083239594E1
7.971331143E0,2.269742250E0,-4.978785515E-1,1.035123062E1,1.060884482E1
7.976336560E0,2.525656223E0,-3.249115944E-1,1.001545620E1,1.033411195E1
7.981341977E0,2.228586912E0,-1.662720442E-1,9.685853004E0,9.940321647E0
7.986347393E0,1.435054302E0,-1.163058281E-1,9.305393219E0,9.416116549E0
7.991352810E0,5.072371960E-1,-2.121833563E-1,8.883970261E0,8.900968427E0
7.996358227E0,-3.130627871E-1,-3.235287666E-1,8.335660934E0,8.347809436E0
8.001363643E0,-1.028665543E0,-4.873883724E-1,7.708411217E0,7.792002548E0
8.006369060E0,-1.695959330E0,-6.401047111E-1,7.035567284E0,7.265343701E0
8.011374477E0,-2.256214142E0,-7.091605663E-1,6.441440582E0,6.861892431E0
8.016379893E0,-2.703255653E0,-6.272042394E-1,5.839839935E0,6.465655942E0
8.021385310E0,-3.021822453E0,-4.660964012E-1,5.202106476E0,6.034117050E0
8.026390727E0,-3.197953224E0,-2.356233597E-1,4.528225899E0,5.548626225E0
8.031396143E0,-3.295561790E0,1.574015617E-2,3.842043877E0,5.061845159E0
8.036401560E0,-3.379418850E0,2.392406464E-1,3.196024895E0,4.657497502E0
8.041406977E0,-3.476492882E0,4.431898594E-1,2.642560959E0,4.389253744E0
8.046412393E0,-3.555742741E0,5.543029308E-1,2.238853455E0,4.238280662E0
8.051417810E0,-3.547139168E0,5.516322851E-1,1.826954842E0,4.027934762E0
8.056423227E0,-3.413849831E0,4.241987467E-1,1.392558098E0,3.711271116E0
8.061428643E0,-3.157535076E0,2.232942581E-1,8.830652237E-1,3.286288525E0
8.066434060E0,-2.823021889E0,5.794596672E-2,3.223714828E-1,2.841959481E0
8.071439477E0,-2.421283245E0,-6.298434734E-2,-3.134822845E-1,2.442304388E0
8.076444893E0,-1.882067919E0,-5.840623379E-2,-1.000676155E0,2.132356374E0
8.081450310E0,-1.245019436E0,3.845942020E-2,-1.725016117E0,2.127729571E0
8.086455727E0,-6.644837856E-1,2.428030968E-1,-2.453252792E0,2.553221751E0
8.091461143E0,-2.508598566E-1,5.078516006E-1,-3.065999031E0,3.117882931E0
8.096466560E0,4.327285290E-2,7.538024187E-1,-3.664079189E0,3.741064946E0
8.101471977E0,2.023936510E-1,9.728566408E-1,-4.152246475E0,4.269492244E0
8.106477393E0,2.500839233E-1,1.095163584E0,-4.540472507E0,4.677372749E0
8.111482810E0,2.396762371E-1,1.113267779E0,-4.829020023E0,4.961476014E0
8.116488227E0,1.732487679E-1,1.004942298E0,-4.927028179E0,5.031454147E0
8.121493643E0,1.014292240E-1,8.047955036E-1,-4.815332890E0,4.883176684E0
8.126499060E0,3.704416752E-2,5.516006947E-1,-4.584681034E0,4.617893002E0
8.131504477E0,-4.646265507E-2,2.977718115E-1,-4.297098160E0,4.307653587E0
8.136509893E0,-1.617754698E-1,4.765844345E-2,-3.923730373E0,3.927353138E0
8.141515310E0,-2.736891508E-1,-1.897941828E-1,-3.540966511E0,3.556595481E0
8.146520727E0,-3.853440881E-1,-4.343976974E-1,-3.201206207E0,3.253446266E0
8.151526143E0,-4.522563219E-1,-6.295011044E-1,-2.942459583E0,3.042840091E0
8.156531560E0,-5.312610865E-1,-7.561398745E-1,-2.774219990E0,2.924086593E0
8.161536977E0,-5.591108799E-1,-8.049429655E-1,-2.686790943E0,2.859962190E0
8.166542393E0,-6.071154475E-1,-7.424216270E-1,-2.646667957E0,2.815071991E0
8.171547810E0,-7.041974664E-1,-5.778630972E-1,-2.706585407E0,2.855770368E0
8.176553227E0,-8.178498745E-1,-4.157260656E-1,-2.780675411E0,2.928115831E0
8.181558643E0,-9.347307682E-1,-2.934434414E-1,-2.912273884E0,3.072648668E0
8.186564060E0,-9.840670228E-1,-1.910669804E-1,-3.039418221E0,3.200462094E0
8.191569477E0,-9.717134237E-1,-3.626370430E-2,-3.167125702E0,3.313038974E0
