"Time (s)","Linear Acceleration x (m/s^2)","Linear Acceleration y (m/s^2)","Linear Acceleration z (m/s^2)","Absolute acceleration (m/s^2)"
2.300835200E-2,0.000000000E0,0.000000000E0,0.000000000E0,0.000000000E0
2.800856100E-2,-5.353021622E-2,-5.290985107E-3,-4.269433022E-2,6.867520953E-2
3.300918600E-2,-1.298580170E-1,-1.751708984E-2,-1.195800304E-1,1.773959884E-1
3.801038300E-2,-1.605410576E-1,-5.462741852E-2,-1.405260563E-1,2.202388670E-1
4.301231100E-2,-2.228240967E-1,-8.099460602E-2,-8.829951286E-2,2.529970518E-1
4.801507100E-2,-3.081154823E-1,-6.315422058E-2,-1.875162125E-2,3.150797190E-1
5.301871700E-2,-3.573100567E-1,-1.341629028E-2,8.724045753E-2,3.680507722E-1
5.802330000E-2,-3.660895824E-1,4.169178009E-2,2.002842426E-1,4.193728231E-1
6.302882100E-2,-3.332302570E-1,1.119508743E-1,3.011198044E-1,4.628698943E-1
6.803522700E-2,-2.995169163E-1,1.630783081E-1,3.408746719E-1,4.821830147E-1
7.304246700E-2,-2.503721714E-1,1.933059692E-1,3.467650414E-1,4.693606458E-1
7.805043600E-2,-1.899874210E-1,1.651868820E-1,4.043343067E-1,4.763067895E-1
8.305897700E-2,-1.225035191E-1,6.053829193E-2,4.830505848E-1,5.020058410E-1
8.806793600E-2,-1.140539646E-1,-7.198429108E-2,5.281772614E-1,5.451249989E-1
9.307715400E-2,-1.289560795E-1,-2.093658447E-1,5.238268375E-1,5.786694074E-1
9.808647700E-2,-1.565277576E-1,-2.759609222E-1,5.173534155E-1,6.068854307E-1
1.030950710E-1,-1.599962711E-1,-2.672424316E-1,4.678587914E-1,5.620579798E-1
1.081005400E-1,-1.405999660E-1,-2.278060913E-1,4.265947342E-1,5.036338282E-1
1.131059560E-1,-1.129052639E-1,-1.951141357E-1,4.014983177E-1,4.604541494E-1
1.181113730E-1,-1.454973221E-1,-1.685504913E-1,3.456668854E-1,4.111743359E-1
1.231167900E-1,-2.084555626E-1,-1.158428192E-1,2.876586914E-1,3.736586719E-1
1.281222060E-1,-2.597742081E-1,-2.896213531E-2,2.183685303E-1,3.405969164E-1
1.331276230E-1,-2.910196781E-1,2.216720581E-2,1.336965561E-1,3.210274243E-1
1.381330400E-1,-3.214540482E-1,6.665420532E-2,2.975440025E-2,3.296373955E-1
1.431384560E-1,-3.556542397E-1,1.048841476E-1,-4.220628738E-2,3.731916308E-1
1.481438730E-1,-3.934154510E-1,1.509695053E-1,-3.260445595E-2,4.226470859E-1
1.531492900E-1,-4.023420811E-1,1.816921234E-1,3.063678741E-4,4.414649157E-1
1.581547060E-1,-3.651087284E-1,2.114515305E-1,6.967663765E-2,4.276341510E-1
1.631601230E-1,-3.204207420E-1,2.356185913E-1,1.327500343E-1,4.192948177E-1
1.681655400E-1,-2.732856274E-1,2.450866699E-1,1.804833412E-1,4.090559208E-1
1.731709560E-1,-2.329857349E-1,2.773332596E-1,1.858355999E-1,4.071006752E-1
1.781763730E-1,-2.130095959E-1,2.899456024E-1,2.199068069E-1,4.216640180E-1
1.831817900E-1,-2.357966900E-1,2.975206375E-1,2.818124294E-1,4.727968423E-1
1.881872060E-1,-2.489387989E-1,2.956132889E-1,3.567715883E-1,5.259693037E-1
1.931926230E-1,-2.527689934E-1,2.798786163E-1,4.628601074E-1,5.970457963E-1
1.981980400E-1,-2.429425716E-1,2.040977478E-1,5.294923782E-1,6.172836968E-1
2.032034560E-1,-2.292294502E-1,1.210212708E-1,5.482997894E-1,6.064857360E-1
2.082088730E-1,-2.208614349E-1,3.544235229E-2,5.438687801E-1,5.880724307E-1
2.132142900E-1,-2.452950478E-1,-4.321575165E-2,5.727881193E-1,6.245986642E-1
2.182197060E-1,-2.734076977E-1,-1.524791718E-1,5.643216372E-1,6.453375684E-1
2.232251230E-1,-2.815117836E-1,-2.495918274E-1,5.941244364E-1,7.032274245E-1
2.282305400E-1,-2.794280052E-1,-3.302736282E-1,6.332312822E-1,7.669045158E-1
2.332359560E-1,-2.815442085E-1,-3.482732773E-1,7.188482285E-1,8.469381280E-1
2.382413730E-1,-2.878863811E-1,-3.237543106E-1,8.077121973E-1,9.165666456E-1
2.432467900E-1,-2.658476830E-1,-2.857818604E-1,9.090106487E-1,9.892656983E-1
2.482522060E-1,-2.442405224E-1,-2.673711777E-1,1.008228183E0,1.071291206E0
2.532576230E-1,-2.278804779E-1,-2.680416107E-1,1.091013432E0,1.146335956E0
2.582630400E-1,-2.167220116E-1,-2.920951843E-1,1.152992487E0,1.208999463E0
2.632684560E-1,-2.014007568E-1,-3.390846252E-1,1.199141026E0,1.262331116E0
2.682738730E-1,-1.632447243E-1,-3.804454803E-1,1.234495878E0,1.302062854E0
2.732792900E-1,-1.449465752E-1,-4.068956375E-1,1.240302801E0,1.313363852E0
2.782847060E-1,-1.506240368E-1,-3.905305862E-1,1.217280626E0,1.287234968E0
2.832901230E-1,-2.032825947E-1,-3.227386475E-1,1.212926149E0,1.271484916E0
2.882955400E-1,-2.549288273E-1,-2.607488632E-1,1.189235449E0,1.243888914E0
2.933009560E-1,-3.382983208E-1,-2.278566360E-1,1.151319504E0,1.221433993E0
2.983063730E-1,-3.728137016E-1,-2.375898361E-1,1.080565214E0,1.167501678E0
3.033117900E-1,-3.779971600E-1,-2.938985825E-1,1.005914211E0,1.114056386E0
3.083172060E-1,-3.777585030E-1,-3.536691666E-1,9.464241266E-1,1.078657496E0
3.133226230E-1,-4.097795486E-1,-3.416175842E-1,8.974111080E-1,1.044015589E0
3.183280400E-1,-4.734833241E-1,-2.919235229E-1,8.682984114E-1,1.031187632E0
3.233334560E-1,-5.354073048E-1,-1.816873550E-1,8.495811224E-1,1.020519162E0
3.283388730E-1,-5.438520908E-1,-9.197425842E-2,7.988241911E-1,9.707494266E-1
3.333442900E-1,-4.668242931E-1,-1.073369980E-1,7.449998856E-1,8.857036645E-1
3.383497060E-1,-3.671219349E-1,-1.602363586E-1,7.022857666E-1,8.084921173E-1
3.433551230E-1,-3.346669674E-1,-2.124404907E-1,7.271819115E-1,8.282067819E-1
3.483605400E-1,-3.213131428E-1,-2.262392044E-1,7.854826450E-1,8.782990943E-1
3.533659560E-1,-2.839832306E-1,-1.879253387E-1,8.719120622E-1,9.360518428E-1
3.583713730E-1,-1.710126400E-1,-1.311731339E-1,9.716067910E-1,9.952243317E-1
3.633767900E-1,-2.452850342E-3,-7.977294922E-2,1.050925016E0,1.053951199E0
3.683822060E-1,1.969797611E-1,-3.368759155E-2,1.100368857E0,1.118368232E0
3.733876230E-1,3.652651310E-1,2.383232117E-3,1.124967337E0,1.182783076E0
3.783930400E-1,4.269886017E-1,7.099533081E-2,1.143840790E0,1.223000963E0
3.833984560E-1,4.259898663E-1,1.339092255E-1,1.128673792E0,1.213797172E0
3.884038730E-1,4.245753288E-1,1.392583847E-1,1.103645086E0,1.190667705E0
3.934092900E-1,4.511699677E-1,1.728925705E-1,1.082966089E0,1.185859069E0
3.984147060E-1,5.005218983E-1,2.343511581E-1,1.047904015E0,1.184713239E0
4.034201230E-1,5.581271648E-1,3.090467453E-1,9.894638062E-1,1.177308136E0
4.084255400E-1,6.518599987E-1,3.825159073E-1,9.599865675E-1,1.221807713E0
4.134309560E-1,7.054426670E-1,4.074325562E-1,9.166774750E-1,1.226355673E0
4.184363730E-1,7.429208755E-1,3.938388824E-1,8.596683145E-1,1.202526550E0
4.234417900E-1,7.503178120E-1,3.516092300E-1,7.894448042E-1,1.144477596E0
4.284472060E-1,7.233777046E-1,3.142070770E-1,7.204474807E-1,1.068197530E0
4.334526230E-1,6.769139767E-1,2.768669128E-1,6.765323281E-1,9.962749672E-1
4.384580400E-1,6.019306183E-1,2.490959167E-1,6.575440764E-1,9.255989723E-1
4.434634560E-1,5.510103703E-1,2.450189590E-1,6.443966031E-1,8.825495456E-1
4.484688730E-1,5.238142014E-1,2.548675537E-1,6.087151766E-1,8.425395858E-1
4.534742900E-1,5.058097839E-1,2.642726898E-1,5.980687141E-1,8.266618286E-1
4.584797060E-1,4.779243469E-1,2.590122223E-1,5.696918964E-1,7.874311840E-1
4.634851230E-1,4.308993816E-1,2.392845154E-1,4.953835607E-1,6.988105813E-1
4.684905400E-1,4.217548370E-1,1.673135757E-1,3.570101261E-1,5.773449622E-1
4.734959560E-1,4.311275482E-1,5.680084229E-3,2.457759380E-1,4.962953132E-1
4.785013730E-1,4.117817879E-1,-2.209177017E-1,1.804674864E-1,5.009365084E-1
4.835067900E-1,3.640742302E-1,-3.981504440E-1,1.701464653E-1,5.657063203E-1
4.885122060E-1,3.549690247E-1,-4.649038315E-1,2.522534132E-1,6.370010718E-1
4.935176230E-1,3.558108807E-1,-4.885921478E-1,3.639864922E-1,7.055564018E-1
4.985230400E-1,3.713104725E-1,-5.454044342E-1,4.904813170E-1,8.221370848E-1
5.035284560E-1,3.588969707E-1,-6.680383682E-1,6.596019864E-1,1.005065708E0
5.085338730E-1,2.952651978E-1,-8.556938171E-1,8.275659084E-1,1.226482278E0
5.135392900E-1,1.431577206E-1,-9.701671600E-1,1.088779330E0,1.465318696E0
5.185447060E-1,2.697181702E-2,-1.012024879E0,1.408611059E0,1.734677766E0
5.235501230E-1,-6.746792793E-2,-1.005470276E0,1.634289384E0,1.920006299E0
5.285555400E-1,-1.118168831E-1,-9.176712036E-1,1.794750333E0,2.018849229E0
5.335609560E-1,-1.208682060E-1,-7.872819901E-1,1.913864136E0,2.072992519E0
5.385663730E-1,-7.627391815E-2,-6.384277344E-1,2.001099586E0,2.101858044E0
5.435717900E-1,3.043556213E-2,-5.330266953E-1,2.051659107E0,2.119987942E0
5.485772060E-1,1.649231911E-1,-4.613075256E-1,2.070352554E0,2.127525321E0
5.535826230E-1,3.075618744E-1,-4.278211594E-1,1.972056985E0,2.041233451E0
5.585880400E-1,4.105975628E-1,-3.896846771E-1,1.924394965E0,2.005926342E0
5.635934560E-1,4.220924377E-1,-3.233165741E-1,1.789657950E0,1.866968455E0
5.685988730E-1,3.812053204E-1,-2.574367523E-1,1.626289606E0,1.690091436E0
5.736042900E-1,3.455131054E-1,-2.015361786E-1,1.510843873E0,1.562896460E0
5.786097060E-1,3.529157639E-1,-1.602754593E-1,1.404930234E0,1.457417827E0
5.836151230E-1,3.840839863E-1,-8.607101440E-2,1.246879578E0,1.307531036E0
5.886205400E-1,4.197285175E-1,1.760482788E-3,1.065761447E0,1.145435546E0
5.936259560E-1,4.784309864E-1,1.076974869E-1,9.048314095E-1,1.029181635E0
5.986313730E-1,4.980823994E-1,2.599496841E-1,7.597402334E-1,9.449154127E-1
6.036367900E-1,5.259177685E-1,4.389686584E-1,7.254620194E-1,9.977866124E-1
6.086422060E-1,5.188958645E-1,5.732269287E-1,5.735245347E-1,9.626902004E-1
6.136476230E-1,4.202024937E-1,6.488037109E-1,4.714424610E-1,9.054139302E-1
6.186530400E-1,2.787292004E-1,3.909072876E-1,1.103496552E-2,4.802293672E-1
6.236584560E-1,1.193242073E-1,4.007787704E-1,-6.815576553E-2,4.236827795E-1
6.286638730E-1,-2.895069122E-2,5.433950424E-1,-1.632988453E-2,5.444106720E-1
6.336692900E-1,-8.538675308E-2,7.607545853E-1,2.221843004E-1,7.971225125E-1
6.386747060E-1,-4.615974426E-2,9.430799484E-1,4.551776648E-1,1.048197127E0
6.436801230E-1,1.156139374E-2,1.095386505E0,6.582921147E-1,1.278027296E0
6.486855400E-1,6.505966187E-3,1.227401257E0,7.456555963E-1,1.436161008E0
6.536909560E-1,-2.778077126E-2,1.320312977E0,8.648274541E-1,1.578583116E0
6.586963730E-1,-1.007797718E-1,1.341198444E0,9.579153657E-1,1.651233381E0
6.637017900E-1,-1.836414337E-1,1.304935932E0,1.000905037E0,1.654809009E0
6.687072060E-1,-2.475080490E-1,1.273829937E0,1.027218223E0,1.655016683E0
6.737126230E-1,-3.919591904E-1,1.314448833E0,9.705060720E-1,1.680264794E0
6.787180400E-1,-5.351097584E-1,1.431097507E0,9.125581384E-1,1.779647405E0
6.837234560E-1,-6.860334873E-1,1.599551678E0,8.535832763E-1,1.938507654E0
6.887288730E-1,-8.443789482E-1,1.757715225E0,7.984903455E-1,2.107160519E0
6.937342900E-1,-9.671158791E-1,1.900970459E0,7.425699830E-1,2.258409172E0
6.987397060E-1,-1.030673504E0,2.100724697E0,7.288279533E-1,2.450820742E0
7.037451230E-1,-1.040140867E0,2.342324734E0,7.000759840E-1,2.656780865E0
7.087505400E-1,-1.048482656E0,2.615880013E0,6.375712156E-1,2.889401526E0
7.137559560E-1,-1.017883539E0,2.868824959E0,5.415931940E-1,3.091854901E0
7.187613730E-1,-9.727435112E-1,3.058442593E0,4.789052606E-1,3.244942415E0
7.237667900E-1,-8.897066116E-1,3.189858913E0,4.397810996E-1,3.340686330E0
7.287722060E-1,-8.026008606E-1,3.268172741E0,3.859782517E-1,3.387344154E0
7.337776230E-1,-7.260115147E-1,3.317446232E0,3.604457080E-1,3.415034894E0
7.387830400E-1,-6.932592392E-1,3.385416508E0,3.152753115E-1,3.470021877E0
7.437884560E-1,-6.708366871E-1,3.429139137E0,2.172412872E-1,3.500887153E0
7.487938730E-1,-6.111855507E-1,3.420218468E0,9.535235167E-2,3.475706290E0
7.537992900E-1,-5.335845947E-1,3.325712681E0,-5.019545555E-2,3.368619441E0
7.588047060E-1,-4.522478580E-1,3.165269375E0,-1.814147234E-1,3.202556735E0
7.638101230E-1,-4.194684029E-1,3.001146793E0,-3.268620372E-1,3.047896751E0
7.688155400E-1,-4.536981583E-1,2.895233631E0,-4.576877356E-1,2.966091344E0
7.738209560E-1,-4.971630573E-1,2.818624973E0,-5.640016794E-1,2.917175987E0
7.788263730E-1,-5.114579201E-1,2.761670113E0,-6.362845302E-1,2.879803642E0
7.838317900E-1,-4.920699596E-1,2.733736992E0,-7.223246098E-1,2.870052896E0
7.888372060E-1,-4.818866253E-1,2.706117630E0,-7.743224502E-1,2.855672006E0
7.938426230E-1,-4.477300644E-1,2.712058067E0,-8.495067954E-1,2.877044137E0
7.988480400E-1,-4.134366512E-1,2.713302612E0,-9.190303683E-1,2.894401104E0
8.038534560E-1,-3.742241859E-1,2.662299156E0,-9.779033065E-1,2.860799786E0
8.088588730E-1,-3.015630245E-1,2.568889618E0,-1.073622942E0,2.800500018E0
8.138642900E-1,-2.004940510E-1,2.466602325E0,-1.167301416E0,2.736223217E0
8.188697060E-1,-4.252219200E-2,2.379292488E0,-1.220261216E0,2.674299594E0
8.238751230E-1,1.670801640E-1,2.259230614E0,-1.180097818E0,2.554343283E0
8.288805400E-1,3.993556499E-1,2.130377293E0,-1.118398190E0,2.439017600E0
8.338859560E-1,6.395978928E-1,1.964161396E0,-1.073325872E0,2.327883992E0
8.388913730E-1,8.732943535E-1,1.803586483E0,-1.011338592E0,2.244632036E0
8.438967900E-1,1.100163221E0,1.619974136E0,-9.752852917E-1,2.187660101E0
8.489022060E-1,1.338672638E0,1.384756088E0,-9.508160353E-1,2.147939708E0
8.539076230E-1,1.664414167E0,9.981579781E-1,-9.284787178E-1,2.151433615E0
8.589130400E-1,2.052561045E0,4.228715897E-1,-8.851095438E-1,2.274916730E0
8.639184560E-1,2.440279007E0,-2.830371857E-1,-8.259938359E-1,2.591782687E0
8.689238730E-1,2.760403872E0,-1.071365356E0,-7.708591819E-1,3.059718474E0
8.739292900E-1,3.065367937E0,-1.989369392E0,-7.057716250E-1,3.721852329E0
8.789347060E-1,3.369146824E0,-2.979331970E0,-6.884777546E-1,4.549897903E0
8.839401230E-1,3.690484762E0,-4.093356133E0,-7.810893059E-1,5.566447944E0
8.889455400E-1,3.976753950E0,-5.249942780E0,-9.545208812E-1,6.654891530E0
8.939509560E-1,4.166563034E0,-6.363219261E0,-1.126863837E0,7.688994017E0
8.989563730E-1,4.198988914E0,-7.366824150E0,-1.197180152E0,8.563576722E0
9.039617900E-1,4.147206306E0,-8.170845985E0,-1.198155880E0,9.241083366E0
9.089672060E-1,4.155365944E0,-8.866790771E0,-1.057691216E0,9.849149985E0
9.139726230E-1,4.252597332E0,-9.364657402E0,-8.234392405E-1,1.031791861E1
9.189780920E-1,4.439449310E0,-9.860588074E0,-5.667805672E-1,1.082871865E1
9.239835610E-1,4.582147598E0,-1.035467720E1,-2.584908009E-1,1.132617473E1
9.289890290E-1,4.719267368E0,-1.095175076E1,1.305550039E-1,1.192599571E1
9.339944980E-1,4.926166058E0,-1.169445324E1,6.047909260E-1,1.270405922E1
9.389999670E-1,5.082852364E0,-1.244890022E1,1.063341618E0,1.348855813E1
9.440054360E-1,5.284178734E0,-1.326294041E1,1.567622900E0,1.436264511E1
9.490109040E-1,5.252843380E0,-1.377936363E1,2.192511082E0,1.490873336E1
9.540163730E-1,5.070847511E0,-1.411888504E1,2.840533733E0,1.526843283E1
9.590218420E-1,4.686942101E0,-1.412027836E1,3.366369247E0,1.525392176E1
9.640273110E-1,4.222525597E0,-1.406581211E1,3.692739964E0,1.514308823E1
9.690327790E-1,3.755289555E0,-1.409340477E1,3.905018568E0,1.509885518E1
9.740382480E-1,3.247465372E0,-1.414996624E1,4.045517921E0,1.507095854E1
9.790437170E-1,2.742050409E0,-1.415424633E1,4.132778645E0,1.499804617E1
9.840491860E-1,2.301004887E0,-1.406350517E1,4.142608166E0,1.484041791E1
9.890546540E-1,1.852787971E0,-1.377800369E1,4.089245319E0,1.449096740E1
9.940601230E-1,1.445396423E0,-1.338904667E1,3.958393335E0,1.403654585E1
9.990655920E-1,1.160000563E0,-1.333045101E1,3.616660595E0,1.386097974E1
1.004071061E0,7.680168152E-1,-1.319532394E1,3.151127338E0,1.358808402E1
1.009076529E0,2.231566906E-1,-1.281225681E1,2.582099438E0,1.307176197E1
1.014081998E0,-2.867903709E-1,-1.231551170E1,2.082985878E0,1.249371472E1
1.019087467E0,-7.031590939E-1,-1.184325600E1,1.612000465E0,1.197312369E1
1.024092936E0,-1.016053915E0,-1.127594948E1,1.208009601E0,1.138589871E1
1.029098404E0,-1.330484629E0,-1.048047447E1,7.230608463E-1,1.058930364E1
1.034103873E0,-1.508382559E0,-9.543766022E0,1.774109602E-1,9.663858570E0
1.039109342E0,-1.579833031E0,-8.647969246E0,-3.555107713E-1,8.798274399E0
1.044114811E0,-1.603302479E0,-7.788524628E0,-7.688011527E-1,7.988914189E0
1.049120279E0,-1.627595425E0,-6.918006897E0,-1.090331435E0,7.190042346E0
1.054125748E0,-1.629593849E0,-6.022480965E0,-1.362478733E0,6.386094376E0
1.059131217E0,-1.605071306E0,-5.188051224E0,-1.575037003E0,5.654455850E0
1.064136686E0,-1.554450750E0,-4.400255203E0,-1.623148203E0,4.940968840E0
1.069142102E0,-1.525819778E0,-3.601780891E0,-1.469757199E0,4.178652631E0
1.074147519E0,-1.529043436E0,-2.721295357E0,-1.140470266E0,3.323265664E0
1.079152936E0,-1.588262558E0,-1.768794060E0,-7.515630126E-1,2.493202226E0
1.084158352E0,-1.713105202E0,-7.494220734E-1,-3.470687866E-1,1.901793790E0
1.089163769E0,-1.979920626E0,3.269472122E-1,8.629679680E-2,2.008588385E0
1.094169186E0,-2.340408087E0,1.479171753E0,5.194581747E-1,2.816965723E0
1.099174602E0,-2.727184534E0,2.645102024E0,1.028274775E0,3.935917836E0
1.104180019E0,-3.211551428E0,3.858194351E0,1.563931108E0,5.257908970E0
1.109185436E0,-3.740290403E0,5.104223251E0,2.115727186E0,6.672268642E0
1.114190852E0,-4.217649460E0,6.459590912E0,2.615550280E0,8.145918302E0
1.119196269E0,-4.672467232E0,7.809592247E0,3.010241270E0,9.585574245E0
1.124201686E0,-5.038239479E0,9.121019363E0,3.413809299E0,1.096498724E1
1.129207102E0,-5.344090462E0,1.030365372E1,3.839363337E0,1.222559993E1
1.134212519E0,-5.533793926E0,1.139623260E1,4.185157299E0,1.334213380E1
1.139217936E0,-5.660920143E0,1.233720016E1,4.426454067E0,1.427746547E1
1.144223352E0,-5.768942833E0,1.310823345E1,4.548433304E0,1.502646769E1
1.149228769E0,-5.757957935E0,1.364817619E1,4.493680477E0,1.547966270E1
1.154234186E0,-5.671715260E0,1.408196831E1,4.328881741E0,1.578636762E1
1.159239602E0,-5.525499344E0,1.437176609E1,3.963059425E0,1.589920261E1
1.164245019E0,-5.367568970E0,1.453705311E1,3.516421795E0,1.589030937E1
1.169250436E0,-5.207599640E0,1.459246635E1,3.027897358E0,1.578693544E1
1.174255852E0,-5.069409370E0,1.458593178E1,2.446037531E0,1.563430257E1
1.179261269E0,-4.952833652E0,1.467001152E1,1.748834848E0,1.558198391E1
1.184266686E0,-4.843420982E0,1.472957230E1,8.579925299E-1,1.552917184E1
1.189272102E0,-4.830859184E0,1.470268440E1,8.728933334E-2,1.547623173E1
1.194277519E0,-4.832730293E0,1.455163574E1,-5.370686650E-1,1.534254958E1
1.199282936E0,-4.862565041E0,1.426750565E1,-1.108596563E0,1.511407432E1
1.204288352E0,-4.852845669E0,1.394637871E1,-1.606586576E0,1.485371033E1
1.209293769E0,-4.750953674E0,1.363145065E1,-2.006287336E0,1.457440210E1
1.214299186E0,-4.552371025E0,1.331802750E1,-2.335940599E0,1.426711452E1
1.219304602E0,-4.295435905E0,1.296331882E1,-2.524000406E0,1.388772777E1
1.224310019E0,-4.004261971E0,1.254847717E1,-2.647128820E0,1.343524039E1
1.229315436E0,-3.679250717E0,1.211186314E1,-2.610006809E0,1.292463733E1
1.234320852E0,-3.335548162E0,1.166293621E1,-2.432504416E0,1.237202652E1
1.239326269E0,-3.030952930E0,1.125409317E1,-2.149188280E0,1.185159479E1
1.244331686E0,-2.775296926E0,1.090891838E1,-1.785380244E0,1.139712051E1
1.249337102E0,-2.515800476E0,1.058906460E1,-1.433140755E0,1.097776997E1
1.254342519E0,-2.242582321E0,1.026117134E1,-1.155717373E0,1.056676371E1
1.259347936E0,-1.926921368E0,9.963480949E0,-9.348223209E-1,1.019106821E1
1.264353352E0,-1.626105070E0,9.710215569E0,-7.566970587E-1,9.874466797E0
1.269358769E0,-1.373490095E0,9.477339745E0,-5.978589654E-1,9.594992393E0
1.274364186E0,-1.140395641E0,9.288574219E0,-4.680194855E-1,9.370013633E0
1.279369602E0,-9.032063484E-1,9.153189659E0,-3.862545192E-1,9.205751202E0
1.284375019E0,-6.671111584E-1,9.042243004E0,-2.952835560E-1,9.071625445E0
1.289380436E0,-4.513607025E-1,8.931743622E0,-2.335911095E-1,8.946191112E0
1.294385852E0,-2.465128899E-1,8.859797478E0,-2.200581133E-1,8.865957677E0
1.299391269E0,-2.462863922E-4,8.792811394E0,-2.497010082E-1,8.796356226E0
1.304396686E0,3.059365749E-1,8.773584366E0,-3.032114208E-1,8.784151466E0
1.309402102E0,6.235117912E-1,8.782697678E0,-3.613322973E-1,8.812213484E0
1.314407519E0,9.088675976E-1,8.805568695E0,-4.048304558E-1,8.861600761E0
1.319412936E0,1.151906252E0,8.803810120E0,-4.766178727E-1,8.891632315E0
1.324418352E0,1.342716932E0,8.743988037E0,-5.430310369E-1,8.863131403E0
1.329423769E0,1.462027550E0,8.588057518E0,-6.326796412E-1,8.734560093E0
1.334429186E0,1.610173941E0,8.336341858E0,-6.833366156E-1,8.517875593E0
1.339434602E0,1.806156874E0,7.974880219E0,-7.286032438E-1,8.209249651E0
1.344440019E0,2.021251440E0,7.489766598E0,-7.112722397E-1,7.790248345E0
1.349445436E0,2.198028326E0,6.924327850E0,-6.842120886E-1,7.296971350E0
1.354450852E0,2.365239620E0,6.274042130E0,-6.713487506E-1,6.738595718E0
1.359456269E0,2.551353693E0,5.558194160E0,-7.538838387E-1,6.162083157E0
1.364461686E0,2.784729719E0,4.676718235E0,-9.219311476E-1,5.520540743E0
1.369467102E0,3.055326939E0,3.601421833E0,-1.179953456E0,4.868013155E0
1.374472519E0,3.286352634E0,2.304190159E0,-1.455961466E0,4.269570203E0
1.379477936E0,3.430177927E0,8.429450989E-1,-1.702122331E0,3.920956195E0
1.384483352E0,3.382613420E0,-6.672134399E-1,-1.875581980E0,3.924927399E0
1.389488769E0,3.236048937E0,-2.049377441E0,-1.966984987E0,4.305925053E0
1.394494186E0,3.092677593E0,-3.265415192E0,-2.000250340E0,4.922254818E0
1.399499602E0,2.973512173E0,-4.277178764E0,-1.975375891E0,5.571188628E0
1.404505019E0,2.966673374E0,-5.079855919E0,-1.849538326E0,6.166593799E0
1.409510436E0,3.226724148E0,-5.764015198E0,-1.756757617E0,6.835335928E0
1.414515852E0,3.802326202E0,-6.424762726E0,-1.735198975E0,7.664605412E0
1.419521269E0,4.617221832E0,-7.114145279E0,-1.765767932E0,8.663009690E0
1.424526686E0,5.456021309E0,-7.741268158E0,-1.838729024E0,9.647607249E0
1.429532102E0,6.155954361E0,-8.244453430E0,-1.900657773E0,1.046323499E1
1.434537519E0,6.683535099E0,-8.610035896E0,-2.031236410E0,1.108730269E1
1.439542936E0,7.119382858E0,-9.001176834E0,-2.123376846E0,1.167114073E1
1.444548352E0,7.647906780E0,-9.537891388E0,-1.970279574E0,1.238320846E1
1.449553769E0,8.180407524E0,-9.967806816E0,-1.523698926E0,1.298452534E1
1.454559186E0,8.500082970E0,-1.010610485E1,-9.599982500E-1,1.324033090E1
1.459564602E0,8.735003471E0,-1.015969467E1,-3.125017285E-1,1.340213934E1
1.464570019E0,9.046206474E0,-1.013909435E1,3.651650548E-1,1.359295521E1
1.469575436E0,9.364853859E0,-1.015980148E1,9.368283749E-1,1.384917692E1
1.474580852E0,9.617511749E0,-1.039416313E1,1.390309453E0,1.422912927E1
1.479586269E0,9.635431290E0,-1.091373348E1,1.813264370E0,1.467102731E1
1.484591686E0,9.499232292E0,-1.164641666E1,2.174108028E0,1.518555830E1
1.489597102E0,9.156149864E0,-1.255360222E1,2.379714489E0,1.571913007E1
1.494602519E0,8.630699158E0,-1.355365181E1,2.323943615E0,1.623549073E1
1.499607936E0,7.962418556E0,-1.455065918E1,2.049856663E0,1.671298011E1
1.504613352E0,7.153390884E0,-1.552506542E1,1.820360899E0,1.719047327E1
1.509618769E0,6.154281139E0,-1.639477158E1,1.482077718E0,1.757442078E1
1.514624186E0,5.103303432E0,-1.718222046E1,1.039408565E0,1.795418547E1
1.519629602E0,4.081087589E0,-1.782846832E1,4.785046279E-1,1.829586088E1
1.524635019E0,2.800060272E0,-1.826061821E1,5.893945694E-2,1.847414379E1
1.529640436E0,1.002910614E0,-1.850106049E1,-1.027094126E-1,1.852850825E1
1.534645852E0,-2.218084335E-1,-1.861535072E1,-4.201024771E-1,1.862141154E1
1.539651269E0,-5.465636253E-1,-1.841752815E1,-6.430296898E-1,1.843685337E1
1.544656686E0,-8.065769672E-1,-1.787603569E1,-8.329101205E-1,1.791359701E1
1.549662102E0,-1.103348494E0,-1.692087936E1,-1.065545082E0,1.699025964E1
1.554667519E0,-1.165667772E0,-1.594043064E1,-1.326318622E0,1.603793102E1
1.559672936E0,-1.234393835E0,-1.506440449E1,-1.585810661E0,1.519785531E1
1.564678352E0,-1.453769684E0,-1.425965595E1,-1.785691261E0,1.444437356E1
1.569683769E0,-1.499849796E0,-1.338338661E1,-1.944208622E0,1.360678264E1
1.574689186E0,-1.203075171E0,-1.244152546E1,-2.137032509E0,1.268092479E1
1.579694602E0,-9.818575382E-1,-1.132555580E1,-2.502048254E0,1.164012474E1
1.584700019E0,-1.151484728E0,-1.036087608E1,-2.680118322E0,1.076367523E1
1.589705436E0,-1.199101686E0,-9.546559334E0,-2.814582825E0,1.002479508E1
1.594710852E0,-8.961813450E-1,-8.824967384E0,-3.077061176E0,9.388902802E0
1.599716269E0,-5.027799606E-1,-7.981676102E0,-3.504351377E0,8.731576012E0
1.604721686E0,-5.827665329E-2,-6.898274422E0,-3.784515381E0,7.868426961E0
1.609727102E0,9.177923203E-1,-5.528572083E0,-3.908073187E0,6.832312057E0
1.614732519E0,1.956881046E0,-4.004247665E0,-2.845094681E0,5.287527450E0
1.619737936E0,8.028826714E-1,-3.222203255E0,-1.793706298E0,3.774201463E0
1.624743352E0,-2.705698013E-1,-2.657601357E0,-1.348248243E0,2.992294490E0
1.629748769E0,-8.704845905E-1,-2.327935219E0,-5.909365416E-1,2.554649056E0
1.634754186E0,-1.309130192E0,-2.065549850E0,-4.444700480E-2,2.445872764E0
1.639759602E0,-1.740525723E0,-1.536203384E0,3.559681177E-1,2.348630224E0
1.644765019E0,-2.246324539E0,-7.215785980E-1,7.658228874E-1,2.480551210E0
1.649770436E0,-2.917213678E0,3.059434891E-1,1.088284969E0,3.128594131E0
1.654775852E0,-3.719142914E0,1.483740330E0,1.295496225E0,4.208541297E0
1.659781321E0,-4.526824951E0,2.759087086E0,1.456407070E0,5.497802037E0
1.664786790E0,-5.225469589E0,4.122123718E0,1.625113130E0,6.851162607E0
1.669792258E0,-5.757951736E0,5.472374916E0,1.725838542E0,8.128924535E0
1.674797727E0,-6.172538757E0,6.805094719E0,1.935616970E0,9.389151287E0
1.679803196E0,-6.570024490E0,8.105925560E0,2.158809662E0,1.065512600E1
1.684808665E0,-7.012556076E0,9.322443008E0,2.376361370E0,1.190508210E1
1.689814133E0,-7.466713428E0,1.048829746E1,2.611973286E0,1.313691735E1
1.694819602E0,-7.822683334E0,1.144139671E1,2.807690382E0,1.414153664E1
1.699825071E0,-8.181126595E0,1.224448395E1,2.910466671E0,1.501096385E1
1.704830540E0,-8.336608887E0,1.284087181E1,2.953366756E0,1.559196626E1
1.709836008E0,-8.199260712E0,1.319772148E1,2.940762758E0,1.581315320E1
1.714841477E0,-7.904126167E0,1.323912430E1,2.844221592E0,1.567926080E1
1.719846946E0,-7.466465950E0,1.304216099E1,2.773989201E0,1.528205134E1
1.724852415E0,-6.959205627E0,1.275515461E1,2.686861753E0,1.477645892E1
1.729857883E0,-6.593387604E0,1.251646519E1,2.454164743E0,1.435818879E1
1.734863352E0,-6.421494961E0,1.237351704E1,2.143332005E0,1.410437498E1
1.739868821E0,-6.371084213E0,1.231649971E1,1.760186672E0,1.397802333E1
1.744874290E0,-6.355230331E0,1.224027634E1,1.391927361E0,1.386184617E1
1.749879758E0,-6.320579529E0,1.213075638E1,1.063459635E0,1.371990970E1
1.754885227E0,-6.237876892E0,1.193091106E1,7.469050884E-1,1.348390204E1
1.759890696E0,-6.121134758E0,1.161241341E1,5.100030899E-1,1.313683900E1
1.764896165E0,-5.898684978E0,1.121854496E1,4.151538014E-1,1.268158461E1
1.769901633E0,-5.656731129E0,1.086406708E1,4.192761779E-1,1.225570696E1
1.774907102E0,-5.357104301E0,1.051542759E1,4.743375182E-1,1.181091783E1
1.779912571E0,-5.009331226E0,1.016790867E1,5.752168298E-1,1.134947754E1
1.784918040E0,-4.646830559E0,9.864568710E0,7.451543808E-1,1.092968459E1
1.789923508E0,-4.312288284E0,9.605474472E0,9.308148623E-1,1.057011761E1
1.794928977E0,-3.962764263E0,9.390481949E0,1.083969712E0,1.024986059E1
1.799934446E0,-3.593751907E0,9.233764648E0,1.309107065E0,9.994559703E0
1.804939915E0,-3.210427523E0,9.139844894E0,1.576899290E0,9.814796021E0
1.809945383E0,-2.827645302E0,9.032093048E0,1.795510530E0,9.633179166E0
1.814950852E0,-2.445673466E0,8.867601395E0,1.959403992E0,9.405048495E0
1.819956269E0,-2.074509144E0,8.670355797E0,2.110927582E0,9.161586821E0
1.824961686E0,-1.747780561E0,8.483437538E0,2.216130972E0,8.940619992E0
1.829967102E0,-1.469932079E0,8.330839157E0,2.308241129E0,8.768783182E0
1.834972519E0,-1.192940712E0,8.193386078E0,2.330250025E0,8.601438725E0
1.839977936E0,-9.500145912E-1,8.009035110E0,2.349257946E0,8.400368088E0
1.844983352E0,-6.694738865E-1,7.816074848E0,2.365428448E0,8.193562904E0
1.849988769E0,-3.181416988E-1,7.624033451E0,2.350050926E0,7.984349664E0
1.854994186E0,9.367656708E-2,7.413601875E0,2.255417585E0,7.749656544E0
1.859999602E0,5.268089771E-1,7.194076538E0,1.986332297E0,7.481830052E0
1.865005019E0,9.899289608E-1,6.931680679E0,1.691825628E0,7.203501256E0
1.870010436E0,1.453078032E0,6.630778790E0,1.358290076E0,6.922688427E0
1.875015852E0,1.848317385E0,6.190654755E0,9.725736976E-1,6.533481694E0
1.880021269E0,2.213309050E0,5.511042595E0,5.450869203E-1,5.963845000E0
1.885026686E0,2.600460768E0,4.659251213E0,1.674860716E-1,5.338451991E0
1.890032102E0,2.976547003E0,3.630980015E0,-1.598951817E-1,4.697809532E0
1.895037519E0,3.247006178E0,2.465159893E0,-4.607582092E-1,4.102725990E0
1.900042936E0,3.432555199E0,1.219914436E0,-6.969771385E-1,3.708962598E0
1.905048352E0,3.501467466E0,2.973461151E-2,-8.691122532E-1,3.607840722E0
1.910053769E0,3.555845022E0,-9.998941422E-1,-9.441834688E-1,3.812519448E0
1.915059186E0,3.683374166E0,-1.820983887E0,-8.750461340E-1,4.201063354E0
1.920064602E0,3.980906725E0,-2.428649902E0,-7.152827978E-1,4.717794843E0
1.925070019E0,4.444234848E0,-2.899394989E0,-5.660722256E-1,5.336492523E0
1.930075436E0,5.015993118E0,-3.285903931E0,-5.568190813E-1,6.022242032E0
1.935080852E0,5.657070160E0,-3.645964622E0,-6.153650284E-1,6.758267155E0
1.940086269E0,6.413741112E0,-4.032754898E0,-6.359356642E-1,7.602867964E0
1.945091686E0,7.326242447E0,-4.509262085E0,-6.182341576E-1,8.624933995E0
1.950097102E0,8.353211403E0,-5.138404846E0,-6.862672567E-1,9.831088844E0
1.955102519E0,9.405948639E0,-5.978061676E0,-7.534879446E-1,1.117035520E1
1.960107936E0,1.042029285E1,-6.952022552E0,-8.439558744E-1,1.255489475E1
1.965113352E0,1.133311558E1,-7.998342514E0,-9.814513922E-1,1.390597852E1
1.970118769E0,1.204336357E1,-8.964504242E0,-1.094086528E0,1.505330421E1
1.975124186E0,1.268008614E1,-1.006589508E1,-1.210894942E0,1.623493439E1
1.980129602E0,1.314327335E1,-1.113032055E1,-1.284466386E0,1.727077080E1
1.985135019E0,1.336732674E1,-1.216721058E1,-1.334706187E0,1.812478629E1
1.990140436E0,1.337283421E1,-1.321945381E1,-1.428750992E0,1.885810126E1
1.995145852E0,1.329050159E1,-1.431547356E1,-1.537219167E0,1.959421493E1
2.000151269E0,1.310258675E1,-1.547407436E1,-1.520850301E0,2.033316853E1
2.005156686E0,1.281010818E1,-1.668536758E1,-1.418325424E0,2.108345347E1
2.010162102E0,1.237111759E1,-1.782006454E1,-1.459083915E0,2.174231305E1
2.015167519E0,1.177759552E1,-1.864379120E1,-1.275668979E0,2.208913846E1
2.020172936E0,1.106977367E1,-1.913265610E1,-1.098453641E0,2.213153901E1
2.025178352E0,1.026920223E1,-1.922909546E1,-9.132840633E-1,2.181854061E1
2.030183769E0,9.430662155E0,-1.898077011E1,-7.249680758E-1,2.120689985E1
2.035189186E0,8.431192398E0,-1.830179596E1,-5.768288374E-1,2.015870710E1
2.040194602E0,7.539001942E0,-1.732656860E1,-5.171653032E-1,1.890275085E1
2.045200019E0,6.801253796E0,-1.626116562E1,-4.889461994E-1,1.763296994E1
2.050205436E0,6.068745136E0,-1.514432144E1,-5.015919209E-1,1.632273672E1
2.055210852E0,5.259323597E0,-1.410557365E1,-6.169321537E-1,1.506679455E1
2.060216269E0,4.429558754E0,-1.317871284E1,-8.054351807E-1,1.392652824E1
2.065221686E0,3.655167580E0,-1.236876774E1,-1.041987419E0,1.293956735E1
2.070227102E0,2.897051811E0,-1.164260769E1,-1.239072323E0,1.206144781E1
2.075232519E0,2.159588814E0,-1.098126125E1,-1.395627260E0,1.127828436E1
2.080237936E0,1.390151978E0,-1.040379143E1,-1.491792917E0,1.060173781E1
2.085243352E0,5.601878166E-1,-9.895684242E0,-1.517726898E0,1.002705699E1
2.090248769E0,-2.818913460E-1,-9.399197578E0,-1.415738106E0,9.509400204E0
2.095254186E0,-1.101731777E0,-8.923375130E0,-1.257139564E0,9.078592209E0
2.100259602E0,-1.893575907E0,-8.414987564E0,-1.084651589E0,8.693337362E0
2.105265019E0,-2.680267811E0,-7.868681908E0,-9.405816793E-1,8.365684933E0
2.110270436E0,-3.470248461E0,-7.259980202E0,-7.095490694E-1,8.077957464E0
2.115275852E0,-4.267597198E0,-6.550283432E0,-4.445163012E-1,7.830465735E0
2.120281269E0,-5.028803349E0,-5.720291138E0,-1.268793344E-1,7.617525332E0
2.125286686E0,-5.706076622E0,-4.798728943E0,2.185798883E-1,7.458879745E0
2.130292102E0,-6.338035583E0,-3.781058311E0,4.813512564E-1,7.395863441E0
2.135297519E0,-6.891775131E0,-2.667711258E0,7.520142794E-1,7.428241602E0
2.140302936E0,-7.334326744E0,-1.478165627E0,1.183107018E0,7.574764988E0
2.145308352E0,-7.733210087E0,-2.269811630E-1,1.744309545E0,7.930742366E0
2.150313769E0,-8.237078667E0,1.037906647E0,2.161348581E0,8.578935998E0
2.155319186E0,-8.650449753E0,2.292449951E0,2.571551561E0,9.311202132E0
2.160324602E0,-8.935852051E0,3.526940823E0,2.902515888E0,1.003560471E1
2.165330019E0,-9.204103470E0,4.712428093E0,3.087281227E0,1.079137640E1
2.170335436E0,-9.508102417E0,5.839317799E0,3.236015081E0,1.161780692E1
2.175340852E0,-9.695095062E0,6.883836269E0,3.448724508E0,1.238045923E1
2.180346269E0,-9.789400101E0,7.803222179E0,3.643455267E0,1.303830499E1
2.185351686E0,-9.886874199E0,8.659975052E0,3.743132353E0,1.366588779E1
2.190357102E0,-9.887380600E0,9.444655418E0,3.766757011E0,1.418274548E1
2.195362519E0,-9.791002274E0,1.009550095E1,3.690335751E0,1.453965071E1
2.200367936E0,-9.593332291E0,1.061277580E1,3.523478031E0,1.473356481E1
2.205373352E0,-9.385559082E0,1.099663925E1,3.290497303E0,1.482707546E1
2.210378769E0,-9.177487373E0,1.128062534E1,3.106575966E0,1.487042692E1
2.215384186E0,-8.950205803E0,1.150296021E1,2.857439280E0,1.485224685E1
2.220389602E0,-8.722751617E0,1.169715023E1,2.615616083E0,1.482400644E1
2.225395019E0,-8.499959946E0,1.184408951E1,2.328613758E0,1.476327258E1
2.230400436E0,-8.286467552E0,1.190568638E1,2.006319761E0,1.464364134E1
2.235405852E0,-8.072477341E0,1.184877396E1,1.687216878E0,1.443624035E1
2.240411269E0,-7.852955818E0,1.174535275E1,1.352518559E0,1.419336227E1
2.245416686E0,-7.608635426E0,1.157638741E1,1.007588863E0,1.388953972E1
2.250422102E0,-7.358492851E0,1.138972473E1,6.342051625E-1,1.357480986E1
2.255427519E0,-7.045135498E0,1.123303986E1,2.619463205E-1,1.326211652E1
2.260432936E0,-6.701914787E0,1.100105286E1,9.741806984E-2,1.288209284E1
2.265438352E0,-6.338386536E0,1.069379711E1,2.628648281E-2,1.243113557E1
2.270443769E0,-5.897413254E0,1.035904217E1,-2.297985554E-2,1.192014118E1
2.275449186E0,-5.446165562E0,9.987224579E0,1.158845425E-2,1.137565420E1
2.280454602E0,-4.989429474E0,9.602349281E0,9.607315063E-2,1.082167955E1
2.285460019E0,-4.512941360E0,9.266543388E0,2.253100872E-1,1.030952136E1
2.290465436E0,-4.102982044E0,9.065580368E0,2.938940525E-1,9.955178691E0
2.295470852E0,-3.797926664E0,9.065791130E0,3.596647978E-1,9.835759987E0
2.300476269E0,-3.564528942E0,9.213883400E0,4.706525803E-1,9.890552449E0
2.305481686E0,-3.321763277E0,9.399433136E0,6.745606065E-1,9.991921064E0
2.310487102E0,-3.022280693E0,9.536216736E0,9.324937463E-1,1.004704707E1
2.315492519E0,-2.719261408E0,9.571686745E0,1.205253243E0,1.002318338E1
2.320497936E0,-2.403496742E0,9.529909134E0,1.391816735E0,9.926384967E0
2.325503352E0,-2.123069048E0,9.477875710E0,1.549412608E0,9.835559444E0
2.330508769E0,-1.906737328E0,9.415630341E0,1.696745038E0,9.755443899E0
2.335514186E0,-1.773677826E0,9.410118103E0,1.847607374E0,9.752430915E0
2.340519654E0,-1.671413660E0,9.418192863E0,1.953780770E0,9.762849980E0
2.345525123E0,-1.604963064E0,9.415974617E0,2.043180704E0,9.767859121E0
2.350530592E0,-1.579050303E0,9.331943512E0,2.100920677E0,9.694969688E0
2.355536061E0,-1.612593889E0,9.199992180E0,2.087886810E0,9.570767289E0
2.360541529E0,-1.647857666E0,9.034747124E0,1.989674568E0,9.396855610E0
2.365546998E0,-1.717960119E0,8.826871872E0,1.978552222E0,9.207590505E0
2.370552467E0,-1.745893717E0,8.538472176E0,1.958724141E0,8.932538957E0
2.375557936E0,-1.702698708E0,8.136491776E0,1.906030655E0,8.528460246E0
2.380563404E0,-1.712445736E0,7.673952103E0,1.820039034E0,8.070598079E0
2.385568873E0,-1.779476643E0,7.270647526E0,1.724166870E0,7.681250156E0
2.390574342E0,-1.889007092E0,6.936186790E0,1.651424646E0,7.376058456E0
2.395579811E0,-1.930959225E0,6.651330948E0,1.553658724E0,7.098074551E0
2.400585279E0,-1.843300581E0,6.334651470E0,1.340250492E0,6.732149557E0
2.405590748E0,-1.526170492E0,5.914239883E0,9.690085649E-1,6.184367985E0
2.410596217E0,-9.805970192E-1,5.332486153E0,4.315279126E-1,5.439043613E0
2.415601686E0,-2.461848259E-1,4.546040058E0,-2.849628925E-1,4.561610574E0
2.420607154E0,5.223090649E-1,3.487577915E0,-1.026233077E0,3.672759290E0
2.425612623E0,1.189527988E0,2.147250652E0,-1.705089927E0,2.988811446E0
2.430618092E0,1.630422115E0,5.489678383E-1,-2.177513838E0,2.775105129E0
2.435623561E0,1.964451075E0,-1.211433411E0,-2.462591648E0,3.375055045E0
2.440629029E0,2.206745148E0,-3.066477776E0,-2.488917351E0,4.524126399E0
2.445634498E0,2.315714836E0,-4.953217506E0,-2.429916620E0,5.983426581E0
2.450639967E0,2.389387131E0,-6.751046181E0,-2.330065250E0,7.530936161E0
2.455645436E0,2.468791962E0,-8.291626930E0,-2.243104935E0,8.937423043E0
2.460650904E0,2.470902205E0,-9.574169159E0,-2.198197842E0,1.012927177E1
2.465656373E0,2.369985580E0,-1.055986881E1,-2.208897352E0,1.104567284E1
2.470661842E0,2.498139143E0,-1.137281609E1,-2.306981087E0,1.187029092E1
2.475667311E0,3.118488312E0,-1.230003166E1,-2.632517815E0,1.295939421E1
2.480672779E0,4.114754677E0,-1.362851715E1,-2.999744177E0,1.454875084E1
2.485678248E0,5.365073204E0,-1.526750660E1,-3.080890417E0,1.647339230E1
2.490683717E0,6.589945793E0,-1.701644325E1,-2.808860302E0,1.846283897E1
2.495689186E0,7.563493252E0,-1.825913620E1,-2.247812033E0,1.989108202E1
2.500694654E0,8.262175560E0,-1.881028748E1,-1.685061574E0,2.061382770E1
2.505700071E0,8.930756569E0,-1.876196480E1,-1.270674944E0,2.081788536E1
2.510705488E0,1.009311867E1,-1.915320015E1,-8.575407267E-1,2.166682941E1
2.515710904E0,1.140983391E1,-1.968840218E1,-3.723174930E-1,2.275864913E1
2.520716321E0,1.250369263E1,-1.943698692E1,3.188551664E-1,2.311364226E1
2.525721738E0,1.325148773E1,-1.867921257E1,1.114080429E0,2.292937166E1
2.530727154E0,1.345802307E1,-1.737946892E1,2.056821346E0,2.207702061E1
2.535732571E0,1.333129883E1,-1.587912655E1,2.882869005E0,2.093277626E1
2.540737988E0,1.304664993E1,-1.474308300E1,3.583064318E0,2.001029537E1
2.545743404E0,1.274594498E1,-1.436783123E1,4.167908192E0,1.965362934E1
2.550748821E0,1.228972626E1,-1.468532276E1,4.667195797E0,1.970986536E1
2.555754238E0,1.142635536E1,-1.537365913E1,4.939271450E0,1.978149121E1
2.560759654E0,1.014599800E1,-1.612513351E1,4.858239174E0,1.966122311E1
2.565765071E0,8.541475296E0,-1.664608192E1,4.362213135E0,1.921139628E1
2.570770488E0,6.709814072E0,-1.688718796E1,3.486358643E0,1.850279489E1
2.575775904E0,4.828109741E0,-1.686161423E1,2.266961098E0,1.768512908E1
2.580781321E0,3.024660110E0,-1.674032211E1,9.179010391E-1,1.703612325E1
2.585786738E0,1.231411457E0,-1.658386040E1,-4.718455076E-1,1.663620864E1
2.590792154E0,-4.383404255E-1,-1.629970551E1,-1.737198353E0,1.639787791E1
2.595797571E0,-1.929186583E0,-1.588635921E1,-2.923148394E0,1.626785070E1
2.600802988E0,-2.799691200E0,-1.529975986E1,-3.619643211E0,1.596943141E1
2.605808404E0,-3.303919077E0,-1.444896507E1,-4.044226170E0,1.536373126E1
2.610813821E0,-3.410032988E0,-1.317224979E1,-4.128632545E0,1.421907509E1
2.615819238E0,-3.364406824E0,-1.150949860E1,-3.935014248E0,1.262030619E1
2.620824654E0,-3.298820019E0,-9.682478905E0,-3.727443218E0,1.088698508E1
2.625830071E0,-3.196779251E0,-7.750166893E0,-3.602384806E0,9.124782778E0
2.630835488E0,-3.203975677E0,-5.862113953E0,-3.320806026E0,7.460401651E0
2.635840904E0,-3.269362926E0,-4.186441422E0,-2.802271366E0,6.005643224E0
2.640846321E0,-3.375164270E0,-2.713937759E0,-2.225524664E0,4.869307142E0
2.645851738E0,-3.488764286E0,-1.406460762E0,-1.563184023E0,4.073469333E0
2.650857154E0,-3.591920853E0,-1.924705505E-1,-9.308763742E-1,3.715571443E0
2.655862571E0,-3.742797613E0,9.708604813E-1,-3.393881917E-1,3.881531707E0
2.660867988E0,-3.989370823E0,2.131320477E0,2.150792778E-1,4.528119437E0
2.665873404E0,-4.264704704E0,3.255430698E0,7.221418619E-1,5.413596228E0
2.670878821E0,-4.526038647E0,4.314492702E0,1.176336765E0,6.362675640E0
2.675884238E0,-4.778537750E0,5.313297272E0,1.596287727E0,7.322136672E0
2.680889654E0,-5.137034416E0,6.261556625E0,1.971688032E0,8.335692392E0
2.685895071E0,-5.500864506E0,7.130860329E0,2.330317974E0,9.302637325E0
2.690900488E0,-5.831444263E0,7.926424980E0,2.700015545E0,1.020411873E1
2.695905904E0,-6.157043457E0,8.753924370E0,3.007963419E0,1.111702388E1
2.700911321E0,-6.482239723E0,9.637463570E0,3.277180910E0,1.206814197E1
2.705916738E0,-6.773709297E0,1.054357529E1,3.468737125E0,1.300316326E1
2.710922154E0,-7.055480957E0,1.143882942E1,3.587278128E0,1.391025501E1
2.715927571E0,-7.299173832E0,1.227539062E1,3.642420053E0,1.473873731E1
2.720932988E0,-7.490643501E0,1.305333900E1,3.739643097E0,1.550755718E1
2.725938404E0,-7.487139702E0,1.366261292E1,3.816968679E0,1.604037102E1
2.730943821E0,-7.313417435E0,1.398868179E1,3.830876350E0,1.624330344E1
2.735949238E0,-7.094479561E0,1.405108070E1,3.661406994E0,1.616076763E1
2.740954654E0,-6.926261902E0,1.389326859E1,3.260441780E0,1.586273925E1
2.745960071E0,-6.842187881E0,1.354429054E1,2.690433979E0,1.541109264E1
2.750965488E0,-6.794329643E0,1.305695343E1,2.110050678E0,1.486940692E1
2.755970904E0,-6.758841515E0,1.251255512E1,1.558471203E0,1.430646032E1
2.760976321E0,-6.630136490E0,1.193028927E1,1.094455004E0,1.369263830E1
2.765981738E0,-6.513079166E0,1.134367657E1,6.620784402E-1,1.309723429E1
2.770987154E0,-6.411882401E0,1.075281334E1,1.669038534E-1,1.252050668E1
2.775992571E0,-6.387868881E0,1.013403416E1,-3.754602671E-1,1.198517783E1
2.780997988E0,-6.382545948E0,9.459074020E0,-9.305524230E-1,1.144888213E1
2.786003404E0,-6.332652092E0,8.757134438E0,-1.473454237E0,1.090692227E1
2.791008821E0,-6.246707916E0,8.062156677E0,-1.979158640E0,1.038926364E1
2.796014238E0,-6.128701210E0,7.450929642E0,-2.355782032E0,9.931114743E0
2.801019654E0,-5.939739227E0,6.957026958E0,-2.592885971E0,9.508090442E0
2.806025071E0,-5.712995529E0,6.551719666E0,-2.675808430E0,9.095234975E0
2.811030488E0,-5.471974373E0,6.330635071E0,-2.590183496E0,8.759480263E0
2.816035904E0,-5.230628967E0,6.288822174E0,-2.393587828E0,8.522794519E0
2.821041321E0,-4.926506996E0,6.454750061E0,-2.119796038E0,8.392127548E0
2.826046738E0,-4.602638721E0,6.746799946E0,-1.754982114E0,8.353655184E0
2.831052154E0,-4.225696564E0,7.069100857E0,-1.391126513E0,8.352480551E0
2.836057571E0,-3.776903868E0,7.421465874E0,-1.033851385E0,8.391186282E0
2.841062988E0,-3.257297516E0,7.784300327E0,-6.887485981E-1,8.466386084E0
2.846068404E0,-2.716119289E0,8.137878418E0,-3.325645924E-1,8.585625682E0
2.851073821E0,-2.183968782E0,8.467076302E0,5.512237549E-3,8.744205574E0
2.856079238E0,-1.667379618E0,8.819005013E0,2.966513634E-1,8.980145112E0
2.861084654E0,-1.282729626E0,9.164268494E0,5.457435846E-1,9.269684373E0
2.866090071E0,-9.259078503E-1,9.488051414E0,7.959948182E-1,9.566296710E0
2.871095488E0,-5.550251007E-1,9.675271034E0,1.047260761E0,9.747598553E0
2.876100904E0,-1.950175762E-1,9.682858467E0,1.232162952E0,9.762889198E0
2.881106321E0,1.724088192E-1,9.448769569E0,1.388595700E0,9.551814969E0
2.886111738E0,5.228044987E-1,8.978139877E0,1.487165689E0,9.115480349E0
2.891117154E0,8.035049438E-1,8.324045181E0,1.560699105E0,8.507122314E0
2.896122571E0,9.431092739E-1,7.529955864E0,1.575524807E0,7.750610868E0
2.901127988E0,9.901673794E-1,6.596345901E0,1.584098101E0,6.855769649E0
2.906133404E0,1.060101986E0,5.619232178E0,1.548452377E0,5.924296688E0
2.911138821E0,1.186739922E0,4.551030636E0,1.454324722E0,4.922935292E0
2.916144238E0,1.360865355E0,3.401607513E0,1.354344726E0,3.906038636E0
2.921149654E0,1.463144064E0,2.128214836E0,1.262346029E0,2.874648924E0
2.926155071E0,1.388911724E0,8.459630013E-1,1.187429667E0,2.013633132E0
2.931160488E0,1.129609585E0,-2.966480255E-1,1.157820702E0,1.644556670E0
2.936165904E0,7.872409821E-1,-1.294515610E0,1.225550890E0,1.948715990E0
2.941171321E0,4.307122231E-1,-2.156631470E0,1.346867561E0,2.578880483E0
2.946176738E0,8.138132095E-2,-2.920485497E0,1.463854313E0,3.267832294E0
2.951182154E0,-1.867179871E-1,-3.714238167E0,1.523424983E0,4.018862083E0
2.956187571E0,-1.469728947E-1,-4.642049789E0,1.668733954E0,4.935068418E0
2.961192988E0,3.158023357E-1,-5.813107491E0,1.808115721E0,6.096001335E0
2.966198404E0,1.267247200E0,-7.322751999E0,1.826132417E0,7.652670900E0
2.971203821E0,2.546918869E0,-9.156827927E0,1.760637999E0,9.666133641E0
2.976209238E0,4.065756798E0,-1.108165741E1,1.583024025E0,1.190963788E1
2.981214654E0,5.586886406E0,-1.292612457E1,1.289438248E0,1.414074422E1
2.986220123E0,6.903368950E0,-1.473895931E1,8.715232015E-1,1.629886429E1
2.991225592E0,7.876945019E0,-1.651098251E1,2.456467152E-1,1.829533134E1
2.996231061E0,8.442590714E0,-1.794092560E1,-5.417384505E-1,1.983551436E1
3.001236529E0,8.851753235E0,-1.904797363E1,-1.319090724E0,2.104563696E1
3.006241998E0,9.197325706E0,-1.974620438E1,-1.857576370E0,2.186215857E1
3.011247467E0,9.371494293E0,-1.988271713E1,-2.115922928E0,2.208222081E1
3.016252936E0,9.815920830E0,-2.026593399E1,-1.890524745E0,2.259722253E1
3.021258404E0,1.016100883E1,-2.018363953E1,-1.263050795E0,2.263229335E1
3.026263873E0,1.036694050E1,-1.934083748E1,-4.225839376E-1,2.194812126E1
3.031269342E0,1.037941551E1,-1.779664993E1,5.211821795E-1,2.060884873E1
3.036274811E0,1.037306499E1,-1.633204842E1,1.295166254E0,1.939107368E1
3.041280279E0,1.045508766E1,-1.522006321E1,1.909758687E0,1.856357617E1
3.046285748E0,1.057016182E1,-1.442729568E1,2.338299751E0,1.803726219E1
3.051291217E0,1.061591339E1,-1.391059303E1,2.683769226E0,1.770324357E1
3.056296686E0,1.044755268E1,-1.356454945E1,2.838556767E0,1.735528056E1
3.061302154E0,1.015067768E1,-1.334107399E1,2.728878260E0,1.698432481E1
3.066307623E0,9.702075958E0,-1.300053787E1,2.458274841E0,1.640693079E1
3.071313092E0,9.131790161E0,-1.268126488E1,2.011213303E0,1.575592109E1
3.076318561E0,8.470418930E0,-1.238743114E1,1.444748282E0,1.507593264E1
3.081324029E0,7.591097832E0,-1.191295624E1,7.316501737E-1,1.414491444E1
3.086329498E0,6.563499451E0,-1.123379040E1,-1.582671404E-1,1.301163403E1
3.091334967E0,5.404352188E0,-1.040726662E1,-1.072846889E0,1.177578963E1
3.096340436E0,4.110774040E0,-9.332904816E0,-1.865198851E0,1.036728230E1
3.101345904E0,2.889606953E0,-7.910510063E0,-2.551689625E0,8.799836234E0
3.106351373E0,1.755971432E0,-6.279015541E0,-3.211340666E0,7.267886949E0
3.111356842E0,7.296092510E-1,-4.529289246E0,-3.636645794E0,5.854227819E0
3.116362311E0,-1.795434952E-1,-2.732962608E0,-3.826401949E0,4.705600106E0
3.121367779E0,-9.570739269E-1,-9.664306641E-1,-3.889416695E0,4.120381166E0
3.126373248E0,-1.598147631E0,7.562150955E-1,-3.805939198E0,4.196559340E0
3.131378717E0,-2.174962044E0,2.454144001E0,-3.561516762E0,4.841248219E0
3.136384186E0,-2.740489244E0,4.065204620E0,-3.199704170E0,5.854423685E0
3.141389654E0,-3.252028465E0,5.594244480E0,-2.711757898E0,7.016045278E0
3.146395123E0,-3.657639503E0,7.026850700E0,-2.218060017E0,8.226466297E0
3.151400540E0,-3.948706388E0,8.377210617E0,-1.743059635E0,9.423810098E0
3.156405956E0,-4.164685726E0,9.635478020E0,-1.215510488E0,1.056714293E1
3.161411373E0,-4.369077682E0,1.085389805E1,-6.838123798E-1,1.172021937E1
3.166416790E0,-4.505261898E0,1.199878788E1,-2.249673903E-1,1.281869360E1
3.171422206E0,-4.526116848E0,1.298399353E1,2.322109044E-1,1.375222686E1
3.176427623E0,-4.442319393E0,1.378553963E1,6.483009458E-1,1.449812397E1
3.181433040E0,-4.293107986E0,1.445603561E1,1.065328121E0,1.511762765E1
3.186438456E0,-4.155942440E0,1.503845406E1,1.443839431E0,1.566881075E1
3.191443873E0,-4.022037506E0,1.552314663E1,1.792363763E0,1.613559527E1
3.196449290E0,-3.930524349E0,1.588134575E1,2.052142859E0,1.648870689E1
3.201454706E0,-3.853273153E0,1.611310196E1,2.150689363E0,1.670644287E1
3.206460123E0,-3.843318462E0,1.625198746E1,2.173209667E0,1.684105203E1
3.211465540E0,-3.905478001E0,1.631728935E1,2.161752701E0,1.691685151E1
3.216470956E0,-4.034786701E0,1.636657143E1,2.105117083E0,1.698751547E1
3.221476373E0,-4.116198063E0,1.618478775E1,1.955006957E0,1.681405642E1
3.226481790E0,-4.244729996E0,1.590157509E1,1.754800439E0,1.655165090E1
3.231487206E0,-4.434409142E0,1.553623390E1,1.413508773E0,1.621840175E1
3.236492623E0,-4.646650314E0,1.506974983E1,8.795520663E-1,1.579437656E1
3.241498040E0,-4.732347488E0,1.444031620E1,4.132350683E-1,1.520159886E1
3.246503456E0,-4.757801056E0,1.377269554E1,6.912732124E-2,1.457149930E1
3.251508873E0,-4.865909576E0,1.313405037E1,-4.047392607E-1,1.401228636E1
3.256514290E0,-4.917271614E0,1.251498032E1,-1.088352919E0,1.349032262E1
3.261519706E0,-5.011505604E0,1.191578293E1,-1.516295910E0,1.301538415E1
3.266525123E0,-5.118753433E0,1.122212601E1,-1.941250205E0,1.248624047E1
3.271530540E0,-5.195133686E0,1.044407845E1,-2.376798153E0,1.190450999E1
3.276535956E0,-5.177506447E0,9.653924942E0,-2.741150141E0,1.129241975E1
3.281541373E0,-5.036671638E0,9.033674240E0,-2.947879314E0,1.075478144E1
3.286546790E0,-4.767587185E0,8.506788254E0,-3.083096981E0,1.022745428E1
3.291552206E0,-4.432450294E0,8.006299973E0,-3.117665529E0,9.667848427E0
3.296557623E0,-4.021788120E0,7.513094902E0,-3.089508295E0,9.064570381E0
3.301563040E0,-3.617210150E0,6.979288578E0,-3.065537214E0,8.437546843E0
3.306568456E0,-3.152240753E0,6.337828636E0,-2.988577366E0,7.683507549E0
3.311573873E0,-2.617982149E0,5.732069016E0,-2.763722658E0,6.881032529E0
3.316579290E0,-2.148926020E0,5.171270847E0,-2.435266495E0,6.106590547E0
3.321584706E0,-1.631042004E0,4.635884285E0,-1.952069044E0,5.287938603E0
3.326590123E0,-1.103523731E0,4.216328621E0,-1.358945847E0,4.565295771E0
3.331595540E0,-6.529688835E-1,3.960002422E0,-7.386737466E-1,4.080885498E0
3.336600956E0,-2.461884022E-1,3.828236103E0,-1.974791288E-1,3.841223555E0
3.341606373E0,1.931369305E-1,3.710759163E0,1.921876371E-1,3.720748786E0
3.346611790E0,7.170267105E-1,3.545210838E0,3.968394101E-1,3.638698766E0
3.351617206E0,1.362543821E0,3.221337795E0,5.219669342E-1,3.536381249E0
3.356622623E0,2.189925671E0,2.667104721E0,5.539826155E-1,3.495156474E0
3.361628040E0,2.881076813E0,1.767414093E0,5.040050149E-1,3.417364077E0
3.366633456E0,3.524677515E0,5.842132568E-1,1.775254607E-1,3.577173745E0
3.371638873E0,4.214217186E0,-8.206062317E-1,-1.605295837E-1,4.296369494E0
3.376644290E0,4.866718292E0,-2.475922585E0,-4.796428680E-1,5.481349912E0
3.381649706E0,5.304710388E0,-4.113853455E0,-6.582782865E-1,6.745151803E0
3.386655123E0,5.419507027E0,-5.695910454E0,-6.173344254E-1,7.886415796E0
3.391660540E0,5.223424435E0,-7.058984756E0,-4.319728017E-1,8.792043512E0
3.396665956E0,4.653057098E0,-8.078258514E0,-1.123958081E-1,9.323187964E0
3.401671373E0,4.243577003E0,-8.910825729E0,4.127639830E-1,9.878316409E0
3.406676790E0,3.941027641E0,-9.536667824E0,9.647674561E-1,1.036390410E1
3.411682206E0,3.796177149E0,-1.028015518E1,1.421585202E0,1.105049574E1
3.416687623E0,3.648012877E0,-1.099700832E1,1.909667015E0,1.174261547E1
3.421693040E0,3.632808208E0,-1.176275349E1,2.268295050E0,1.251817988E1
3.426698456E0,3.908813715E0,-1.267732143E1,2.821608067E0,1.356299287E1
3.431703873E0,4.269456387E0,-1.338195419E1,3.251200676E0,1.441787993E1
3.436709290E0,4.723437309E0,-1.389622211E1,3.555478573E0,1.510156538E1
3.441714706E0,5.207013130E0,-1.412999535E1,3.809689999E0,1.553330268E1
3.446720123E0,5.608731747E0,-1.405066204E1,4.002820492E0,1.564933058E1
3.451725540E0,6.003434658E0,-1.371662998E1,4.113217831E0,1.552757955E1
3.456730956E0,6.302757263E0,-1.326297188E1,3.971131086E0,1.521187215E1
3.461736373E0,6.356723785E0,-1.263798523E1,3.570786476E0,1.459030925E1
3.466741790E0,6.202513695E0,-1.194773960E1,2.898170948E0,1.377022340E1
3.471747206E0,5.977965355E0,-1.134593487E1,1.974144816E0,1.297549828E1
3.476752623E0,5.629428864E0,-1.080443287E1,9.310294390E-1,1.221855371E1
3.481758040E0,5.022659302E0,-1.022793007E1,-2.178024948E-1,1.139671435E1
3.486763456E0,4.258319378E0,-9.664487839E0,-1.257060051E0,1.063559162E1
3.491768873E0,3.404197216E0,-9.147340775E0,-2.124857664E0,9.988864902E0
3.496774290E0,2.495141268E0,-8.647159576E0,-2.779785156E0,9.419464114E0
3.501779706E0,1.647783041E0,-8.186969757E0,-3.186950445E0,8.938585788E0
3.506785123E0,9.456694126E-1,-7.679527283E0,-3.327193975E0,8.422567879E0
3.511790540E0,4.629230499E-1,-7.123662949E0,-3.297144413E0,7.863334715E0
3.516795956E0,2.682113647E-1,-6.561486244E0,-3.164870501E0,7.289817855E0
3.521801373E0,3.476314545E-1,-6.045160294E0,-2.931543589E0,6.727463000E0
3.526806790E0,5.715851784E-1,-5.565069199E0,-2.622151136E0,6.178380159E0
3.531812206E0,8.387770653E-1,-5.116671562E0,-2.290090561E0,5.668191036E0
3.536817623E0,1.038288593E0,-4.647729874E0,-1.979170203E0,5.157184394E0
3.541823040E0,1.169421196E0,-4.153862953E0,-1.713959575E0,4.643251101E0
3.546828456E0,1.298781872E0,-3.592285156E0,-1.451828361E0,4.086459664E0
3.551833873E0,1.425887585E0,-3.087652206E0,-1.222113490E0,3.613905496E0
3.556839290E0,1.545370579E0,-2.597132683E0,-9.918216467E-1,3.180719821E0
3.561844706E0,1.608784199E0,-2.144914627E0,-7.804020643E-1,2.792467142E0
3.566850123E0,1.596344948E0,-1.702596664E0,-5.547442436E-1,2.398935966E0
3.571855540E0,1.521865845E0,-1.289584160E0,-3.438403606E-1,2.024186046E0
3.576860956E0,1.394360542E0,-8.869934082E-1,-1.431532651E-1,1.658762034E0
3.581866373E0,1.165642738E0,-5.476036072E-1,-5.098329857E-4,1.287863721E0
3.586871790E0,8.403415680E-1,-2.475442886E-1,7.924795151E-2,8.796205793E-1
3.591877206E0,5.092463493E-1,4.662799835E-2,1.250008792E-1,5.264325544E-1
3.596882623E0,3.059654236E-1,3.300180435E-1,1.704636216E-1,4.812323719E-1
3.601888040E0,1.442990303E-1,5.500650406E-1,1.872155815E-1,5.987014556E-1
3.606893508E0,-3.791689873E-2,7.403573990E-1,1.709182560E-1,7.607758012E-1
3.611898977E0,-2.786071301E-1,8.962831497E-1,1.887398958E-1,9.573756659E-1
3.616904446E0,-5.005919933E-1,1.032503605E0,2.499825656E-1,1.174371032E0
3.621909915E0,-6.699304581E-1,1.163611889E0,2.779821157E-1,1.371157724E0
3.626915383E0,-7.910318375E-1,1.308945179E0,2.965918481E-1,1.557894597E0
3.631920852E0,-9.448511600E-1,1.526047707E0,2.771668434E-1,1.816146133E0
3.636926321E0,-1.150306225E0,1.819669724E0,3.012291193E-1,2.173739013E0
3.641931790E0,-1.335734367E0,2.160955906E0,3.590925932E-1,2.565709301E0
3.646937258E0,-1.467831373E0,2.468486786E0,4.077104330E-1,2.900721246E0
3.651942727E0,-1.518171072E0,2.703967094E0,4.183229804E-1,3.129101399E0
3.656948196E0,-1.558874369E0,2.814764977E0,4.199069440E-1,3.244890293E0
3.661953665E0,-1.632893562E0,2.858477116E0,4.076150060E-1,3.317134727E0
3.666959133E0,-1.720521450E0,2.806740761E0,4.579779506E-1,3.323812805E0
3.671964602E0,-1.873914003E0,2.808125496E0,5.275341272E-1,3.416930603E0
3.676970071E0,-1.996865034E0,2.872338772E0,5.587309599E-1,3.542595132E0
3.681975540E0,-2.108211517E0,2.942064762E0,5.515053868E-1,3.661210054E0
3.686981008E0,-2.150542021E0,3.050776005E0,5.252783298E-1,3.769347760E0
3.691986477E0,-2.105278492E0,3.222120762E0,5.709490776E-1,3.891046464E0
3.696991946E0,-1.992282867E0,3.369664192E0,5.973914862E-1,3.959886915E0
3.701997415E0,-1.845765829E0,3.497937202E0,6.045260429E-1,4.000983367E0
3.707002883E0,-1.685399532E0,3.573283195E0,6.303330064E-1,4.000780434E0
3.712008769E0,-1.520975828E0,3.567007065E0,6.696977019E-1,3.935149537E0
3.717014238E0,-1.362086058E0,3.469664574E0,7.175303698E-1,3.795879412E0
3.722019654E0,-1.242024660E0,3.334079742E0,7.495505810E-1,3.636005921E0
3.727025071E0,-1.246439219E0,3.174832821E0,7.320437431E-1,3.488418296E0
3.732030488E0,-1.302902460E0,3.068714619E0,6.505222917E-1,3.396725406E0
3.737035904E0,-1.396611214E0,3.001485348E0,5.671485066E-1,3.358734078E0
3.742041321E0,-1.455667257E0,2.992268085E0,4.868008494E-1,3.362976439E0
3.747046738E0,-1.494594097E0,3.012229443E0,3.809456229E-1,3.384147943E0
3.752052154E0,-1.442081690E0,3.065913677E0,2.883657515E-1,3.400379550E0
3.757057571E0,-1.322525024E0,3.129168034E0,2.241775990E-1,3.404558799E0
3.762062988E0,-1.188825369E0,3.192291737E0,2.081499398E-1,3.412822686E0
3.767068404E0,-1.074683666E0,3.240822315E0,2.694447637E-1,3.424978064E0
3.772073821E0,-9.706854820E-1,3.284273624E0,3.456813693E-1,3.442118411E0
3.777079238E0,-8.148758411E-1,3.260405064E0,4.270952940E-1,3.387724045E0
3.782084654E0,-6.887066364E-1,3.183632374E0,4.415851235E-1,3.287070024E0
3.787090071E0,-6.017694473E-1,3.092271328E0,4.176797271E-1,3.177849082E0
3.792095488E0,-5.873980522E-1,3.024644375E0,3.601050377E-1,3.102125997E0
3.797100904E0,-6.406984329E-1,2.966395855E0,3.260292709E-1,3.052260463E0
3.802106321E0,-5.704629421E-1,2.907885075E0,2.484342158E-1,2.973708650E0
3.807111738E0,-3.867647648E-1,2.810715675E0,2.086680532E-1,2.844864135E0
3.812117154E0,-1.953868866E-1,2.684313774E0,1.495138705E-1,2.695565037E0
3.817122571E0,-8.760404587E-2,2.547670364E0,1.237599850E-1,2.552178538E0
3.822127988E0,-3.455114365E-2,2.391253471E0,1.076000631E-1,2.393922455E0
3.827133404E0,2.142429352E-3,2.243799686E0,1.344389915E-1,2.247824607E0
3.832138821E0,1.301217079E-2,2.090986729E0,1.659223735E-1,2.097599831E0
3.837144238E0,-1.604557037E-3,1.947302341E0,1.492253840E-1,1.953012340E0
3.842149654E0,-4.140853882E-2,1.827191353E0,1.561005414E-1,1.834314664E0
3.847155071E0,-9.153032303E-2,1.702148438E0,1.240838170E-1,1.709117871E0
3.852160488E0,-1.277508736E-1,1.610559464E0,5.803170800E-2,1.616660060E0
3.857165904E0,-1.499967575E-1,1.538076401E0,-8.034741879E-2,1.547460419E0
3.862171321E0,-1.582303047E-1,1.465546608E0,-2.571561933E-1,1.496326501E0
3.867176738E0,-1.716182232E-1,1.369036674E0,-3.621251583E-1,1.426481287E0
3.872182154E0,-2.138342857E-1,1.239106655E0,-3.666091561E-1,1.309775812E0
3.877187571E0,-3.276152611E-1,1.109405041E0,-3.857817054E-1,1.219401012E0
3.882192988E0,-4.408955574E-1,9.609284401E-1,-4.104037881E-1,1.134109179E0
3.887198404E0,-5.245835781E-1,8.369479179E-1,-4.554591775E-1,1.087709892E0
3.892203821E0,-6.788060665E-1,7.902450562E-1,-5.889165998E-1,1.196698661E0
3.897209238E0,-8.599290848E-1,8.400797844E-1,-6.147947311E-1,1.350253545E0
3.902214654E0,-1.034056187E0,9.004349709E-1,-6.484144330E-1,1.516738808E0
3.907220071E0,-1.220104694E0,9.857468605E-1,-7.187869549E-1,1.725400540E0
3.912150383E0,-1.413453341E0,1.110231876E0,-8.495842814E-1,1.988028827E0
3.917086686E0,-1.652500868E0,1.302457809E0,-1.007411957E0,2.332816820E0
3.922031529E0,-1.884666920E0,1.595735550E0,-1.110573769E0,2.707714062E0
3.926986998E0,-2.095641136E0,1.922926426E0,-1.196898103E0,3.085761313E0
3.931954654E0,-2.261430502E0,2.279199600E0,-1.265782356E0,3.451235099E0
3.936935540E0,-2.386891127E0,2.669234276E0,-1.373713732E0,3.835251007E0
3.941930071E0,-2.467228889E0,3.030803204E0,-1.452972651E0,4.169426336E0
3.946938144E0,-2.530996561E0,3.330531120E0,-1.484136105E0,4.438585486E0
3.951959133E0,-2.563897848E0,3.601949692E0,-1.515079856E0,4.673658174E0
3.956991894E0,-2.661676884E0,3.921578884E0,-1.550761580E0,4.986799200E0
3.962034863E0,-2.767133236E0,4.313153267E0,-1.510209680E0,5.342382495E0
3.967086113E0,-2.804157972E0,4.738136292E0,-1.451051354E0,5.693749861E0
3.972143508E0,-2.744465590E0,5.148520947E0,-1.383046150E0,5.996013339E0
3.977204706E0,-2.607718945E0,5.477191925E0,-1.253641963E0,6.194469118E0
3.982267311E0,-2.360944271E0,5.695385933E0,-1.144310236E0,6.270639895E0
3.987307519E0,-2.062487602E0,5.822033882E0,-1.016393185E0,6.259631678E0
3.992312936E0,-1.722725868E0,5.861736298E0,-8.982769847E-1,6.175324962E0
3.997318352E0,-1.356447935E0,5.766636848E0,-7.803102136E-1,5.975193350E0
4.002323769E0,-9.307959080E-1,5.436259270E0,-7.867360115E-1,5.571198203E0
4.007329186E0,-3.699898720E-1,4.746313095E0,-8.742199540E-1,4.840314146E0
4.012334602E0,3.393185139E-1,3.797373295E0,-9.901069999E-1,3.938971041E0
4.017340019E0,1.176759481E0,2.575016975E0,-1.081933260E0,3.030850521E0
4.022345436E0,2.107649326E0,1.036139011E0,-1.173904657E0,2.625608859E0
4.027350852E0,2.982375145E0,-8.002414703E-1,-1.237959504E0,3.326783980E0
4.032356269E0,3.737687588E0,-2.876865387E0,-1.236524820E0,4.876028772E0
4.037361686E0,4.267908096E0,-4.887701035E0,-1.103741288E0,6.582013807E0
4.042367102E0,4.621948242E0,-6.612665176E0,-9.648393393E-1,8.125309916E0
4.047372519E0,4.787821293E0,-7.860100746E0,-8.772027493E-1,9.245209632E0
4.052377936E0,4.816922188E0,-8.648465157E0,-8.350164890E-1,9.934583105E0
4.057383352E0,4.823410988E0,-9.230160713E0,-9.805951118E-1,1.046053188E1
4.062388769E0,4.873209000E0,-9.718606949E0,-1.332023859E0,1.095325406E1
4.067394186E0,4.931352615E0,-9.997590065E0,-1.763765097E0,1.128631530E1
4.072399602E0,5.205419064E0,-1.045368385E1,-2.211483717E0,1.188556073E1
4.077405019E0,5.513478756E0,-1.112458706E1,-2.519095898E0,1.266888825E1
4.082410436E0,5.859914780E0,-1.189509773E1,-2.784181356E0,1.354930320E1
4.087415852E0,6.363026619E0,-1.250698471E1,-2.959230423E0,1.434119308E1
4.092421269E0,7.064102173E0,-1.268817997E1,-2.829258919E0,1.479513962E1
4.097426686E0,7.822302341E0,-1.244461536E1,-2.471674919E0,1.490523540E1
4.102432102E0,8.425024033E0,-1.190699005E1,-1.990302563E0,1.472137040E1
4.107437519E0,9.099665642E0,-1.153154945E1,-1.392915249E0,1.475536379E1
4.112439290E0,9.814970016E0,-1.121461964E1,-7.951799631E-1,1.492426351E1
4.117441061E0,1.044423008E1,-1.086195755E1,-1.056086868E-1,1.506901513E1
4.122443248E0,1.096103573E1,-1.081458378E1,6.295503974E-1,1.541090070E1
4.127445956E0,1.145706749E1,-1.116011810E1,1.369241476E0,1.605264632E1
4.132449290E0,1.148354244E1,-1.149814510E1,2.019607782E0,1.637552758E1
4.137453300E0,1.120112991E1,-1.195414639E1,2.548979759E0,1.657902967E1
4.142458040E0,1.072308159E1,-1.246188736E1,2.978163242E0,1.670785958E1
4.147463508E0,9.866861343E0,-1.279705524E1,3.413832664E0,1.651586598E1
4.152469654E0,8.705365181E0,-1.293101215E1,3.800351381E0,1.604484742E1
4.157476425E0,7.127237797E0,-1.261891079E1,3.933905125E0,1.501699163E1
4.162483769E0,5.302024364E0,-1.206904984E1,3.785988808E0,1.371521555E1
4.167491581E0,3.634145260E0,-1.178071022E1,3.511929750E0,1.281896235E1
4.172499706E0,2.147988796E0,-1.167920399E1,3.090204000E0,1.227057547E1
4.177508040E0,7.517590523E-1,-1.152294540E1,2.761561871E0,1.187306348E1
4.182516477E0,-5.183134079E-1,-1.115713406E1,2.483494759E0,1.144194194E1
4.187524706E0,-1.641194105E0,-1.048488235E1,2.146518230E0,1.082745661E1
4.192530175E0,-2.606098652E0,-9.414617538E0,1.809458852E0,9.934833412E0
4.197535592E0,-3.412908554E0,-8.070713997E0,1.516560316E0,8.892936771E0
4.202541008E0,-4.124466896E0,-6.563564301E0,1.182847738E0,7.841602660E0
4.207546425E0,-4.703930378E0,-4.965719223E0,7.808377743E-1,6.884405278E0
4.212551842E0,-5.109887123E0,-3.431165695E0,3.839686513E-1,6.166950329E0
4.217557258E0,-5.468232632E0,-1.955883980E0,1.135323644E-1,5.808609115E0
4.222562675E0,-5.746511459E0,-5.739603043E-1,-6.228089333E-2,5.775439662E0
4.227568092E0,-5.941276550E0,7.569270134E-1,-1.613621712E-1,5.991472549E0
4.232573508E0,-6.116018295E0,2.050402164E0,-8.757627010E-2,6.451162564E0
4.237578925E0,-6.262441635E0,3.320116997E0,1.443342566E-1,7.089582814E0
4.242584342E0,-6.377043724E0,4.555839539E0,4.904644489E-1,7.852573841E0
4.247589758E0,-6.480062485E0,5.761848450E0,8.300251961E-1,8.710858120E0
4.252595175E0,-6.605810165E0,6.894734859E0,1.166908741E0,9.619551587E0
4.257600592E0,-6.678392410E0,7.959056377E0,1.553008556E0,1.050520534E1
4.262606008E0,-6.688795567E0,8.849516869E0,1.963356495E0,1.126537632E1
4.267611425E0,-6.632583141E0,9.623773575E0,2.329313517E0,1.191779671E1
4.272616842E0,-6.610702515E0,1.028199387E1,2.629896879E0,1.250348524E1
4.277622258E0,-6.623378277E0,1.084832764E1,2.782377958E0,1.301141727E1
4.282627675E0,-6.627746582E0,1.128466511E1,2.872248650E0,1.339852617E1
4.287633092E0,-6.586068153E0,1.163416481E1,2.874398947E0,1.367451110E1
4.292638508E0,-6.436703682E0,1.181074524E1,2.821726322E0,1.374361658E1
4.297643925E0,-6.246609688E0,1.186256409E1,2.738134384E0,1.368349148E1
4.302649342E0,-6.053823948E0,1.178513145E1,2.547351837E0,1.349174226E1
4.307654758E0,-5.948677063E0,1.163143826E1,2.326491833E0,1.326987863E1
4.312656529E0,-5.906399727E0,1.142584610E1,2.042292595E0,1.302330511E1
4.317658300E0,-5.916867256E0,1.122602654E1,1.718791723E0,1.280575007E1
4.322660488E0,-5.855504036E0,1.100804043E1,1.318275571E0,1.253801149E1
4.327663196E0,-5.774904251E0,1.080523491E1,9.185980558E-1,1.228602633E1
4.332666529E0,-5.703886986E0,1.059811783E1,5.457187891E-1,1.204791423E1
4.337670540E0,-5.642521381E0,1.032904625E1,2.108356953E-1,1.177164796E1
4.342675279E0,-5.566826344E0,1.002666569E1,-5.609542131E-2,1.146851024E1
4.347680748E0,-5.486249447E0,9.724506378E0,-2.019295096E-1,1.116717210E1
4.352686894E0,-5.491421700E0,9.513536453E0,-3.412868977E-1,1.098997565E1
4.357693665E0,-5.677678108E0,9.431993484E0,-5.025788546E-1,1.102048616E1
4.362701008E0,-5.733448029E0,9.451216698E0,-6.372695565E-1,1.107267067E1
4.367708821E0,-5.543908119E0,9.480260849E0,-7.111247778E-1,1.100526971E1
4.372716946E0,-5.262328625E0,9.490382195E0,-7.279995084E-1,1.087609489E1
4.377725279E0,-5.008324146E0,9.534217834E0,-6.827517152E-1,1.079123581E1
4.382733717E0,-4.801232815E0,9.640316010E0,-6.185601354E-1,1.078749952E1
4.387741998E0,-4.603099823E0,9.727144241E0,-5.117917061E-1,1.077347640E1
4.392747415E0,-4.381034374E0,9.775363922E0,-4.349547029E-1,1.072102549E1
4.397752831E0,-4.111507416E0,9.756186485E0,-3.596760035E-1,1.059325421E1
4.402758248E0,-3.842965126E0,9.698131561E0,-2.479375005E-1,1.043473094E1
4.407763665E0,-3.580518961E0,9.625022888E0,-7.140296698E-2,1.026967770E1
4.412769081E0,-3.348447323E0,9.555848122E0,9.303814173E-2,1.012595620E1
4.417774498E0,-3.137568712E0,9.500014305E0,2.974696755E-1,1.000915068E1
4.422779915E0,-2.976935625E0,9.409557343E0,5.028887987E-1,9.882044942E0
4.427785331E0,-2.837878704E0,9.241522789E0,7.180135846E-1,9.694062229E0
4.432790748E0,-2.701504230E0,8.962502480E0,9.084012508E-1,9.404773715E0
4.437796165E0,-2.610757589E0,8.658835411E0,1.054315448E0,9.105112132E0
4.442801581E0,-2.532081842E0,8.316267014E0,1.198438525E0,8.775419671E0
4.447806998E0,-2.455549955E0,7.949410439E0,1.259083271E0,8.414757429E0
4.452812415E0,-2.447384357E0,7.553888798E0,1.317517281E0,8.049023416E0
4.457817831E0,-2.501930952E0,7.168436050E0,1.354152441E0,7.712318895E0
4.462823248E0,-2.584742308E0,6.831740379E0,1.388178945E0,7.435093153E0
4.467828665E0,-2.637830496E0,6.548809528E0,1.366938949E0,7.191215339E0
4.472834081E0,-2.651314259E0,6.291038513E0,1.362428069E0,6.961525919E0
4.477839498E0,-2.601110220E0,6.034575462E0,1.322161198E0,6.702983337E0
4.482844915E0,-2.539868116E0,5.765047550E0,1.217849374E0,6.416374397E0
4.487850331E0,-2.414976120E0,5.448940277E0,1.083584905E0,6.057822715E0
4.492855748E0,-2.078651667E0,5.009549141E0,9.102838635E-1,5.499544714E0
4.497861165E0,-1.507903814E0,4.456188202E0,6.652267575E-1,4.751201305E0
4.502866581E0,-8.093924522E-1,3.773994446E0,3.637572825E-1,3.876914956E0
4.507871998E0,-1.090300083E-1,2.981468201E0,5.950593948E-2,2.984054479E0
4.512873769E0,5.199837685E-1,2.092329025E0,-2.374559045E-1,2.169011106E0
4.517875540E0,1.085983276E0,1.144266129E0,-4.980751276E-1,1.654322666E0
4.522877727E0,1.587872028E0,1.606464386E-1,-7.126391530E-1,1.747855663E0
4.527880436E0,1.953388691E0,-8.301687241E-1,-7.947826982E-1,2.266403986E0
4.532883769E0,2.134890079E0,-1.804323196E0,-7.255108356E-1,2.887854536E0
4.537887779E0,2.109659195E0,-2.713588715E0,-5.291636586E-1,3.477677358E0
4.542892519E0,1.846388817E0,-3.456677437E0,-2.541860342E-1,3.927133956E0
4.547897988E0,1.477226734E0,-3.984566689E0,-6.428718567E-3,4.249589609E0
4.552904133E0,1.248871803E0,-4.463528633E0,1.424116492E-1,4.637138096E0
4.557910904E0,1.349742889E0,-5.088623047E0,2.549734712E-1,5.270759134E0
4.562918248E0,1.804268360E0,-5.897406578E0,3.219172955E-1,6.175631094E0
4.567926061E0,2.468253613E0,-6.884969711E0,4.006147385E-1,7.324996655E0
4.572934186E0,3.216272354E0,-7.998859406E0,4.763698876E-1,8.634413003E0
4.577942519E0,3.961380005E0,-9.205796242E0,5.679709315E-1,1.003801808E1
4.582950956E0,4.607628345E0,-1.036228275E1,6.701048613E-1,1.136028976E1
4.587959238E0,5.140969276E0,-1.138697147E1,7.826831341E-1,1.251819785E1
4.592964654E0,5.509231567E0,-1.217948532E1,9.157298803E-1,1.339888265E1
4.597970071E0,5.784554482E0,-1.275922775E1,1.103333831E0,1.405262641E1
4.602975488E0,6.019322395E0,-1.325104141E1,1.245247364E0,1.460729207E1
4.607980904E0,6.298353672E0,-1.380880833E1,1.336663008E0,1.523611218E1
4.612986321E0,6.686876297E0,-1.438059235E1,1.500675440E0,1.593009032E1
4.617991738E0,6.958998680E0,-1.477069283E1,1.697883129E0,1.641596285E1
4.622997154E0,7.573390961E0,-1.554378033E1,1.888662338E0,1.739345862E1
4.628002571E0,8.217839241E0,-1.627396011E1,2.071264267E0,1.834842760E1
4.633007988E0,8.653335571E0,-1.685568619E1,2.243952990E0,1.907956232E1
4.638013404E0,8.914596558E0,-1.722129631E1,2.400028944E0,1.953978550E1
4.643018821E0,9.003366470E0,-1.731246376E1,2.322355747E0,1.965134462E1
4.648024238E0,8.825723648E0,-1.709486961E1,2.148001671E0,1.935825086E1
4.653029654E0,8.411933899E0,-1.667783356E1,1.822156429E0,1.876781868E1
4.658035071E0,7.882371426E0,-1.601789474E1,1.361316681E0,1.790413121E1
4.663040488E0,7.213661671E0,-1.495245647E1,7.639032602E-1,1.661915815E1
4.668045904E0,6.473382950E0,-1.355869484E1,1.161158085E-2,1.502474717E1
4.673051321E0,5.814570427E0,-1.212485409E1,-9.686417580E-1,1.348182416E1
4.678056738E0,5.370509148E0,-1.102051830E1,-2.095074654E0,1.243718336E1
4.683062154E0,5.019978523E0,-1.021338558E1,-3.228695393E0,1.182953521E1
4.688067571E0,4.603435040E0,-9.570549965E0,-4.236576557E0,1.143396789E1
4.693072988E0,4.148462296E0,-8.963615417E0,-5.134738445E0,1.113201148E1
4.698078404E0,3.669079781E0,-8.421566010E0,-5.791144848E0,1.085920251E1
4.703083821E0,3.261279583E0,-8.063699722E0,-6.280241489E0,1.072849621E1
4.708089238E0,2.887243271E0,-7.788965225E0,-6.696285725E0,1.066978892E1
4.713094654E0,2.661908150E0,-7.673525810E0,-6.866192341E0,1.063547604E1
4.718100071E0,2.623266697E0,-7.650111198E0,-6.856966496E0,1.060300519E1
4.723105488E0,2.598632336E0,-7.584715843E0,-6.730988979E0,1.046838178E1
4.728110904E0,2.502098560E0,-7.391122818E0,-6.526636124E0,1.017281538E1
4.733116321E0,2.209772587E0,-7.074036598E0,-6.239387989E0,9.687881665E0
4.738121738E0,1.789452553E0,-6.599795341E0,-5.912918091E0,9.040024300E0
4.743127154E0,1.414104939E0,-6.063901901E0,-5.476419926E0,8.292271959E0
4.748132571E0,1.218474865E0,-5.499532700E0,-4.829609871E0,7.419883585E0
4.753137988E0,1.155247688E0,-4.949445724E0,-4.102663040E0,6.531726741E0
4.758143404E0,1.109847069E0,-4.461305618E0,-3.306578875E0,5.662903159E0
4.763148821E0,1.077393532E0,-3.948989868E0,-2.538879633E0,4.816763186E0
4.768154238E0,1.019301414E0,-3.388762474E0,-1.839468718E0,3.988274269E0
4.773159654E0,9.781861305E-1,-2.780898094E0,-1.185637712E0,3.177417049E0
4.778165071E0,9.197616577E-1,-2.116258621E0,-5.784161091E-1,2.378881513E0
4.783170488E0,8.146419525E-1,-1.409584045E0,6.172657013E-4,1.628056840E0
4.788175904E0,7.007246017E-1,-6.467523575E-1,5.413819551E-1,1.096539101E0
4.793181321E0,5.250964165E-1,1.529474258E-1,1.009791374E0,1.148389211E0
4.798186738E0,2.540140152E-1,9.942374229E-1,1.495670915E0,1.813852987E0
4.803192154E0,-4.110479355E-2,1.872276306E0,1.921187401E0,2.682921765E0
4.808197571E0,-3.795454502E-1,2.801464081E0,2.299864054E0,3.644397126E0
4.813202988E0,-7.039730549E-1,3.738897324E0,2.702265263E0,4.666601419E0
4.818208404E0,-1.033569098E0,4.675303459E0,3.031189442E0,5.666995407E0
4.823213821E0,-1.397041798E0,5.610987663E0,3.290117264E0,6.652802413E0
4.828219238E0,-1.789614677E0,6.546221733E0,3.444448948E0,7.610516949E0
4.833224654E0,-2.254211426E0,7.452561378E0,3.517421722E0,8.543675780E0
4.838230071E0,-2.699862003E0,8.354160309E0,3.498709679E0,9.451043261E0
4.843235488E0,-3.031009674E0,9.179386139E0,3.416497707E0,1.025283405E1
4.848240904E0,-3.305145502E0,9.909221649E0,3.251691580E0,1.094029975E1
4.853246321E0,-3.570062876E0,1.056293774E1,2.975541115E0,1.154014070E1
4.858251738E0,-3.787278414E0,1.113096619E1,2.555406809E0,1.203212325E1
4.863257154E0,-3.956985712E0,1.160354996E1,2.020984888E0,1.242515543E1
4.868262571E0,-4.055744171E0,1.192766285E1,1.350138187E0,1.267048045E1
4.873267988E0,-4.108157158E0,1.212671280E1,5.979381204E-1,1.281763038E1
4.878273404E0,-4.143726826E0,1.217143631E1,-1.516256332E-1,1.285835620E1
4.883278821E0,-4.177608967E0,1.205654621E1,-8.718732595E-1,1.278956161E1
4.888284238E0,-4.200636387E0,1.183445168E1,-1.541403651E0,1.265209539E1
4.893289654E0,-4.131671906E0,1.156242847E1,-2.081415892E0,1.245362425E1
4.898295071E0,-4.080870628E0,1.130259132E1,-2.504479408E0,1.227495388E1
4.903300488E0,-4.119967937E0,1.099751186E1,-2.771215200E0,1.206644259E1
4.908305904E0,-4.253396988E0,1.069519711E1,-2.909700155E0,1.187202519E1
4.913311321E0,-4.446975708E0,1.037206173E1,-2.968010664E0,1.166894789E1
4.918316738E0,-4.613726616E0,1.004764557E1,-2.912680626E0,1.143351928E1
4.923322154E0,-4.719325066E0,9.722367287E0,-2.772803068E0,1.115727976E1
4.928327571E0,-4.782287598E0,9.439592361E0,-2.558372974E0,1.088675576E1
4.933332988E0,-4.849820614E0,9.166091919E0,-2.269853592E0,1.061556576E1
4.938338404E0,-4.940376759E0,8.887844086E0,-1.917809248E0,1.034790256E1
4.943343821E0,-5.053325653E0,8.586050034E0,-1.570365429E0,1.008575247E1
4.948349238E0,-5.140435219E0,8.289640427E0,-1.233175039E0,9.831730942E0
4.953354654E0,-5.163236141E0,8.022684097E0,-8.976205587E-1,9.582702659E0
4.958360071E0,-5.111848831E0,7.804481506E0,-5.165565610E-1,9.343862196E0
4.963365488E0,-5.024232864E0,7.702137947E0,-9.080958366E-2,9.196417303E0
4.968370904E0,-4.880995750E0,7.672652245E0,3.405790925E-1,9.099983852E0
4.973376321E0,-4.706026077E0,7.682561874E0,7.242379189E-1,9.038415733E0
4.978381738E0,-4.504053593E0,7.703228951E0,1.097804427E0,8.990628987E0
4.983387154E0,-4.241865158E0,7.744189262E0,1.436639786E0,8.945938812E0
4.988392571E0,-3.972483873E0,7.814934254E0,1.754387736E0,8.940453112E0
4.993397988E0,-3.744157314E0,7.920122623E0,2.007438421E0,8.987595083E0
4.998403404E0,-3.590677261E0,8.030898094E0,2.171786308E0,9.061177802E0
5.003408821E0,-3.464488506E0,8.190176010E0,2.261734486E0,9.175898134E0
5.008414238E0,-3.236789465E0,8.326000214E0,2.325385094E0,9.230736776E0
5.013419654E0,-2.860265732E0,8.385568619E0,2.382453442E0,9.174691576E0
5.018425071E0,-2.431169987E0,8.359213829E0,2.433238029E0,9.039230645E0
5.023430488E0,-2.026882172E0,8.261076927E0,2.468280792E0,8.856977668E0
5.028435904E0,-1.652677298E0,8.134128571E0,2.482668161E0,8.663661527E0
5.033441373E0,-1.285164833E0,7.973431110E0,2.462075233E0,8.443285307E0
5.038446842E0,-8.292701244E-1,7.764459133E0,2.363683462E0,8.158524013E0
5.043452311E0,-2.619473934E-1,7.463938713E0,2.221304655E0,7.791867037E0
5.048457779E0,2.816486359E-1,7.033252239E0,2.002088070E0,7.318081692E0
5.053463248E0,8.048934937E-1,6.443264961E0,1.749819398E0,6.724982143E0
5.058468717E0,1.263375282E0,5.621810913E0,1.474963427E0,5.947805659E0
5.063474186E0,1.613351583E0,4.473141670E0,1.178181887E0,4.898980740E0
5.068479654E0,1.978884220E0,2.925698757E0,9.363257885E-1,3.654093863E0
5.073485123E0,2.378854513E0,1.051592350E0,8.209820390E-1,2.727417602E0
5.078490592E0,2.683947086E0,-1.014921188E0,8.123934269E-1,2.982217306E0
5.083496061E0,2.727587461E0,-3.029458046E0,9.625580311E-1,4.188540005E0
5.088501529E0,2.468994141E0,-4.795188904E0,1.231970549E0,5.532406359E0
5.093506998E0,1.969291687E0,-6.129281998E0,1.624261022E0,6.639610788E0
5.098512467E0,1.415060997E0,-7.006413460E0,2.109653950E0,7.452708701E0
5.103517936E0,1.007544994E0,-7.597030640E0,2.524432898E0,8.068629556E0
5.108523404E0,1.004217863E0,-8.210343361E0,2.671559334E0,8.692262128E0
5.113528873E0,1.574120760E0,-9.027002335E0,2.627529144E0,9.532498976E0
5.118534342E0,2.653729916E0,-1.002775669E1,2.473449469E0,1.066377696E1
5.123539811E0,4.024504662E0,-1.109393692E1,2.276399612E0,1.201890467E1
5.128545279E0,5.510614872E0,-1.210742092E1,2.151889563E0,1.347542750E1
5.133550748E0,6.869872093E0,-1.299327564E1,2.096661568E0,1.484642530E1
5.138556217E0,8.114730835E0,-1.365729427E1,2.060425282E0,1.601923518E1
5.143561686E0,9.123817444E0,-1.406751823E1,1.959761262E0,1.688134409E1
5.148567154E0,9.962774277E0,-1.429715919E1,1.845763326E0,1.752348352E1
5.153572623E0,1.067346859E1,-1.438086128E1,1.883618951E0,1.800777952E1
5.158578092E0,1.125421715E1,-1.429091454E1,2.059509039E0,1.830653488E1
5.163583561E0,1.166956234E1,-1.408557415E1,2.377070904E0,1.844539375E1
5.168589029E0,1.188433456E1,-1.395181656E1,2.795432329E0,1.853928357E1
5.173594498E0,1.192164135E1,-1.396598625E1,3.340188503E0,1.866363211E1
5.178599967E0,1.190102291E1,-1.418482685E1,3.888245106E0,1.891988660E1
5.183605436E0,1.182277298E1,-1.459312344E1,4.292914391E0,1.926567742E1
5.188610904E0,1.169181728E1,-1.513275909E1,4.465382099E0,1.963768384E1
5.193616373E0,1.142724705E1,-1.565010357E1,4.504217148E0,1.989461457E1
5.198621842E0,1.099691963E1,-1.595321274E1,4.417292595E0,1.987334174E1
5.203627258E0,1.036956596E1,-1.612273026E1,4.251129150E0,1.963523436E1
5.208632675E0,9.595286369E0,-1.625838852E1,3.889895439E0,1.927526924E1
5.213638092E0,8.676660538E0,-1.634023666E1,3.338376522E0,1.879980133E1
5.218643508E0,7.644607544E0,-1.626251984E1,2.716746569E0,1.817389028E1
5.223648925E0,6.592100620E0,-1.601543045E1,1.945153236E0,1.742794951E1
5.228654342E0,5.506201267E0,-1.557041740E1,1.040427685E0,1.654807059E1
5.233659758E0,4.402400017E0,-1.494696522E1,1.064004898E-1,1.558217623E1
5.238665175E0,3.315120697E0,-1.415972137E1,-7.962363958E-1,1.456439930E1
5.243670592E0,2.307062626E0,-1.319937801E1,-1.664873600E0,1.350251540E1
5.248676008E0,1.421194553E0,-1.205195808E1,-2.444736958E0,1.237926599E1
5.253681425E0,7.193741798E-1,-1.078480148E1,-3.100536346E0,1.124467731E1
5.258686842E0,1.101670265E-1,-9.431733131E0,-3.616084814E0,1.010177192E1
5.263692258E0,-2.776317596E-1,-8.102890968E0,-3.942530155E0,9.015401570E0
5.268697675E0,-5.402519703E-1,-6.774358749E0,-4.041106224E0,7.906601556E0
5.273703092E0,-8.459856510E-1,-5.403290749E0,-4.046075344E0,6.803085206E0
5.278708508E0,-1.186316967E0,-4.023574829E0,-4.020332336E0,5.810298998E0
5.283713925E0,-1.437723398E0,-2.625938416E0,-3.864016771E0,4.888069838E0
5.288719342E0,-1.644388676E0,-1.316005707E0,-3.706954241E0,4.263495617E0
5.293724758E0,-1.874065161E0,-1.130847931E-1,-3.554156303E0,4.019569060E0
5.298730175E0,-2.174961090E0,1.040218830E0,-3.396497726E0,4.165177999E0
5.303735592E0,-2.552064419E0,2.091306210E0,-3.234830379E0,4.620684153E0
5.308741008E0,-3.067991734E0,3.169270992E0,-3.051368713E0,5.363553200E0
5.313746425E0,-3.540781498E0,4.178432941E0,-2.663784981E0,6.090335449E0
5.318751842E0,-3.946821213E0,5.190533638E0,-2.369328260E0,6.937777277E0
5.323757258E0,-4.406168938E0,6.100264549E0,-2.083559990E0,7.808250413E0
5.328762675E0,-4.957284927E0,6.902940750E0,-1.851250052E0,8.697838330E0
5.333768092E0,-5.585651875E0,7.641838074E0,-1.678499937E0,9.613249089E0
5.338773508E0,-6.199823380E0,8.355556488E0,-1.594465017E0,1.052594190E1
5.343778925E0,-6.756185532E0,9.025269508E0,-1.646755695E0,1.139356559E1
5.348784342E0,-7.296968460E0,9.608385086E0,-1.729384422E0,1.218842004E1
5.353789758E0,-7.668081284E0,1.003854370E1,-1.741150260E0,1.275160517E1
5.358795175E0,-7.931063175E0,1.036893940E1,-1.729509354E0,1.316844220E1
5.363800592E0,-8.047214508E0,1.057606602E1,-1.713582635E0,1.339952235E1
5.368806008E0,-8.040589333E0,1.068879986E1,-1.674485326E0,1.347981529E1
5.373811425E0,-7.978527546E0,1.075018597E1,-1.717628002E0,1.349717178E1
5.378816842E0,-7.861577988E0,1.077440071E1,-1.757247925E0,1.345288220E1
5.383822258E0,-7.752444267E0,1.075646496E1,-1.841199756E0,1.338625964E1
5.388827675E0,-7.575041771E0,1.073922443E1,-1.940390468E0,1.328447645E1
5.393833092E0,-7.358620644E0,1.066980553E1,-1.991925240E0,1.311342114E1
5.398838508E0,-7.132132530E0,1.054336262E1,-2.081318617E0,1.289812765E1
5.403843925E0,-6.957889080E0,1.042205906E1,-2.193528175E0,1.272175701E1
5.408849342E0,-6.726003647E0,1.025796509E1,-2.284799337E0,1.247739079E1
5.413854758E0,-6.541538239E0,1.007037640E1,-2.335829735E0,1.223357282E1
5.418860175E0,-6.370587349E0,9.821240425E0,-2.370296717E0,1.194401328E1
5.423865592E0,-6.265426636E0,9.592092514E0,-2.417045593E0,1.170922368E1
5.428871008E0,-6.235270500E0,9.469110489E0,-2.475820065E0,1.160484109E1
5.433876425E0,-6.065010071E0,9.413801193E0,-2.531770468E0,1.148102181E1
5.438881842E0,-5.793504715E0,9.392391205E0,-2.565206051E0,1.132969512E1
5.443887258E0,-5.531439304E0,9.366309166E0,-2.609149694E0,1.118625184E1
5.448892675E0,-5.293375969E0,9.345010757E0,-2.624845505E0,1.105616883E1
5.453898092E0,-5.127334118E0,9.314031601E0,-2.554667234E0,1.093467258E1
5.458903508E0,-4.937842846E0,9.287599564E0,-2.403589964E0,1.078976563E1
5.463908925E0,-4.739449978E0,9.241716385E0,-2.172086239E0,1.061082779E1
5.468914342E0,-4.513109207E0,9.166802406E0,-1.875128150E0,1.038819169E1
5.473919758E0,-4.301874638E0,9.062902451E0,-1.532459617E0,1.014843627E1
5.478925175E0,-4.096149921E0,8.891807556E0,-1.197595119E0,9.862906259E0
5.483930592E0,-3.900467396E0,8.706320763E0,-8.997632265E-1,9.582444416E0
5.488936008E0,-3.762480736E0,8.520892143E0,-5.535328388E-1,9.331037606E0
5.493941425E0,-3.686464548E0,8.373984337E0,-2.121801674E-1,9.151975468E0
5.498946842E0,-3.648151398E0,8.313526154E0,8.998328447E-2,9.079197251E0
5.503952258E0,-3.570850849E0,8.301234245E0,3.236467242E-1,9.042467196E0
5.508957675E0,-3.430746555E0,8.303566933E0,5.173335075E-1,8.999271064E0
5.513963092E0,-3.256850004E0,8.263029099E0,7.139537334E-1,8.910356433E0
5.518968508E0,-3.068612814E0,8.193916321E0,8.799734116E-1,8.793804778E0
5.523973925E0,-2.871097326E0,8.077040672E0,1.048781633E0,8.636071375E0
5.528979342E0,-2.669229507E0,7.974601269E0,1.177101493E0,8.491443899E0
5.533984758E0,-2.496720791E0,7.867385387E0,1.255147815E0,8.348937871E0
5.538990175E0,-2.425311804E0,7.698016644E0,1.321034908E0,8.178430829E0
5.543995592E0,-2.416337967E0,7.476274490E0,1.326732159E0,7.968286368E0
5.549001008E0,-2.325906754E0,7.188018799E0,1.301111937E0,7.666182150E0
5.554006425E0,-2.134930611E0,6.890732288E0,1.277940631E0,7.326203139E0
5.559011842E0,-1.900809050E0,6.531843185E0,1.252806425E0,6.917194112E0
5.564017258E0,-1.618744850E0,6.063622952E0,1.244914532E0,6.398255261E0
5.569022675E0,-1.298567057E0,5.490925789E0,1.148714662E0,5.758132318E0
5.574028092E0,-8.835959435E-1,4.818416595E0,9.496448040E-1,4.989960474E0
5.579033508E0,-3.271901608E-1,4.060150623E0,7.100398540E-1,4.134734947E0
5.584038925E0,3.403151035E-1,3.148703575E0,4.637466967E-1,3.200813892E0
5.589044342E0,1.011879206E0,2.097943783E0,8.700457215E-2,2.330844791E0
5.594049758E0,1.595183849E0,8.787779808E-1,-3.668075502E-1,1.857797091E0
5.599055175E0,2.089143038E0,-5.760107040E-1,-8.254581690E-1,2.318984293E0
5.604060592E0,2.483566999E0,-2.242522240E0,-1.164257884E0,3.542951800E0
5.609066008E0,2.683330059E0,-4.005599022E0,-1.321143627E0,4.999050331E0
5.614071425E0,2.609107494E0,-5.582327843E0,-1.296365023E0,6.296855432E0
5.619076842E0,2.269400597E0,-6.785149574E0,-1.233561635E0,7.260172734E0
5.624082258E0,1.912740469E0,-7.799385071E0,-1.246803045E0,8.126715291E0
5.629087675E0,1.987898111E0,-8.958471298E0,-1.306141734E0,9.268870111E0
5.634093092E0,2.673420191E0,-1.041437721E1,-1.363005877E0,1.083809085E1
5.639098508E0,3.671955347E0,-1.201372337E1,-1.273194551E0,1.262671096E1
5.644103977E0,4.584964752E0,-1.372811317E1,-1.050990939E0,1.451163585E1
5.649109446E0,5.167651176E0,-1.550043678E1,-8.301978111E-1,1.636023800E1
5.654114915E0,5.492318153E0,-1.705801773E1,-5.142271519E-1,1.792779845E1
5.659120383E0,5.780401230E0,-1.815692139E1,5.700841546E-2,1.905492279E1
5.664125852E0,6.329952240E0,-1.895512009E1,7.513555288E-1,1.999823512E1
5.669131321E0,7.251122952E0,-1.966342926E1,1.545618534E0,2.101471320E1
5.674136790E0,8.313068390E0,-2.028720284E1,2.361691475E0,2.205119705E1
5.679142258E0,9.217418671E0,-2.047813416E1,3.129634380E0,2.267398061E1
5.684147727E0,9.880228043E0,-2.017564964E1,3.731883526E0,2.277285005E1
5.689153196E0,1.044582176E1,-1.953491783E1,4.095373154E0,2.252776705E1
5.694158665E0,1.107135963E1,-1.888820839E1,4.309869766E0,2.231399556E1
5.699164133E0,1.162173653E1,-1.844775009E1,4.521821499E0,2.226726550E1
5.704169602E0,1.194945908E1,-1.816646957E1,4.689992905E0,2.224424021E1
5.709175071E0,1.198621464E1,-1.805865479E1,4.801275730E0,2.219992348E1
5.714180540E0,1.158463860E1,-1.805181503E1,4.770909309E0,2.197347157E1
5.719186008E0,1.080516624E1,-1.795346069E1,4.490684986E0,2.142999347E1
5.724191477E0,9.766878128E0,-1.767150879E1,3.911434174E0,2.056631830E1
5.729196946E0,8.723773956E0,-1.722854614E1,3.176997423E0,1.957090562E1
5.734202415E0,7.871349335E0,-1.665228271E1,2.150267839E0,1.854401013E1
5.739207883E0,7.131107330E0,-1.587999153E1,6.954582930E-1,1.742155231E1
5.744213352E0,6.342266560E0,-1.489725876E1,-8.528573513E-1,1.621357546E1
5.749218821E0,5.529872417E0,-1.368037510E1,-2.417705059E0,1.495250646E1
5.754224290E0,4.823709011E0,-1.226308537E1,-3.940750599E0,1.375430647E1
5.759229758E0,4.256943703E0,-1.094704056E1,-5.091509342E0,1.280166919E1
5.764235227E0,3.695325613E0,-9.846858025E0,-5.694175720E0,1.195991979E1
5.769240696E0,3.100558281E0,-8.861672401E0,-5.947799206E0,1.111391087E1
5.774246165E0,2.530252695E0,-7.775893211E0,-5.923023224E0,1.009697470E1
5.779251633E0,2.041718006E0,-6.556063652E0,-5.639235973E0,8.885469340E0
5.784257102E0,1.658150673E0,-5.236000061E0,-5.093319416E0,7.490464803E0
5.789262571E0,1.287458897E0,-3.887981415E0,-4.359834671E0,5.981814796E0
5.794268040E0,8.717501163E-1,-2.679632187E0,-3.651748180E0,4.612552623E0
5.799273508E0,4.780192375E-1,-1.668189049E0,-2.971044779E0,3.440706929E0
5.804278977E0,1.011526585E-1,-8.200912476E-1,-2.361743927E0,2.502122277E0
5.809284394E0,-3.166863918E-1,-4.449272156E-2,-1.704810619E0,1.734545797E0
5.814289811E0,-7.992858887E-1,7.399711609E-1,-1.053276896E0,1.515192223E0
5.819295227E0,-1.380213976E0,1.571444035E0,-4.701586664E-1,2.143706170E0
5.824300644E0,-1.910922289E0,2.440356731E0,9.618362784E-2,3.101002461E0
5.829306061E0,-2.377087593E0,3.375388622E0,6.732658148E-1,4.182951187E0
5.834311477E0,-2.769204617E0,4.343039036E0,1.255002499E0,5.301463340E0
5.839316894E0,-3.120949507E0,5.295495033E0,1.849424243E0,6.418953458E0
5.844322311E0,-3.451681376E0,6.223264694E0,2.359434843E0,7.497336897E0
5.849327727E0,-3.847707033E0,7.145559311E0,2.779189587E0,8.578330959E0
5.854333144E0,-4.194216251E0,8.072085381E0,3.059806347E0,9.597521932E0
5.859338561E0,-4.419657230E0,8.950314522E0,3.238896132E0,1.049437698E1
5.864343977E0,-4.538855076E0,9.732466698E0,3.363889694E0,1.125334916E1
5.869349394E0,-4.566658020E0,1.040426636E1,3.305318594E0,1.183335349E1
5.874354811E0,-4.532046318E0,1.091804504E1,3.216102123E0,1.225097809E1
5.879360227E0,-4.488194466E0,1.129306793E1,3.229312181E0,1.257401010E1
5.884365644E0,-4.407305717E0,1.154842186E1,3.209974527E0,1.277083895E1
5.889371061E0,-4.271331787E0,1.169829082E1,3.133569956E0,1.284186685E1
5.894376477E0,-4.229635239E0,1.178064728E1,2.985979557E0,1.286815987E1
5.899381894E0,-4.216072559E0,1.181904316E1,2.782307148E0,1.285325959E1
5.904387311E0,-4.250061512E0,1.177020836E1,2.423386335E0,1.274651439E1
5.909392727E0,-4.350540638E0,1.164366531E1,2.025746107E0,1.259387919E1
5.914398144E0,-4.531165123E0,1.150650406E1,1.586155653E0,1.246783794E1
5.919403561E0,-4.714770317E0,1.133008385E1,1.182596207E0,1.232876283E1
5.924408977E0,-4.857831478E0,1.109538174E1,8.064730167E-1,1.213904532E1
5.929414394E0,-4.964739323E0,1.082644844E1,4.301433563E-1,1.191829038E1
5.934419811E0,-5.125802040E0,1.054261780E1,8.788380027E-2,1.172298427E1
5.939425227E0,-5.316390991E0,1.026801300E1,-2.242513299E-1,1.156487755E1
5.944430644E0,-5.525996208E0,9.988605499E0,-5.536173582E-1,1.142870798E1
5.949436061E0,-5.643695831E0,9.671273232E0,-8.423140049E-1,1.122917279E1
5.954441477E0,-5.711857796E0,9.392884254E0,-1.108800411E0,1.104902857E1
5.959446894E0,-5.796654701E0,9.096339226E0,-1.323716402E0,1.086723599E1
5.964452311E0,-5.878242493E0,8.829779625E0,-1.519991159E0,1.071583483E1
5.969457727E0,-5.946125984E0,8.579214096E0,-1.702033639E0,1.057621138E1
5.974463144E0,-5.942287922E0,8.359240532E0,-1.778420925E0,1.040915314E1
5.979468561E0,-5.904723167E0,8.222577095E0,-1.815844417E0,1.028464004E1
5.984473977E0,-5.795088768E0,8.188291550E0,-1.842543602E0,1.019932053E1
5.989479394E0,-5.594658852E0,8.208304405E0,-1.734167576E0,1.008383886E1
5.994484811E0,-5.404629707E0,8.344443321E0,-1.534050941E0,1.005947657E1
5.999490227E0,-5.101321220E0,8.543682098E0,-1.247659445E0,1.002869065E1
6.004495644E0,-4.733759403E0,8.776832581E0,-8.998265266E-1,1.001253994E1
6.009501061E0,-4.326940060E0,9.009998322E0,-5.107637644E-1,1.000816465E1
6.014506477E0,-3.967704773E0,9.219007492E0,-1.481914222E-1,1.003766611E1
6.019511894E0,-3.675571918E0,9.384608269E0,2.109832168E-1,1.008093325E1
6.024517311E0,-3.474638462E0,9.492415428E0,4.946692288E-1,1.012046248E1
6.029522727E0,-3.269585371E0,9.585398674E0,7.168188095E-1,1.015302346E1
6.034528144E0,-2.993998289E0,9.591656685E0,9.013209343E-1,1.008842322E1
6.039533561E0,-2.715631485E0,9.544534683E0,1.119932652E0,9.986342966E0
6.044538977E0,-2.473353386E0,9.448698997E0,1.286234856E0,9.851385173E0
6.049544394E0,-2.253272772E0,9.327980042E0,1.462220669E0,9.707035548E0
6.054549811E0,-2.041478157E0,9.182310104E0,1.690261722E0,9.557166767E0
6.059555227E0,-1.905098677E0,8.983015060E0,1.855000973E0,9.368297025E0
6.064560644E0,-1.915633917E0,8.711147308E0,1.965412617E0,9.133268171E0
6.069566061E0,-2.019998789E0,8.390848160E0,2.045204163E0,8.869587815E0
6.074571477E0,-2.145671368E0,8.070259094E0,2.137198925E0,8.619779969E0
6.079576894E0,-2.248938560E0,7.773542404E0,2.250734568E0,8.399493571E0
6.084582311E0,-2.358167410E0,7.491246223E0,2.347345352E0,8.196935630E0
6.089587727E0,-2.449053288E0,7.161347866E0,2.369278431E0,7.930715324E0
6.094593144E0,-2.325150967E0,6.683639526E0,2.359315634E0,7.459472810E0
6.099598561E0,-2.005800247E0,5.967501640E0,2.364795208E0,6.725070025E0
6.104603977E0,-1.730452299E0,5.061057091E0,2.289697886E0,5.818202510E0
6.109609394E0,-1.599487543E0,4.108030796E0,2.124285221E0,4.893553425E0
6.114614811E0,-1.335405827E0,3.132339001E0,1.955071568E0,3.926469301E0
6.119620227E0,-8.188731670E-1,2.133941174E0,1.787411690E0,2.901568325E0
6.124625644E0,-1.035299301E-1,1.040835857E0,1.612320662E0,1.921883359E0
6.129631061E0,6.419525146E-1,-2.381095886E-1,1.367935181E0,1.529720846E0
6.134636477E0,1.478240252E0,-1.870573997E0,1.006718397E0,2.587995992E0
6.139641894E0,2.303433657E0,-3.818343163E0,6.100705862E-1,4.500859611E0
6.144647311E0,2.987488747E0,-5.899660110E0,2.641721368E-1,6.618222220E0
6.149652727E0,3.363472939E0,-7.841761589E0,2.689155936E-2,8.532695833E0
6.154658144E0,3.371810913E0,-9.419417381E0,-2.875548601E-2,1.000476684E1
6.159663561E0,3.255783319E0,-1.074188805E1,-1.152405143E-2,1.122445618E1
6.164668977E0,3.349276066E0,-1.206165028E1,-7.360273600E-2,1.251824568E1
6.169674394E0,3.659549713E0,-1.346378517E1,-3.576274514E-1,1.395685182E1
6.174679811E0,4.140186310E0,-1.490451908E1,-7.808035016E-1,1.548855984E1
6.179685227E0,4.801605225E0,-1.634037209E1,-1.011535525E0,1.706125367E1
6.184690644E0,5.543501854E0,-1.780469894E1,-1.030247808E0,1.867616470E1
6.189696061E0,6.279699326E0,-1.907274246E1,-9.603182077E-1,2.010289381E1
6.194701477E0,6.966941833E0,-1.981497192E1,-5.992230773E-1,2.101262618E1
6.199706894E0,7.642508507E0,-1.982215500E1,-3.430426121E-3,2.124442931E1
6.204712311E0,8.233166695E0,-1.922022057E1,5.730078816E-1,2.091722377E1
6.209717727E0,8.778939247E0,-1.836497498E1,1.299852014E0,2.039685504E1
6.214723144E0,9.308884621E0,-1.744467926E1,2.120470047E0,1.988639134E1
6.219728561E0,9.861612320E0,-1.654675674E1,2.953940630E0,1.948774799E1
6.224733977E0,1.041408539E1,-1.583951283E1,3.566698790E0,1.928897823E1
6.229739394E0,1.086745548E1,-1.545730591E1,3.926818371E0,1.929895845E1
6.234744811E0,1.111440086E1,-1.538578796E1,4.098481178E0,1.941777345E1
6.239750227E0,1.113985348E1,-1.545249462E1,4.045335770E0,1.947410247E1
6.244755644E0,1.091070747E1,-1.555193233E1,3.731393814E0,1.936051231E1
6.249761061E0,1.032346916E1,-1.561678219E1,3.154814005E0,1.898448716E1
6.254766477E0,9.295171738E0,-1.561786556E1,2.252893925E0,1.831375094E1
6.259771894E0,8.092982292E0,-1.559765244E1,1.055848002E0,1.760391828E1
6.264777311E0,7.012158394E0,-1.543610001E1,-1.653399765E-1,1.695496641E1
6.269782779E0,6.011824608E0,-1.513794136E1,-1.454194069E0,1.635279744E1
6.274788248E0,5.031786442E0,-1.474606419E1,-2.743693113E0,1.582065535E1
6.279793717E0,3.925877094E0,-1.426476192E1,-3.976239204E0,1.532013126E1
6.284799186E0,2.663006544E0,-1.361191750E1,-5.166834831E0,1.480108388E1
6.289804654E0,1.431712866E0,-1.277718353E1,-6.335788727E0,1.433347270E1
6.294810123E0,4.776439667E-1,-1.190786171E1,-7.335372925E0,1.399403481E1
6.299815592E0,-2.458994389E-1,-1.100280476E1,-8.008630753E0,1.361103764E1
6.304821061E0,-7.908437252E-1,-1.002756596E1,-8.366573334E0,1.308346522E1
6.309826529E0,-1.118741035E0,-8.971992493E0,-8.431302071E0,1.236264880E1
6.314831998E0,-1.273465633E0,-7.850486755E0,-8.221844673E0,1.143899414E1
6.319837467E0,-1.304333210E0,-6.606221199E0,-7.739145279E0,1.025854830E1
6.324842936E0,-1.332868814E0,-5.240260124E0,-7.042887688E0,8.879140298E0
6.329848404E0,-1.413347483E0,-3.878059387E0,-6.145117760E0,7.402659522E0
6.334853873E0,-1.542097330E0,-2.683023453E0,-5.134611130E0,5.995073851E0
6.339859342E0,-1.648344040E0,-1.670030594E0,-4.195858002E0,4.807417667E0
6.344864811E0,-1.814320564E0,-7.008056641E-1,-3.335711956E0,3.861329038E0
6.349870279E0,-1.997737408E0,2.767543793E-1,-2.426786423E0,3.155446098E0
6.354875748E0,-2.204417467E0,1.319435596E0,-1.547214746E0,2.999039869E0
6.359881217E0,-2.502321482E0,2.383595943E0,-7.368517518E-1,3.533566601E0
6.364886686E0,-2.901617527E0,3.440191746E0,2.590328455E-3,4.500478889E0
6.369892154E0,-3.302398682E0,4.474662304E0,6.311475039E-1,5.597033764E0
6.374897623E0,-3.671472549E0,5.534837723E0,1.180851579E0,6.746002501E0
6.379903092E0,-3.942128181E0,6.534666061E0,1.726850510E0,7.824592502E0
6.384908561E0,-4.133314610E0,7.450608730E0,2.248650551E0,8.812053643E0
6.389914029E0,-4.249414444E0,8.273617744E0,2.716123581E0,9.689561445E0
6.394919498E0,-4.314188957E0,8.994596481E0,3.108699322E0,1.044887571E1
6.399924967E0,-4.313514709E0,9.618666649E0,3.434628963E0,1.108701192E1
6.404930436E0,-4.305598259E0,1.016507435E1,3.620967388E0,1.161801694E1
6.409935904E0,-4.238449097E0,1.062434101E1,3.686296940E0,1.201789739E1
6.414941373E0,-4.170284748E0,1.097250271E1,3.649900913E0,1.229263467E1
6.419946842E0,-4.154161453E0,1.120958805E1,3.583898306E0,1.248023432E1
6.424952311E0,-4.171147823E0,1.127345848E1,3.397949457E0,1.249141308E1
6.429957779E0,-4.230877876E0,1.115461636E1,3.055094242E0,1.231500688E1
6.434963196E0,-4.323426247E0,1.088191891E1,2.614557505E0,1.199766996E1
6.439968613E0,-4.333448410E0,1.047950649E1,2.154268265E0,1.154295037E1
6.444974029E0,-4.308012962E0,9.990706444E0,1.714218259E0,1.101416067E1
6.449979446E0,-4.308462620E0,9.525828362E0,1.376682520E0,1.054511787E1
6.454984863E0,-4.386648655E0,9.075447083E0,1.142408848E0,1.014453174E1
6.459990279E0,-4.556069851E0,8.682824135E0,8.777501583E-1,9.844777945E0
6.464995696E0,-4.743820190E0,8.348258018E0,6.213832498E-1,9.622024687E0
6.470001113E0,-4.967942715E0,8.139013290E0,3.211941719E-1,9.540815366E0
6.475006529E0,-5.241611481E0,8.069705963E0,-2.700632811E-2,9.622649042E0
6.480011946E0,-5.491840363E0,8.111932755E0,-3.126532435E-1,9.801097675E0
6.485017363E0,-5.655644417E0,8.270681381E0,-5.353772640E-1,1.003379854E1
6.490022779E0,-5.828419685E0,8.469426155E0,-7.377603054E-1,1.030756740E1
6.495028196E0,-5.871433258E0,8.708120346E0,-9.144649506E-1,1.054235906E1
6.500033613E0,-5.818858147E0,8.943431854E0,-9.882404804E-1,1.071544225E1
6.505039029E0,-5.733779907E0,9.194161415E0,-1.011282921E0,1.088262511E1
6.510044446E0,-5.607302189E0,9.407423973E0,-1.031238675E0,1.100022349E1
6.515049863E0,-5.473485947E0,9.602197647E0,-1.019587994E0,1.109958593E1
6.520055279E0,-5.318254948E0,9.721043587E0,-9.818418026E-1,1.112414210E1
6.525060696E0,-5.103494644E0,9.773588181E0,-9.853983521E-1,1.106976483E1
6.530066113E0,-4.901310921E0,9.759799957E0,-1.044785500E0,1.097124062E1
6.535071529E0,-4.697433472E0,9.708401680E0,-1.073689699E0,1.083843872E1
6.540076946E0,-4.530321121E0,9.633692741E0,-1.110124826E0,1.070346778E1
6.545082363E0,-4.347581387E0,9.540367126E0,-1.139530659E0,1.054602290E1
6.550087779E0,-4.168612480E0,9.447456360E0,-1.151934862E0,1.039031836E1
6.555093196E0,-4.007915020E0,9.335755348E0,-1.142381191E0,1.022373442E1
6.560098613E0,-3.865623713E0,9.243475914E0,-1.110824943E0,1.008061634E1
6.565104029E0,-3.765601635E0,9.137110710E0,-1.023739338E0,9.935521629E0
6.570109446E0,-3.597916603E0,9.083580017E0,-8.861726522E-1,9.810287039E0
6.575114863E0,-3.377060175E0,8.987139702E0,-6.696883440E-1,9.624016725E0
6.580120279E0,-3.170213699E0,8.909963608E0,-4.179559648E-1,9.466382286E0
6.585125696E0,-2.948682070E0,8.842461586E0,-1.936521232E-1,9.323162231E0
6.590131113E0,-2.727034092E0,8.803692818E0,2.655720711E-2,9.216421619E0
6.595136529E0,-2.462664843E0,8.793479919E0,1.705383062E-1,9.133405199E0
6.600141946E0,-2.151343822E0,8.763817787E0,2.999674976E-1,9.028995678E0
6.605147363E0,-1.903484583E0,8.685946465E0,4.191600382E-1,8.901944433E0
6.610152779E0,-1.637941360E0,8.526401520E0,5.086196065E-1,8.697187401E0
6.615158196E0,-1.374006033E0,8.266122818E0,5.493016839E-1,8.397524121E0
6.620163613E0,-1.030758858E0,7.948160648E0,5.461629629E-1,8.033306635E0
6.625169029E0,-6.183507442E-1,7.601124763E0,5.378678441E-1,7.645178685E0
6.630174446E0,-1.470806599E-1,7.186578274E0,5.773952007E-1,7.211236040E0
6.635179863E0,3.726963997E-1,6.584806442E0,5.455899835E-1,6.617873293E0
6.640185279E0,9.735293388E-1,5.747942924E0,5.050030947E-1,5.851635273E0
6.645190696E0,1.549194574E0,4.637734413E0,4.079764187E-1,4.906631133E0
6.650196113E0,2.041668415E0,3.345159531E0,2.740081549E-1,3.928559872E0
6.655201529E0,2.560419559E0,1.846297741E0,1.131089330E-1,3.158695506E0
6.660206946E0,3.086097240E0,1.556682587E-1,9.262439609E-2,3.091408751E0
6.665212363E0,3.532588243E0,-1.621318817E0,1.214005649E-1,3.888777765E0
6.670217779E0,3.761660576E0,-3.388847351E0,3.236530721E-1,5.073374416E0
6.675223196E0,3.631280661E0,-4.897903442E0,7.467176318E-1,6.142739176E0
6.680228613E0,3.015799284E0,-5.999576569E0,1.289708853E0,6.837639450E0
6.685234029E0,2.145015717E0,-6.606778145E0,1.837492704E0,7.185192365E0
6.690239446E0,1.478100061E0,-7.034156799E0,2.155676365E0,7.504071046E0
6.695244863E0,1.514918089E0,-7.768707275E0,2.378296375E0,8.264628437E0
6.700250279E0,2.211369514E0,-8.948672295E0,2.552332163E0,9.564689772E0
6.705255696E0,3.282328844E0,-1.044497967E1,2.705197811E0,1.127782683E1
6.710261113E0,4.466584206E0,-1.206669617E1,2.830919504E0,1.317458296E1
6.715266529E0,5.680981636E0,-1.367073631E1,2.919502020E0,1.508927022E1
6.720271946E0,6.847833157E0,-1.506148911E1,2.962038040E0,1.680818082E1
6.725277363E0,7.951950073E0,-1.628747177E1,2.955113888E0,1.836431171E1
6.730282779E0,9.068979263E0,-1.741150856E1,2.880965710E0,1.984205077E1
6.735288196E0,1.007851982E1,-1.827154541E1,2.822520018E0,2.105688849E1
6.740293613E0,1.093661308E1,-1.876798630E1,2.786097527E0,2.189998070E1
6.745299029E0,1.149365520E1,-1.887800598E1,2.772748709E0,2.227490416E1
6.750304446E0,1.184877682E1,-1.861229706E1,2.811636448E0,2.224222141E1
6.755309863E0,1.208189583E1,-1.823966599E1,2.844570637E0,2.206239344E1
6.760315279E0,1.210107994E1,-1.787538147E1,2.922955513E0,2.178322904E1
6.765320696E0,1.186284924E1,-1.759607315E1,3.030413866E0,2.143670662E1
6.770326113E0,1.141535568E1,-1.742059708E1,3.188487291E0,2.107021592E1
6.775331529E0,1.083112431E1,-1.729108429E1,3.232135773E0,2.065772377E1
6.780336946E0,1.018335438E1,-1.718294525E1,3.202286482E0,2.022891378E1
6.785342363E0,9.483258247E0,-1.705235291E1,3.058473349E0,1.975016926E1
6.790347779E0,8.794706345E0,-1.691769791E1,2.875257254E0,1.928269863E1
6.795353196E0,8.075936317E0,-1.665875244E1,2.559444189E0,1.868918230E1
6.800358613E0,7.361758232E0,-1.626554298E1,2.104829073E0,1.797758822E1
6.805364029E0,6.696220875E0,-1.570448208E1,1.463235974E0,1.713508654E1
6.810369446E0,6.065421104E0,-1.505720425E1,6.599304080E-1,1.624636086E1
6.815374863E0,5.397472382E0,-1.433863735E1,-2.599492073E-1,1.532308072E1
6.820380279E0,4.596962452E0,-1.361621857E1,-1.250618935E0,1.442558559E1
6.825385696E0,3.645742178E0,-1.281830215E1,-2.270601511E0,1.351872543E1
6.830391113E0,2.654799700E0,-1.186843967E1,-3.154017448E0,1.256406176E1
6.835396529E0,1.725647449E0,-1.081915379E1,-3.941038847E0,1.164318406E1
6.840401946E0,8.349852562E-1,-9.660731316E0,-4.610003948E0,1.073680895E1
6.845407363E0,-5.935430527E-2,-8.483654022E0,-5.240859985E0,9.972087138E0
6.850412779E0,-1.105100393E0,-7.335374832E0,-5.808198452E0,9.421472288E0
6.855418196E0,-1.990209103E0,-6.052598953E0,-6.258123875E0,8.930789483E0
6.860423613E0,-2.719161272E0,-4.807206154E0,-6.359482765E0,8.422950200E0
6.865429029E0,-3.239613533E0,-3.627652168E0,-6.418850899E0,8.053359731E0
6.870434446E0,-3.403782845E0,-2.523337364E0,-6.345479965E0,7.630077660E0
6.875439863E0,-3.613921881E0,-1.441462517E0,-6.125611305E0,7.256814688E0
6.880445279E0,-3.808487415E0,-4.778842926E-1,-5.722015858E0,6.890168014E0
6.885450696E0,-3.983667612E0,4.245395660E-1,-5.283959866E0,6.630993391E0
6.890456113E0,-4.135537148E0,1.308557034E0,-4.879197121E0,6.528518481E0
6.895461529E0,-4.317194939E0,2.178753376E0,-4.551831245E0,6.641107295E0
6.900466946E0,-4.528926373E0,2.991931915E0,-4.264661312E0,6.902910023E0
6.905472363E0,-4.804646015E0,3.728792191E0,-3.984948635E0,7.271061144E0
6.910477779E0,-5.073030472E0,4.465702534E0,-3.689007998E0,7.699799822E0
6.915483196E0,-5.358268738E0,5.216871262E0,-3.372251987E0,8.203589037E0
6.920488665E0,-5.713214874E0,5.967791557E0,-3.097130537E0,8.823127441E0
6.925494133E0,-6.152008057E0,6.694580078E0,-2.897508383E0,9.542544754E0
6.930499602E0,-6.588547230E0,7.382864475E0,-2.725313425E0,1.026367262E1
6.935505071E0,-6.998723984E0,8.061454773E0,-2.623359680E0,1.099323458E1
6.940510540E0,-7.363294601E0,8.725630760E0,-2.481071472E0,1.168376888E1
6.945516008E0,-7.672239780E0,9.452113152E0,-2.312888861E0,1.239173762E1
6.950521477E0,-7.815148354E0,1.018358707E1,-2.152750492E0,1.301600262E1
6.955526946E0,-7.705943108E0,1.086746979E1,-1.991299152E0,1.347029068E1
6.960532415E0,-7.335706711E0,1.144623566E1,-1.776146889E0,1.371071119E1
6.965537883E0,-6.868135452E0,1.188617897E1,-1.479061484E0,1.380725020E1
6.970543352E0,-6.414399624E0,1.225874519E1,-1.215570211E0,1.388880726E1
6.975548821E0,-5.999698639E0,1.251088333E1,-9.722844362E-1,1.390913090E1
6.980554290E0,-5.486701965E0,1.259916210E1,-7.885359526E-1,1.376461307E1
6.985559758E0,-4.924970627E0,1.256147099E1,-7.080237865E-1,1.351100243E1
6.990565227E0,-4.406715393E0,1.242624092E1,-6.640494466E-1,1.320119561E1
6.995570696E0,-3.971090317E0,1.228896523E1,-6.470293403E-1,1.293084961E1
7.000576165E0,-3.619035006E0,1.217324734E1,-6.378545165E-1,1.271582571E1
7.005581633E0,-3.413112640E0,1.201676559E1,-7.132846117E-1,1.251242455E1
7.010587102E0,-3.305083990E0,1.177665997E1,-8.391568661E-1,1.226040311E1
7.015592571E0,-3.275115490E0,1.146762466E1,-1.019271016E0,1.196961613E1
7.020598040E0,-3.293818712E0,1.109477615E1,-1.213876486E0,1.163687225E1
7.025603508E0,-3.274487495E0,1.067754841E1,-1.450239420E0,1.126212692E1
7.030608977E0,-3.292975187E0,1.026888466E1,-1.636091709E0,1.090735870E1
7.035614446E0,-3.348459482E0,9.878631592E0,-1.760919333E0,1.057829759E1
7.040619915E0,-3.449238062E0,9.445041656E0,-1.805118799E0,1.021589492E1
7.045625383E0,-3.541236639E0,9.006937981E0,-1.749391079E0,9.834920329E0
7.050630852E0,-3.618228436E0,8.583980560E0,-1.627547503E0,9.456490371E0
7.055636321E0,-3.731644154E0,8.176582336E0,-1.477890968E0,9.108557982E0
7.060641790E0,-3.813599586E0,7.813741684E0,-1.286269903E0,8.789345321E0
7.065647258E0,-3.877372980E0,7.519711494E0,-1.067320943E0,8.527558630E0
7.070652727E0,-3.874355078E0,7.294685841E0,-8.550713658E-1,8.303867522E0
7.075658196E0,-3.780061245E0,7.157926083E0,-5.925859809E-1,8.116398645E0
7.080663665E0,-3.670810699E0,7.075928211E0,-3.189013004E-1,7.977801030E0
7.085669081E0,-3.594421387E0,7.072504520E0,-9.716990590E-2,7.934080116E0
7.090674498E0,-3.402862310E0,7.123509884E0,1.244357824E-1,7.895527166E0
7.095679915E0,-3.001421213E0,7.185509205E0,3.262568116E-1,7.794005090E0
7.100685331E0,-2.515776157E0,7.305892467E0,5.892403722E-1,7.749348272E0
7.105690748E0,-2.124094725E0,7.474608421E0,8.794838190E-1,7.820168875E0
7.110696165E0,-1.817380190E0,7.600481987E0,1.119625330E0,7.894539763E0
7.115701581E0,-1.500616074E0,7.597233772E0,1.289934754E0,7.850715971E0
7.120706998E0,-1.117403507E0,7.493400574E0,1.380435228E0,7.700989818E0
7.125712415E0,-6.831007004E-1,7.307940006E0,1.396073818E0,7.471387810E0
7.130717831E0,-1.942410469E-1,7.064466953E0,1.327922106E0,7.190813587E0
7.135723248E0,2.856416702E-1,6.772207260E0,1.181707382E0,6.880466167E0
7.140728665E0,7.601881027E-1,6.378257275E0,1.006343961E0,6.501752070E0
7.145734081E0,1.218739748E0,5.844142914E0,7.884871960E-1,6.021714459E0
7.150739498E0,1.650750637E0,5.150590897E0,5.435057878E-1,5.435895767E0
7.155744915E0,1.931189060E0,4.235388279E0,2.913440764E-1,4.663998974E0
7.160750331E0,2.136651993E0,3.103531361E0,3.829017282E-3,3.767917635E0
7.165755748E0,2.353448868E0,1.841358185E0,-2.751750052E-1,3.000840353E0
7.170761165E0,2.567717791E0,4.156408310E-1,-4.351569414E-1,2.637289047E0
7.175766581E0,2.674925566E0,-1.091983795E0,-4.712550044E-1,2.927411257E0
7.180771998E0,2.633069038E0,-2.561645508E0,-3.886770308E-1,3.694069586E0
7.185777415E0,2.386712790E0,-3.878090858E0,-1.401698887E-1,4.555835186E0
7.190782831E0,2.081964731E0,-4.983339310E0,2.254084200E-1,5.405465454E0
7.195788248E0,1.850909710E0,-6.029653549E0,6.541575193E-1,6.341175817E0
7.200793665E0,1.805929184E0,-7.111803055E0,1.063720822E0,7.414217753E0
7.205799081E0,2.034294128E0,-8.300841331E0,1.438543320E0,8.666702158E0
7.210804498E0,2.636398554E0,-9.582036018E0,1.753432751E0,1.009160731E1
7.215809915E0,3.582291603E0,-1.099366856E1,1.997538805E0,1.173387075E1
7.220815331E0,4.641113758E0,-1.244968414E1,2.141223431E0,1.345806115E1
7.225820748E0,5.649297714E0,-1.389285374E1,2.207927704E0,1.515918515E1
7.230826165E0,6.520634651E0,-1.524190712E1,2.235931396E0,1.672823356E1
7.235831581E0,7.117093086E0,-1.627199554E1,2.268612862E0,1.790467697E1
7.240836998E0,7.416289330E0,-1.710268784E1,2.264044762E0,1.877842318E1
7.245842415E0,7.534335136E0,-1.772925186E1,2.267827988E0,1.939679410E1
7.250847831E0,7.514765739E0,-1.798456192E1,2.290854454E0,1.962560026E1
7.255853248E0,7.486258507E0,-1.764460945E1,2.381524086E0,1.931444967E1
7.260858665E0,7.394872189E0,-1.684932518E1,2.520083904E0,1.857241817E1
7.265864081E0,7.382905006E0,-1.588185692E1,2.552386284E0,1.769902091E1
7.270869498E0,7.659322262E0,-1.513983727E1,2.520998001E0,1.715328892E1
7.275874915E0,8.164635658E0,-1.465224648E1,2.506342649E0,1.695969798E1
7.280880331E0,8.604356766E0,-1.426171684E1,2.439898491E0,1.683403182E1
7.285885748E0,8.908830643E0,-1.383028793E1,2.339125156E0,1.661672754E1
7.290891165E0,9.080349922E0,-1.337320042E1,2.111907482E0,1.630200593E1
7.295896581E0,9.097999573E0,-1.296765232E1,1.776670098E0,1.594020576E1
7.300901998E0,8.960583687E0,-1.264758492E1,1.399869919E0,1.556319697E1
7.305907415E0,8.620120049E0,-1.247052288E1,9.714303017E-1,1.519092122E1
7.310912831E0,8.034581184E0,-1.239320755E1,4.293903112E-1,1.477600975E1
7.315918248E0,7.435669899E0,-1.243429470E1,-1.053847075E-1,1.448833936E1
7.320923665E0,6.825509548E0,-1.246884441E1,-6.362249851E-1,1.422900010E1
7.325929081E0,6.039050102E0,-1.233367348E1,-1.209330559E0,1.378593878E1
7.330934498E0,5.112470627E0,-1.202824879E1,-1.746749163E0,1.318587340E1
7.335939915E0,4.153861046E0,-1.159488678E1,-2.251849174E0,1.252065437E1
7.340945331E0,3.247342587E0,-1.104700184E1,-2.800121069E0,1.184998572E1
7.345950748E0,2.586275578E0,-1.044597435E1,-3.240963697E0,1.123881876E1
7.350956165E0,2.076245785E0,-9.776728630E0,-3.572409391E0,1.061401565E1
7.355961581E0,1.660633087E0,-9.053085327E0,-3.802695274E0,9.958742267E0
7.360966998E0,1.334741116E0,-8.179148674E0,-3.906836033E0,9.162061704E0
7.365972415E0,1.079340935E0,-7.178791046E0,-3.974577665E0,8.276308679E0
7.370977831E0,8.369526863E-1,-6.147633553E0,-3.943180084E0,7.351364314E0
7.375983248E0,5.691726208E-1,-5.133453369E0,-3.798180342E0,6.411121187E0
7.380988665E0,2.948653698E-1,-4.083666801E0,-3.496809721E0,5.384325246E0
7.385994081E0,2.760410309E-2,-2.941236496E0,-3.121030807E0,4.288644006E0
7.390999498E0,-2.670795918E-1,-1.721054077E0,-2.685711861E0,3.201000913E0
7.396004915E0,-6.474776268E-1,-4.571237564E-1,-2.310848951E0,2.442992485E0
7.401010331E0,-1.109623432E0,7.783308029E-1,-1.924874544E0,2.354188822E0
7.406015748E0,-1.558455706E0,1.884565353E0,-1.494655490E0,2.866071491E0
7.411021165E0,-1.975411415E0,2.918827057E0,-1.054122567E0,3.678719347E0
7.416026581E0,-2.404087067E0,3.900046349E0,-6.134107113E-1,4.622366152E0
7.421031998E0,-2.902337551E0,4.885399818E0,-2.066805363E-1,5.686247576E0
7.426037415E0,-3.398816586E0,5.836348534E0,2.369140983E-1,6.758035712E0
7.431042831E0,-3.888933897E0,6.738432407E0,6.106899381E-1,7.804051535E0
7.436048248E0,-4.339280605E0,7.596410275E0,9.419194460E-1,8.798978206E0
7.441053665E0,-4.798201561E0,8.438815117E0,1.214935780E0,9.783271832E0
7.446059081E0,-5.055885315E0,9.212810516E0,1.490483522E0,1.061411301E1
7.451064498E0,-5.094347954E0,9.922950745E0,1.757521272E0,1.129186493E1
7.456069915E0,-4.981585503E0,1.047821045E1,1.975949883E0,1.176917441E1
7.461075331E0,-4.842634201E0,1.087388134E1,2.139053106E0,1.209412872E1
7.466080748E0,-4.701599121E0,1.111495209E1,2.178255081E0,1.226344117E1
7.471086165E0,-4.582625389E0,1.127810192E1,2.106672049E0,1.235451762E1
7.476091581E0,-4.476335526E0,1.132988644E1,1.923269391E0,1.233299929E1
7.481096998E0,-4.388194561E0,1.135146332E1,1.612432837E0,1.227647794E1
7.486102415E0,-4.323596001E0,1.131864834E1,1.083007574E0,1.216462856E1
7.491107831E0,-4.301703453E0,1.120744133E1,4.654136896E-1,1.201365905E1
7.496113248E0,-4.279372692E0,1.096044064E1,-2.377446890E-1,1.176863680E1
7.501118665E0,-4.265937805E0,1.061128998E1,-8.844097257E-1,1.147082739E1
7.506124081E0,-4.275494576E0,1.024627399E1,-1.471346617E0,1.119959131E1
7.511129498E0,-4.317461967E0,9.946811676E0,-1.957578421E0,1.101869564E1
7.516134915E0,-4.386468410E0,9.703552246E0,-2.383997202E0,1.091253747E1
7.521140331E0,-4.443298340E0,9.507319450E0,-2.701179266E0,1.083643819E1
7.526145748E0,-4.549113274E0,9.339399338E0,-2.937168837E0,1.079563673E1
7.531151165E0,-4.688416481E0,9.252867699E0,-3.144160986E0,1.083893713E1
7.536156581E0,-4.912752151E0,9.185935974E0,-3.326482534E0,1.093535731E1
7.541161998E0,-5.034583092E0,9.081647873E0,-3.431055069E0,1.093597247E1
7.546167415E0,-5.048529625E0,8.969135284E0,-3.457483768E0,1.085758873E1
7.551172831E0,-5.035564899E0,8.848710060E0,-3.429188728E0,1.074318011E1
7.556178248E0,-5.014352798E0,8.768510818E0,-3.350460291E0,1.064218493E1
7.561183665E0,-4.946419716E0,8.728621483E0,-3.197468042E0,1.052994316E1
7.566189081E0,-4.850690842E0,8.776936531E0,-2.960776806E0,1.045609945E1
7.571194498E0,-4.669932365E0,8.836755753E0,-2.660021305E0,1.034273822E1
7.576199915E0,-4.452214241E0,8.965311050E0,-2.305693388E0,1.027206094E1
7.581205331E0,-4.174228668E0,9.128684044E0,-1.932756543E0,1.022216245E1
7.586210748E0,-3.932477713E0,9.340741158E0,-1.595276833E0,1.025956795E1
7.591216165E0,-3.646581411E0,9.524436951E0,-1.251321197E0,1.027512822E1
7.596221581E0,-3.374870300E0,9.617245674E0,-9.208433032E-1,1.023372446E1
7.601226998E0,-3.132506371E0,9.618939400E0,-6.331169009E-1,1.013594733E1
7.606232415E0,-2.948546886E0,9.553368568E0,-4.029889405E-1,1.000615710E1
7.611237831E0,-2.832832336E0,9.482652664E0,-2.545731664E-1,9.900022631E0
7.616243248E0,-2.699386120E0,9.401950836E0,-1.209848523E-1,9.782535575E0
7.621248665E0,-2.558152676E0,9.296814919E0,4.550486803E-2,9.642457334E0
7.626254133E0,-2.438114643E0,9.157617569E0,1.729386449E-1,9.478199741E0
7.631259602E0,-2.306087971E0,9.027351379E0,2.469629645E-1,9.320520659E0
7.636265071E0,-2.181424379E0,8.843770027E0,2.722615004E-1,9.112903321E0
7.641270540E0,-2.102318287E0,8.626103401E0,3.015378118E-1,8.883711337E0
7.646276008E0,-2.073367357E0,8.369651794E0,3.537661433E-1,8.629894196E0
7.651281477E0,-2.046370506E0,8.122383118E0,4.096538424E-1,8.386212258E0
7.656286946E0,-2.035266399E0,7.879631996E0,4.547307491E-1,8.150931834E0
7.661292415E0,-1.991765738E0,7.641530037E0,4.745760560E-1,7.911089337E0
7.666297883E0,-1.867809772E0,7.384246826E0,5.074469447E-1,7.633696152E0
7.671303352E0,-1.663452625E0,7.122152805E0,5.196301937E-1,7.332267777E0
7.676308821E0,-1.355058670E0,6.769101143E0,4.917765260E-1,6.920892893E0
7.681314290E0,-9.956722260E-1,6.296403408E0,4.477024674E-1,6.390344009E0
7.686319758E0,-6.433558464E-1,5.718360901E0,3.300459981E-1,5.763895254E0
7.691325227E0,-3.992149830E-1,5.097076416E0,7.699239254E-2,5.113265925E0
7.696330696E0,-1.537871361E-1,4.403751373E0,-2.195897400E-1,4.411903931E0
7.701336165E0,2.501161098E-1,3.604846001E0,-5.445045829E-1,3.654306774E0
7.706341633E0,7.640202045E-1,2.671716690E0,-8.057520390E-1,2.893273802E0
7.711347102E0,1.210438967E0,1.537480354E0,-9.500147104E-1,2.175209480E0
7.716352571E0,1.522532940E0,1.976070404E-1,-9.292172790E-1,1.794602978E0
7.721358040E0,1.562310934E0,-1.175342560E0,-7.769510150E-1,2.103781944E0
7.726363508E0,1.422315836E0,-2.399213791E0,-5.223406553E-1,2.837613242E0
7.731368977E0,1.171965837E0,-3.411315918E0,-2.518596649E-1,3.615800535E0
7.736374446E0,9.143717289E-1,-4.163240433E0,-4.092216492E-3,4.262471502E0
7.741379915E0,8.721089363E-1,-4.888768196E0,1.774834394E-1,4.969117512E0
7.746385383E0,1.223202229E0,-5.874403000E0,2.684673071E-1,6.006405663E0
7.751390852E0,1.990992069E0,-7.268101692E0,2.826990485E-1,7.541171685E0
7.756396321E0,3.006149530E0,-8.864225388E0,2.579139471E-1,9.363650267E0
7.761401790E0,3.970386267E0,-1.044303894E1,3.327593803E-1,1.117728761E1
7.766407258E0,4.839592457E0,-1.193317986E1,3.977079391E-1,1.288334616E1
7.771412727E0,5.627903938E0,-1.333477020E1,4.398988485E-1,1.448043197E1
7.776418196E0,6.426357269E0,-1.470519257E1,3.508924246E-1,1.605191209E1
7.781423613E0,7.306797504E0,-1.593911266E1,2.236505747E-1,1.753552457E1
7.786429029E0,8.269018173E0,-1.697924042E1,1.561500430E-1,1.888638794E1
7.791434446E0,9.111293793E0,-1.773998642E1,2.118199468E-1,1.994411343E1
7.796439863E0,9.684712410E0,-1.826029587E1,3.673999906E-1,2.067285763E1
7.801445279E0,9.917201996E0,-1.856952286E1,6.229259372E-1,2.106100927E1
7.806450696E0,9.832650185E0,-1.859175682E1,9.871882200E-1,2.105490375E1
7.811456113E0,9.790190697E0,-1.847580147E1,1.382100582E0,2.095502984E1
7.816461529E0,9.913450241E0,-1.834662628E1,1.804941893E0,2.093162695E1
7.821466946E0,9.880550385E0,-1.801833725E1,2.367409468E0,2.068551137E1
7.826472363E0,9.704936981E0,-1.740555763E1,2.937082052E0,2.014362652E1
7.831477779E0,9.424699783E0,-1.680048180E1,3.357492685E0,1.955387204E1
7.836483196E0,9.035474777E0,-1.625550652E1,3.635183096E0,1.894982461E1
7.841488613E0,8.537338257E0,-1.572739220E1,3.757725716E0,1.828544537E1
7.846494029E0,7.934373856E0,-1.512063026E1,3.665248632E0,1.746487319E1
7.851499446E0,7.297419548E0,-1.447865486E1,3.380097151E0,1.656227144E1
7.856504863E0,6.635003567E0,-1.403147411E1,2.767457724E0,1.576592403E1
7.861510279E0,5.879700661E0,-1.390830898E1,1.876589298E0,1.521622575E1
7.866515696E0,5.228320122E0,-1.395572662E1,8.501724601E-1,1.492717087E1
7.871521113E0,4.658102989E0,-1.411109447E1,-6.831347942E-2,1.486020112E1
7.876526529E0,3.936291218E0,-1.431162643E1,-8.762205839E-1,1.486892068E1
7.881531946E0,3.079916716E0,-1.446071053E1,-1.432421446E0,1.485428783E1
7.886537363E0,2.149621010E0,-1.431321716E1,-1.863620877E0,1.459322236E1
7.891542779E0,1.277794361E0,-1.374850559E1,-2.230941057E0,1.398682460E1
7.896548196E0,6.391315460E-1,-1.289012814E1,-2.384943485E0,1.312447515E1
7.901553613E0,2.491531372E-1,-1.187150288E1,-2.430365801E0,1.212028613E1
7.906559029E0,-1.117563248E-1,-1.066841507E1,-2.390780449E0,1.093359048E1
7.911564446E0,-4.248907566E-1,-9.352864265E0,-2.309946299E0,9.643259512E0
7.916569863E0,-6.429860592E-1,-8.006410599E0,-2.221331120E0,8.333687881E0
7.921575279E0,-6.994860172E-1,-6.710427284E0,-2.038525105E0,7.048028067E0
7.926580696E0,-6.907360554E-1,-5.512862206E0,-1.881413698E0,5.865874487E0
7.931586113E0,-6.748020649E-1,-4.404299736E0,-1.697824121E0,4.768209385E0
7.936591529E0,-5.904476643E-1,-3.313316345E0,-1.482970238E0,3.677756704E0
7.941596946E0,-5.153567791E-1,-2.202134132E0,-1.208084822E0,2.564070257E0
7.946602363E0,-4.698221684E-1,-1.066555023E0,-9.451946020E-1,1.500555005E0
7.951607779E0,-5.698039532E-1,3.540611267E-2,-6.756575108E-1,8.845582003E-1
7.956613196E0,-7.828245163E-1,1.108025551E0,-4.426484406E-1,1.427050275E0
7.961618613E0,-1.080922365E0,2.146150112E0,-2.463724464E-1,2.415585404E0
7.966624029E0,-1.345186472E0,3.154265881E0,-7.255321741E-2,3.429895605E0
7.971629446E0,-1.595377445E0,4.146498203E0,9.307494760E-2,4.443797868E0
7.976634863E0,-1.913419247E0,5.070007324E0,2.265640497E-1,5.423788229E0
7.981640279E0,-2.347458124E0,5.876871109E0,2.748737633E-1,6.334329425E0
7.986645696E0,-2.811226368E0,6.552908421E0,2.857512534E-1,7.136193400E0
7.991651113E0,-3.256764412E0,7.117438316E0,2.682337463E-1,7.831755357E0
7.996656529E0,-3.717567682E0,7.584940434E0,2.458361983E-1,8.450566034E0
8.001661946E0,-4.145815849E0,8.008129120E0,1.800467670E-1,9.019442216E0
8.006667363E0,-4.484102726E0,8.367959976E0,1.521234512E-1,9.494897207E0
8.011672779E0,-4.751515865E0,8.678927422E0,1.762861311E-1,9.896047747E0
8.016678196E0,-4.976433277E0,8.946043015E0,2.092853189E-1,1.023915886E1
8.021683613E0,-5.167923927E0,9.160006523E0,1.790072620E-1,1.051880225E1
8.026689029E0,-5.354065895E0,9.388092995E0,1.425794363E-1,1.080845228E1
8.031694446E0,-5.558254242E0,9.635248184E0,1.137786806E-1,1.112407944E1
8.036699863E0,-5.756209373E0,9.887205124E0,1.351431906E-1,1.144154864E1
8.041705279E0,-5.909576416E0,1.016787624E1,1.391807497E-1,1.176129976E1
8.046710696E0,-5.956573486E0,1.040531063E1,8.235672116E-2,1.198991408E1
8.051716113E0,-5.845273972E0,1.054669571E1,-2.605402470E-2,1.205822114E1
8.056721529E0,-5.624427319E0,1.054880619E1,-2.241061330E-1,1.195666000E1
8.061726946E0,-5.447988033E0,1.044498444E1,-4.731112421E-1,1.178991551E1
8.066732363E0,-5.311715603E0,1.027338791E1,-6.675133109E-1,1.158457577E1
8.071737779E0,-5.129556656E0,1.004843235E1,-8.355399370E-1,1.131288960E1
8.076743196E0,-4.958763123E0,9.880298615E0,-1.000317454E0,1.110001205E1
8.081748613E0,-4.789493084E0,9.740386009E0,-1.127346754E0,1.091261996E1
8.086754029E0,-4.678995609E0,9.643120766E0,-1.244534731E0,1.079034961E1
8.091759446E0,-4.588738918E0,9.555095673E0,-1.360931873E0,1.068683834E1
8.096764863E0,-4.513710976E0,9.519451141E0,-1.418875098E0,1.063046299E1
8.101770279E0,-4.425113201E0,9.526602745E0,-1.509292722E0,1.061205688E1
8.106775696E0,-4.327677250E0,9.566993713E0,-1.579252005E0,1.061838952E1
8.111782258E0,-4.216770172E0,9.611886024E0,-1.623606682E0,1.062099818E1
8.116787258E0,-4.101896763E0,9.613518715E0,-1.642117500E0,1.058025751E1
8.121792258E0,-3.973309278E0,9.643777847E0,-1.639504075E0,1.055829586E1
8.126797258E0,-3.864376545E0,9.654837608E0,-1.601747751E0,1.052211439E1
8.131802258E0,-3.784518480E0,9.646781921E0,-1.586260557E0,1.048328213E1
8.136807311E0,-3.647349119E0,9.653219223E0,-1.578705549E0,1.043935382E1
8.141812415E0,-3.452726841E0,9.616836548E0,-1.521657228E0,1.033055219E1
8.146817571E0,-3.281560421E0,9.571349144E0,-1.472547054E0,1.022485981E1
8.151822779E0,-3.128722668E0,9.507328033E0,-1.354856968E0,1.010018957E1
8.156828092E0,-3.027264118E0,9.439302444E0,-1.259529710E0,9.992555918E0
8.161833508E0,-2.957753181E0,9.381688118E0,-1.162873268E0,9.905384902E0
8.166839029E0,-2.934268236E0,9.320202827E0,-1.084101915E0,9.831143768E0
8.171844602E0,-2.947023392E0,9.211868286E0,-9.944756031E-1,9.722779742E0
8.176850227E0,-2.890902996E0,9.123633385E0,-9.275267124E-1,9.615524534E0
8.181855904E0,-2.819083214E0,9.012272835E0,-9.116748571E-1,9.486803617E0
8.186861633E0,-2.756169319E0,8.901517868E0,-8.460758328E-1,9.356780108E0
8.191867415E0,-2.716920853E0,8.776869774E0,-7.402707338E-1,9.217543203E0
8.196873196E0,-2.605958939E0,8.623859406E0,-6.280457973E-1,9.030859016E0
8.201878977E0,-2.433137894E0,8.437635422E0,-5.144740343E-1,8.796506980E0
8.206884758E0,-2.198858261E0,8.227643967E0,-3.951606750E-1,8.525564782E0
8.211890383E0,-1.951463461E0,8.041543961E0,-2.943797112E-1,8.280175018E0
8.216895800E0,-1.648518085E0,7.802519798E0,-2.365446091E-1,7.978275530E0
8.221901217E0,-1.223776102E0,7.462558746E0,-2.076253295E-1,7.565085543E0
8.226906633E0,-7.357649803E-1,6.968806744E0,-2.796376944E-1,7.013117337E0
8.231912050E0,-2.095308304E-1,6.306738853E0,-3.903380036E-1,6.322279802E0
8.236917467E0,2.866585255E-1,5.514370918E0,-5.350209475E-1,5.547675833E0
8.241922883E0,7.134802341E-1,4.629743576E0,-6.943832636E-1,4.735583147E0
8.246928300E0,1.122726679E0,3.662223816E0,-8.824692369E-1,3.930795139E0
8.251933717E0,1.504508734E0,2.688326359E0,-1.069940090E0,3.261198696E0
8.256939133E0,1.787132263E0,1.698529720E0,-1.222316504E0,2.751890727E0
8.261944550E0,1.947247982E0,6.930065155E-1,-1.276605129E0,2.429352463E0
8.266949967E0,1.986066818E0,-3.135480881E-1,-1.251611829E0,2.368397344E0
8.271955383E0,1.862337589E0,-1.320607185E0,-1.099405408E0,2.533968604E0
8.276960800E0,1.554494858E0,-2.284421921E0,-8.777959943E-1,2.899235000E0
8.281966217E0,1.222884655E0,-3.151659966E0,-5.827397704E-1,3.430450853E0
8.286971633E0,1.032554865E0,-4.002840996E0,-2.388328910E-1,4.140766443E0
8.291977050E0,1.028704166E0,-4.923142433E0,1.627569795E-1,5.032102296E0
8.296982467E0,1.146174431E0,-5.882927895E0,5.065110326E-1,6.014907303E0
8.301987883E0,1.410013437E0,-6.857640266E0,7.777128816E-1,7.044161074E0
8.306993300E0,1.786763430E0,-7.837483406E0,9.767673612E-1,8.097699931E0
