"Time (s)","Linear Acceleration x (m/s^2)","Linear Acceleration y (m/s^2)","Linear Acceleration z (m/s^2)","Absolute acceleration (m/s^2)"
2.107657000E-2,0.000000000E0,0.000000000E0,0.000000000E0,0.000000000E0
2.607672600E-2,3.207969666E-2,1.068120003E-1,-5.595207214E-2,1.247739745E-1
3.107724700E-2,5.627679825E-2,3.340430260E-1,-1.427469254E-1,3.675982942E-1
3.607828900E-2,9.017705917E-2,5.205674171E-1,-2.283592224E-1,5.755608328E-1
4.108000700E-2,1.784887314E-1,6.473207474E-1,-3.190002441E-1,7.433999818E-1
4.608250700E-2,1.737680435E-1,8.051242828E-1,-3.950500488E-1,9.135014969E-1
5.108584100E-2,8.640050888E-2,9.245495796E-1,-4.751815796E-1,1.043098512E0
5.609005900E-2,1.676692963E-1,9.255042076E-1,-5.682525635E-1,1.098900363E0
6.109516400E-2,3.272686005E-1,8.553142548E-1,-6.357460022E-1,1.114827426E0
6.610110100E-2,5.131554604E-1,7.076010704E-1,-4.468994141E-1,9.817061106E-1
7.110782000E-2,7.239630222E-1,5.625205040E-1,-4.563331604E-3,9.168274641E-1
7.611521600E-2,1.011991739E0,3.675942421E-1,5.229072571E-1,1.196948122E0
8.112318400E-2,1.324057341E0,1.185173988E-1,8.864459991E-1,1.597798712E0
8.613157000E-2,1.631640673E0,-1.447572708E-1,1.165156364E0,2.010172954E0
9.114021600E-2,1.906700611E0,-3.801722527E-1,1.510697365E0,2.462162604E0
9.614901800E-2,2.127864361E0,-6.193766594E-1,1.989738464E0,2.978337345E0
1.011578200E-1,2.280111074E0,-8.420939445E-1,2.395828247E0,3.412919822E0
1.061629240E-1,2.284116268E0,-1.142110109E0,2.640632629E0,3.673491978E0
1.111680280E-1,2.120614767E0,-1.413879156E0,2.665147781E0,3.687692226E0
1.161730800E-1,1.860704899E0,-1.687968969E0,2.492827415E0,3.539159573E0
1.211781320E-1,1.511163712E0,-1.910881996E0,2.176204681E0,3.266642402E0
1.261831840E-1,1.137107134E0,-2.067391157E0,1.769221306E0,2.949112216E0
1.311882360E-1,7.411394119E-1,-2.179138660E0,1.355408669E0,2.671154355E0
1.361932890E-1,3.765470982E-1,-2.238662720E0,9.462862015E-1,2.459442226E0
1.411983410E-1,9.856534004E-2,-2.242750168E0,5.668153763E-1,2.315366734E0
1.462033930E-1,-6.658482552E-2,-2.220014334E0,2.137727737E-1,2.231276760E0
1.512084450E-1,-1.391708851E-1,-2.206938744E0,-1.341075897E-1,2.215385294E0
1.562134970E-1,-1.565794945E-1,-2.210963249E0,-4.555749893E-1,2.262835433E0
1.612185490E-1,-1.785871983E-1,-2.234624624E0,-7.947721481E-1,2.378466600E0
1.662236010E-1,-2.307348251E-1,-2.266458511E0,-1.083292961E0,2.522616971E0
1.712286530E-1,-3.090872765E-1,-2.304800510E0,-1.328595161E0,2.678209372E0
1.762337050E-1,-4.002976418E-1,-2.335040092E0,-1.504898071E0,2.806665039E0
1.812387570E-1,-5.567276478E-1,-2.296721458E0,-1.614804268E0,2.862248758E0
1.862438090E-1,-7.690751553E-1,-2.210253716E0,-1.632684708E0,2.853481634E0
1.912488610E-1,-9.814391136E-1,-2.119013548E0,-1.584358215E0,2.821990805E0
1.962539140E-1,-1.133728862E0,-2.074492693E0,-1.550431252E0,2.827136030E0
2.012589660E-1,-1.171046853E0,-2.127466440E0,-1.501914024E0,2.855382623E0
2.062640180E-1,-1.052550316E0,-2.314700365E0,-1.405445099E0,2.905335759E0
2.112690700E-1,-8.361496925E-1,-2.513940573E0,-1.284397125E0,2.944268922E0
2.162741220E-1,-5.313388109E-1,-2.745501518E0,-1.161702156E0,3.028143229E0
2.212791740E-1,-1.659669876E-1,-2.963792086E0,-1.092537880E0,3.163107268E0
2.262842260E-1,2.243567705E-1,-3.063199043E0,-1.046776772E0,3.244883041E0
2.312892780E-1,5.923337340E-1,-3.089679956E0,-1.027766228E0,3.309574732E0
2.362943300E-1,1.012579441E0,-3.092611551E0,-1.034425735E0,3.414615635E0
2.412993820E-1,1.373396635E0,-3.082783699E0,-1.080145836E0,3.543513606E0
2.463044340E-1,1.671785593E0,-3.004179478E0,-1.140964508E0,3.622397191E0
2.513094860E-1,1.899647951E0,-2.815459490E0,-1.207592964E0,3.604685180E0
2.563145390E-1,2.071763515E0,-2.550704002E0,-1.313197136E0,3.538754257E0
2.613195910E-1,2.141790867E0,-2.153487921E0,-1.358978271E0,3.327401431E0
2.663246430E-1,2.140553713E0,-1.746814609E0,-1.430850029E0,3.111376428E0
2.713296950E-1,2.121528387E0,-1.362360477E0,-1.556678772E0,2.963133066E0
2.763347470E-1,2.112270355E0,-1.003047705E0,-1.731069565E0,2.909362918E0
2.813397990E-1,2.087277412E0,-6.573202610E-1,-1.972362518E0,2.946016094E0
2.863448510E-1,2.016634941E0,-3.281110525E-1,-2.209303856E0,3.009235264E0
2.913499030E-1,1.867368460E0,-4.640340805E-2,-2.432978630E0,3.067344659E0
2.963549550E-1,1.673502207E0,1.903034449E-1,-2.667510986E0,3.154748785E0
3.013600070E-1,1.421397924E0,3.469754457E-1,-2.941365719E0,3.285178277E0
3.063650590E-1,1.129958630E0,3.747756481E-1,-3.273169518E0,3.482944441E0
3.113701110E-1,8.303702474E-1,1.977739334E-1,-3.629718304E0,3.728737620E0
3.163751640E-1,5.386429429E-1,-8.953356743E-2,-3.907789707E0,3.945753778E0
3.213802160E-1,3.145931363E-1,-4.276647568E-1,-4.062108994E0,4.096656620E0
3.263852680E-1,7.726466656E-2,-7.068639994E-1,-4.132575035E0,4.193304540E0
3.313903200E-1,-2.055250406E-1,-9.375963211E-1,-4.148736954E0,4.258326633E0
3.363953720E-1,-5.098948479E-1,-1.078857899E0,-4.073569298E0,4.244748985E0
3.414004760E-1,-8.272763491E-1,-1.175330400E0,-3.945972443E0,4.199581673E0
3.464055800E-1,-1.107900739E0,-1.238352537E0,-3.808962822E0,4.155617744E0
3.514106840E-1,-1.293169737E0,-1.288932800E0,-3.652958870E0,4.083839399E0
3.564157890E-1,-1.413957596E0,-1.295476913E0,-3.454349995E0,3.950958162E0
3.614208930E-1,-1.452093363E0,-1.231752157E0,-3.208567142E0,3.731044307E0
3.664259970E-1,-1.417535543E0,-1.118666410E0,-2.991357327E0,3.494143702E0
3.714311010E-1,-1.291243434E0,-1.038093328E0,-2.754655838E0,3.214510250E0
3.764362050E-1,-1.148555756E0,-9.007813931E-1,-2.507710457E0,2.901585632E0
3.814413090E-1,-1.063598633E0,-6.895043850E-1,-2.264381886E0,2.595011305E0
3.864464140E-1,-1.061177254E0,-3.399919868E-1,-2.071362972E0,2.352070636E0
3.914515180E-1,-9.537411928E-1,5.576217175E-2,-1.804844856E0,2.042105932E0
3.964566220E-1,-8.600425124E-1,4.490227699E-1,-1.541188240E0,1.821141335E0
4.014617260E-1,-7.793461084E-1,8.015673757E-1,-1.266062737E0,1.689025005E0
4.064668300E-1,-7.447052002E-1,1.085205078E0,-1.022116661E0,1.666426826E0
4.114719340E-1,-7.352793217E-1,1.362030506E0,-7.520895004E-1,1.720872278E0
4.164770390E-1,-6.881072521E-1,1.536948442E0,-4.608860016E-1,1.745886025E0
4.214821430E-1,-6.888160706E-1,1.676556349E0,-1.912546158E-1,1.822604482E0
4.264872470E-1,-7.003658414E-1,1.804121971E0,9.014129639E-2,1.937393572E0
4.314923510E-1,-7.156023383E-1,1.852675080E0,2.411394119E-1,2.000659860E0
4.364974550E-1,-7.366411686E-1,1.728194952E0,2.158365250E-1,1.891000637E0
4.415025590E-1,-9.388501048E-1,1.504176617E0,-2.165031433E-2,1.773261275E0
4.465076640E-1,-1.115420938E0,1.145916700E0,-3.175544739E-1,1.630377194E0
4.515127680E-1,-1.209971428E0,7.423326969E-1,-6.288690567E-1,1.552599427E0
4.565178720E-1,-1.238252282E0,2.581397891E-1,-8.373575211E-1,1.516928635E0
4.615229760E-1,-1.216870666E0,-1.949808598E-1,-1.015501976E0,1.596883219E0
4.665280800E-1,-6.839957237E-1,-4.068114460E-1,-1.220757484E0,1.457255825E0
4.715331840E-1,-4.550805688E-1,-4.967893660E-1,-1.287495613E0,1.453114914E0
4.765382890E-1,-6.382319331E-1,-7.252487540E-1,-1.160502434E0,1.509997237E0
4.815433930E-1,-8.685832620E-1,-1.003988981E0,-9.411201477E-1,1.627310017E0
4.865484970E-1,-1.077327967E0,-1.122743249E0,-6.583442688E-1,1.689557672E0
4.915536010E-1,-1.185800433E0,-1.016472340E0,-3.975715637E-1,1.611645691E0
4.965587050E-1,-1.106979489E0,-7.684465647E-1,-1.675195694E-1,1.357930970E0
5.015638090E-1,-1.015776157E0,-4.380574226E-1,8.473110199E-2,1.109448001E0
5.065689140E-1,-9.768712521E-1,-1.083873361E-1,4.825601578E-1,1.094938155E0
5.115740180E-1,-1.086932182E0,2.657183707E-1,9.584436417E-1,1.473309891E0
5.165791220E-1,-1.175640106E0,6.149003506E-1,1.540212631E0,2.032851950E0
5.215842260E-1,-1.268716335E0,1.017719030E0,2.037207603E0,2.606838695E0
5.265893300E-1,-1.296559572E0,1.371997237E0,2.483334541E0,3.119357881E0
5.315944340E-1,-1.263089538E0,1.690491199E0,2.850425720E0,3.546559243E0
5.365995390E-1,-1.206265092E0,1.882135630E0,3.366660118E0,4.041275832E0
5.416046430E-1,-1.028137326E0,1.927563071E0,3.902381897E0,4.472264552E0
5.466097470E-1,-8.456953764E-1,1.892922640E0,4.300735474E0,4.774377698E0
5.516148510E-1,-6.367571354E-1,1.815396190E0,4.458488464E0,4.855846205E0
5.566199550E-1,-2.850368619E-1,1.656258583E0,4.372954369E0,4.684780509E0
5.616250590E-1,-4.028685391E-2,1.430179954E0,4.055706978E0,4.300673996E0
5.666301640E-1,3.198490143E-1,1.209113955E0,3.594126701E0,3.805523183E0
5.716352680E-1,7.304937840E-1,1.002949715E0,2.941926956E0,3.192876996E0
5.766403720E-1,9.962445498E-1,7.697734237E-1,2.219360352E0,2.551590621E0
5.816454760E-1,1.152438283E0,4.969538748E-1,1.583652496E0,2.020651474E0
5.866505800E-1,1.296949625E0,2.618240118E-1,1.129017830E0,1.739342233E0
5.916556840E-1,1.546559453E0,-1.064515114E-2,8.302946091E-1,1.755377053E0
5.966607890E-1,1.664546490E0,-3.663029671E-1,6.388454437E-1,1.820169328E0
6.016658930E-1,1.885566354E0,-7.269359827E-1,5.919504166E-1,2.105754424E0
6.066709970E-1,2.147015095E0,-9.768243432E-1,7.028570175E-1,2.461273573E0
6.116761010E-1,2.446486712E0,-1.030547142E0,1.202998161E0,2.914537565E0
6.166812050E-1,2.500477791E0,-1.008895636E0,1.656994820E0,3.164789317E0
6.216863090E-1,2.449750185E0,-8.647246361E-1,1.790019035E0,3.154868113E0
6.266913610E-1,2.198222160E0,-7.461187840E-1,1.804509163E0,2.940259721E0
6.316964140E-1,1.767554402E0,-5.534678698E-1,1.711211205E0,2.521669890E0
6.367014660E-1,1.319787264E0,-2.893165946E-1,1.691159248E0,2.164615928E0
6.417065180E-1,7.438829541E-1,-4.264175892E-3,1.529399872E0,1.700718672E0
6.467115700E-1,2.176497579E-1,1.764114201E-1,1.378600121E0,1.406780260E0
6.517166220E-1,-2.369278669E-1,2.906258702E-1,1.224158287E0,1.280297513E0
6.567216740E-1,-6.013624668E-1,3.244397640E-1,1.066025734E0,1.266218323E0
6.617267260E-1,-8.570199013E-1,3.495584726E-1,8.091974258E-1,1.229420478E0
6.667317780E-1,-1.084465265E0,3.518990874E-1,5.876083374E-1,1.282646264E0
6.717368300E-1,-1.325396061E0,2.138508260E-1,4.154682159E-1,1.405354309E0
6.767418820E-1,-1.560178399E0,8.532003313E-2,3.305463791E-1,1.597090183E0
6.817469340E-1,-1.797827721E0,-1.508756578E-1,2.657651901E-1,1.823617041E0
6.867519860E-1,-1.808790207E0,-3.018870354E-1,1.206207275E-2,1.833849309E0
6.917570390E-1,-1.820805192E0,-2.332955897E-1,-2.292852402E-1,1.849954081E0
6.967620910E-1,-1.909844398E0,1.270961761E-1,-4.576482773E-1,1.968019565E0
7.017671430E-1,-1.947944045E0,7.886325717E-1,-1.034647942E0,2.342418344E0
7.067721950E-1,-1.882915974E0,1.415870905E0,-2.002339363E0,3.091832128E0
7.117772470E-1,-1.737453222E0,1.942174911E0,-2.766341209E0,3.800451391E0
7.167822990E-1,-1.646055222E0,1.722530842E0,-3.310607433E0,4.078815008E0
7.217873510E-1,-1.461408854E0,1.440443993E0,-3.712986946E0,4.242271419E0
7.267924030E-1,-1.284037471E0,9.525799751E-1,-3.711978912E0,4.041651677E0
7.317974550E-1,-1.368437648E0,-1.014941931E0,1.310001373E0,2.149146881E0
7.368025070E-1,-1.280875087E0,-1.832424521E0,2.491964340E0,3.347880955E0
7.418075590E-1,-2.692812681E-1,-2.040133953E0,5.736188889E-1,2.136281250E0
7.468126110E-1,4.521559477E-1,-2.097006083E0,3.559724808E0,4.156142468E0
7.518176640E-1,4.543402195E-1,-2.170453072E0,5.047515869E0,5.513139579E0
7.568227160E-1,4.037648439E-1,-2.220542908E0,5.656776428E0,6.090398707E0
7.618277680E-1,4.658640623E-1,-2.238767862E0,5.407700539E0,5.871314672E0
7.668328200E-1,8.834108710E-1,-2.357982635E0,4.500213623E0,5.156783836E0
7.718378720E-1,1.465905428E0,-2.486325264E0,3.293803215E0,4.379478469E0
7.768429240E-1,1.484588861E0,-2.419989824E0,2.222351074E0,3.605440214E0
7.818479760E-1,1.463689566E0,-2.060445786E0,1.314385414E0,2.848759905E0
7.868530280E-1,1.166141748E0,-1.602127433E0,4.557752609E-1,2.033329776E0
7.918580800E-1,8.741921782E-1,-1.218513727E0,-3.963642120E-1,1.551158360E0
7.968631320E-1,3.193055391E-1,-8.728484511E-1,-1.180973053E0,1.502836584E0
8.018681840E-1,-2.676421404E-1,-5.964125991E-1,-1.813775063E0,1.927983475E0
8.068732360E-1,-5.546274185E-1,-5.830399394E-1,-2.296187878E0,2.433110337E0
8.118782890E-1,-5.706503391E-1,-8.205775023E-1,-2.500806332E0,2.693143434E0
8.168833410E-1,-3.586618900E-1,-1.158982038E0,-2.458105564E0,2.741196943E0
8.218883930E-1,6.351613998E-2,-1.610272646E0,-2.488582134E0,2.964802410E0
8.268934450E-1,5.364813805E-1,-1.999396324E0,-2.715645790E0,3.414693250E0
8.318984970E-1,8.978821039E-1,-2.212676287E0,-2.905044556E0,3.760506946E0
8.369036010E-1,1.092435002E0,-2.226981640E0,-2.890299797E0,3.808765466E0
8.419087050E-1,1.276489615E0,-2.109683752E0,-2.705379486E0,3.660501255E0
8.469138090E-1,1.507214308E0,-1.970776081E0,-2.551162720E0,3.558663310E0
8.519189140E-1,1.607628822E0,-1.933575869E0,-2.475122929E0,3.528373504E0
8.569240180E-1,1.541141987E0,-2.045141697E0,-2.519325256E0,3.592314425E0
8.619291220E-1,1.473080635E0,-2.279854059E0,-2.720645905E0,3.843125710E0
8.669342260E-1,1.496045232E0,-2.354728222E0,-2.773201942E0,3.933642758E0
8.719393300E-1,1.517045021E0,-2.350648880E0,-2.758369446E0,3.928813784E0
8.769444340E-1,1.532551289E0,-2.281015158E0,-2.933553696E0,4.019636910E0
8.819495390E-1,1.462012529E0,-2.168253899E0,-3.202640057E0,4.134695749E0
8.869546430E-1,1.234512329E0,-1.996589661E0,-3.522516251E0,4.233026305E0
8.919597470E-1,1.150657535E0,-1.688638687E0,-3.826537132E0,4.337960327E0
8.969648510E-1,1.050890326E0,-1.339245200E0,-4.034265995E0,4.378727019E0
9.019699550E-1,7.534779310E-1,-9.765524864E-1,-4.151203632E0,4.330574483E0
9.069750590E-1,2.973123789E-1,-6.340178251E-1,-4.273080349E0,4.330079551E0
9.119801640E-1,-4.244196415E-1,-3.024930954E-1,-4.390035629E0,4.420864953E0
9.169852680E-1,-1.204439998E0,8.103966713E-3,-4.578112602E0,4.733904982E0
9.219903720E-1,-1.994040132E0,2.836483717E-1,-4.660694122E0,5.077275071E0
9.269954760E-1,-2.283209324E0,3.100270033E-1,-4.614550591E0,5.157832753E0
9.320005800E-1,-1.993636370E0,-1.596927643E-2,-4.468996048E0,4.893543365E0
9.370056840E-1,-1.324012399E0,-5.397495627E-1,-4.200800419E0,4.437461277E0
9.420107890E-1,-6.721915007E-1,-1.089170694E0,-3.867692471E0,4.073963581E0
9.470158930E-1,-2.194259167E-1,-1.460484147E0,-3.484067917E0,3.784163174E0
9.520209970E-1,9.485426545E-2,-1.779607058E0,-2.444955826E0,3.025526004E0
9.570261010E-1,5.245516300E-1,-2.376974106E0,-3.437604904E-1,2.458318854E0
9.620312050E-1,3.977084458E-1,-2.575329304E0,-1.077806473E0,2.819957415E0
9.670363090E-1,-1.144061685E-1,-2.661633968E0,-1.455225945E0,3.035632834E0
9.720414140E-1,-1.715474129E-1,-2.511190414E0,-1.205605507E0,2.790876287E0
9.770465180E-1,3.717362881E-3,-2.542641640E0,-9.415349960E-1,2.711370221E0
9.820516220E-1,1.139891148E-2,-2.680439711E0,-5.534076691E-1,2.736995986E0
9.870567260E-1,-4.068146944E-1,-2.400262356E0,-5.707664490E-1,2.500506331E0
9.920618300E-1,-8.060516119E-1,-1.975550532E0,-8.060226440E-1,2.280831342E0
9.970669340E-1,-9.848081470E-1,-1.562921524E0,-1.191658974E0,2.198322516E0
1.002072039E0,-9.156662822E-1,-1.217266440E0,-1.679502487E0,2.267357698E0
1.007077143E0,-2.574290633E-1,-1.054286122E0,-2.121674061E0,2.383126050E0
1.012082247E0,9.202392399E-2,-1.013129115E0,-2.194668293E0,2.418980761E0
1.017087351E0,1.648720503E-1,-1.139975429E0,-2.219535828E0,2.500613137E0
1.022092455E0,1.154752076E-2,-1.123559594E0,-2.325175285E0,2.582432887E0
1.027097559E0,-1.556247324E-1,-8.448337913E-1,-2.468338013E0,2.613552321E0
1.032102664E0,-4.923512936E-1,-3.615040183E-1,-2.620325089E0,2.690575872E0
1.037107768E0,-8.012233377E-1,2.878012657E-1,-2.781160831E0,2.908546712E0
1.042112872E0,-1.115179658E0,1.069092989E0,-2.960381031E0,3.339227656E0
1.047117976E0,-1.531562924E0,1.996457815E0,-3.243780136E0,4.105318303E0
1.052123080E0,-2.028445959E0,2.878449440E0,-3.116230965E0,4.702229217E0
1.057128184E0,-2.376704454E0,3.604097843E0,-2.531826019E0,5.004836493E0
1.062133289E0,-1.990490079E0,3.925433159E0,-2.331304550E0,4.980567954E0
1.067138393E0,-1.040942907E0,3.573422909E0,-2.217438698E0,4.332429780E0
1.072143497E0,-4.125187397E-1,2.924397469E0,-2.047030449E0,3.593411460E0
1.077148601E0,4.981814325E-2,2.333701134E0,-1.844362736E0,2.974948189E0
1.082153705E0,4.642839432E-1,1.987833381E0,-1.657417774E0,2.629462836E0
1.087158809E0,9.213646054E-1,1.781653047E0,-1.610261917E0,2.572186571E0
1.092163914E0,1.585107088E0,1.587598443E0,-1.745527744E0,2.842516562E0
1.097169018E0,1.135526538E0,1.549518824E0,-1.524025917E0,2.452159069E0
1.102174122E0,6.399250031E-1,1.557278991E0,-1.528942108E0,2.274265999E0
1.107179226E0,1.417835951E-1,1.529524684E0,-1.320696831E0,2.025780952E0
1.112184330E0,-1.542033255E-2,1.403894901E0,-1.224225044E0,1.862762905E0
1.117189434E0,2.756811678E-2,1.127927423E0,-1.071985245E0,1.556320223E0
1.122194539E0,-7.066435367E-2,8.253920078E-1,-8.401021957E-1,1.179846226E0
1.127199643E0,-3.500919044E-1,6.094379425E-1,-5.524034500E-1,8.939398855E-1
1.132204747E0,-7.306495309E-1,5.824536085E-1,-2.754545212E-1,9.741540619E-1
1.137209851E0,-9.520731568E-1,7.124770880E-1,-1.184368134E-1,1.195028943E0
1.142214955E0,-1.199188232E0,9.061635733E-1,2.429866791E-2,1.503254890E0
1.147220059E0,-1.345891356E0,1.170941710E0,2.101497650E-1,1.796299239E0
1.152225164E0,-1.612291098E0,1.456944823E0,6.154346466E-1,2.258523988E0
1.157230216E0,-1.707685351E0,1.619176984E0,8.197727203E-1,2.491977263E0
1.162235268E0,-1.378131866E0,1.691021442E0,8.430089951E-1,2.338688762E0
1.167240320E0,-8.705686331E-1,1.859031081E0,8.431024551E-1,2.219168325E0
1.172245372E0,-4.149009585E-1,2.185436487E0,9.535360336E-1,2.420228587E0
1.177250424E0,-3.294740617E-2,2.489572525E0,1.169007301E0,2.750569934E0
1.182255476E0,2.298202813E-1,2.582311392E0,1.264922142E0,2.884645127E0
1.187260528E0,3.369765282E-1,2.499853611E0,1.246439934E0,2.813615781E0
1.192265580E0,4.146867096E-1,2.440587044E0,1.371348381E0,2.830022362E0
1.197270632E0,4.417258501E-1,2.458292007E0,1.891651154E0,3.133155822E0
1.202275684E0,4.685155451E-1,2.390775204E0,2.533914566E0,3.515115349E0
1.207280736E0,4.776111841E-1,2.199872494E0,2.920997620E0,3.687787755E0
1.212285789E0,4.366187453E-1,1.848144889E0,3.134985924E0,3.665298378E0
1.217290841E0,2.512160540E-1,1.509210587E0,3.243136406E0,3.585911299E0
1.222295893E0,-6.056398153E-3,1.341629982E0,3.407783508E0,3.662375749E0
1.227300945E0,-1.914472878E-1,1.273906231E0,3.518855095E0,3.747243030E0
1.232305997E0,-2.719166279E-1,1.258214712E0,3.605099678E0,3.828026463E0
1.237311049E0,-2.628204823E-1,1.256245971E0,3.661825180E0,3.880230946E0
1.242316101E0,-1.701375693E-1,1.243888140E0,3.693952560E0,3.901472801E0
1.247321153E0,-1.187320501E-1,1.225528955E0,3.692113876E0,3.892007631E0
1.252326205E0,-1.904793084E-1,1.219591856E0,3.661336899E0,3.863816060E0
1.257331257E0,-3.285298944E-1,1.205915809E0,3.687757492E0,3.893805356E0
1.262336309E0,-3.662543595E-1,1.268926978E0,3.795213699E0,4.018453055E0
1.267341361E0,-1.900157332E-1,1.430014610E0,3.978930473E0,4.232367597E0
1.272346414E0,1.374766827E-1,1.624765635E0,4.091032982E0,4.404011134E0
1.277351466E0,4.003374875E-1,1.708551049E0,3.955555916E0,4.327336293E0
1.282356518E0,5.500872731E-1,1.672158360E0,3.592611313E0,4.000695644E0
1.287361570E0,6.049652100E-1,1.607359409E0,3.117530823E0,3.559295662E0
1.292366622E0,6.071149707E-1,1.534675121E0,2.592648506E0,3.073376416E0
1.297371674E0,4.843898118E-1,1.470011234E0,2.161099434E0,2.658179317E0
1.302376726E0,2.516390979E-1,1.395852089E0,1.946357727E0,2.408325911E0
1.307381778E0,2.471780777E-2,1.284722924E0,1.890188217E0,2.285593021E0
1.312386830E0,-1.046037674E-1,1.084834099E0,1.891714096E0,2.183206172E0
1.317391882E0,-1.066704988E-1,8.356168270E-1,1.940984726E0,2.115905429E0
1.322396934E0,3.460675478E-2,6.096266508E-1,2.152042389E0,2.236990998E0
1.327401986E0,2.690765262E-1,3.259786367E-1,2.409530640E0,2.446324212E0
1.332407039E0,5.127826929E-1,1.852357388E-2,2.622389793E0,2.672118531E0
1.337412091E0,8.053883314E-1,-2.174894810E-1,2.738170624E0,2.862434349E0
1.342417143E0,1.137702346E0,-3.447456360E-1,2.766762733E0,3.011343920E0
1.347422247E0,1.404084802E0,-4.026427269E-1,2.746772766E0,3.111002399E0
1.352427351E0,1.608781576E0,-4.784069657E-1,2.735817909E0,3.209634094E0
1.357432455E0,1.765405297E0,-6.445071697E-1,2.667274475E0,3.262881929E0
1.362437559E0,1.849310875E0,-9.157238603E-1,2.541538239E0,3.273823074E0
1.367442664E0,1.798280001E0,-1.239843965E0,2.420954704E0,3.260681784E0
1.372447768E0,1.597970009E0,-1.531470656E0,2.300859451E0,3.192626620E0
1.377452872E0,1.378035426E0,-1.848852873E0,2.162246704E0,3.161099396E0
1.382457976E0,1.204144478E0,-2.140313148E0,1.933839798E0,3.125802403E0
1.387463080E0,1.055824995E0,-2.320376396E0,1.649502754E0,3.036407808E0
1.392468184E0,9.706432819E-1,-2.471081257E0,1.366796494E0,2.986054858E0
1.397473289E0,8.958540559E-1,-2.621514320E0,1.076216698E0,2.972058916E0
1.402478393E0,7.074930072E-1,-2.786068916E0,8.159608841E-1,2.988062671E0
1.407483497E0,3.353552222E-1,-2.950457096E0,5.667695999E-1,3.023059374E0
1.412488601E0,-8.072173595E-2,-3.147757053E0,1.710557938E-1,3.153434723E0
1.417493705E0,-3.156236410E-1,-3.395942688E0,-3.040285110E-1,3.424102562E0
1.422498809E0,-3.608023524E-1,-3.664774418E0,-8.058624268E-1,3.769637134E0
1.427503914E0,-2.706257701E-1,-3.885706902E0,-1.320157051E0,4.112757113E0
1.432509018E0,-1.413652301E-1,-4.014575481E0,-1.684810638E0,4.356074760E0
1.437514122E0,-6.290268898E-2,-4.003216743E0,-1.886229515E0,4.425783866E0
1.442519226E0,2.343690395E-2,-3.909011841E0,-2.096906185E0,4.435982237E0
1.447524330E0,2.322496772E-1,-3.884591579E0,-2.345486164E0,4.543709608E0
1.452529434E0,5.336802602E-1,-3.795670033E0,-2.622293472E0,4.644173626E0
1.457534539E0,8.318809867E-1,-3.680157661E0,-2.755509377E0,4.672089288E0
1.462539643E0,1.168736696E0,-3.595302105E0,-3.179809093E0,4.939972526E0
1.467544747E0,1.680758238E0,-3.464437008E0,-4.237433910E0,5.725654389E0
1.472549851E0,1.561543345E0,-2.944290161E0,-4.236771107E0,5.390500124E0
1.477554955E0,1.157171011E0,-2.438306808E0,-3.534711838E0,4.447310717E0
1.482560059E0,1.023280382E0,-2.157414913E0,-2.883017063E0,3.743438157E0
1.487565164E0,1.123446226E0,-2.053451061E0,-2.634705544E0,3.524268149E0
1.492570268E0,1.101406813E0,-1.896510363E0,-2.979187489E0,3.699379220E0
1.497575372E0,9.435609579E-1,-1.695806861E0,-3.570728302E0,4.064008956E0
1.502580476E0,6.664217710E-1,-1.493953943E0,-4.031462193E0,4.350713019E0
1.507585580E0,3.804271221E-1,-1.247955680E0,-4.314162254E0,4.507118163E0
1.512590684E0,1.145084798E-1,-9.385568500E-1,-4.400420189E0,4.500855362E0
1.517595789E0,-6.899446249E-2,-6.992300749E-1,-4.333931923E0,4.390518061E0
1.522600893E0,-2.465128005E-1,-5.196620822E-1,-4.167795658E0,4.207295793E0
1.527605997E0,-3.985820115E-1,-3.803957701E-1,-3.964421749E0,4.002525249E0
1.532611101E0,-5.393233299E-1,-2.575770617E-1,-3.614139557E0,3.663225400E0
1.537616205E0,-5.769528151E-1,-2.137597799E-1,-3.212826729E0,3.271211302E0
1.542621309E0,-5.340012312E-1,-2.923047543E-1,-2.846502781E0,2.910872286E0
1.547626414E0,-4.050103724E-1,-4.457508922E-1,-2.567475319E0,2.637168325E0
1.552631518E0,-3.134980500E-1,-5.600265861E-1,-2.318104744E0,2.405310876E0
1.557636622E0,-2.730054259E-1,-5.929335356E-1,-2.126861095E0,2.224778699E0
1.562641726E0,-2.447014451E-1,-5.546085238E-1,-2.031710148E0,2.120215918E0
1.567646830E0,-2.673655450E-1,-4.600249529E-1,-2.079988003E0,2.146964691E0
1.572651934E0,-2.037158608E-1,-2.952140570E-1,-2.161381245E0,2.190940523E0
1.577657039E0,-1.356959045E-1,-1.179471016E-1,-2.165952682E0,2.173401923E0
1.582662143E0,-3.941541910E-2,8.563399315E-2,-2.065258503E0,2.067408871E0
1.587667247E0,9.438091516E-2,2.572207451E-1,-1.993152142E0,2.011896053E0
1.592672351E0,2.691875100E-1,3.440268040E-1,-2.064004421E0,2.109722875E0
1.597677455E0,4.025201499E-1,3.985970020E-1,-2.191368103E0,2.263403677E0
1.602682559E0,4.366700649E-1,4.449892044E-1,-2.360732079E0,2.441669938E0
1.607687664E0,3.477937579E-1,4.359592199E-1,-2.567234039E0,2.627110875E0
1.612692768E0,1.936584711E-1,3.962930441E-1,-2.763116360E0,2.798100034E0
1.617697872E0,5.044952035E-2,3.509136438E-1,-2.919866085E0,2.941309826E0
1.622702976E0,2.136726379E-1,3.912787437E-1,-2.861047268E0,2.895573608E0
1.627708080E0,6.108667850E-1,5.698240995E-1,-2.606419086E0,2.737019947E0
1.632713184E0,8.662258387E-1,7.713565826E-1,-2.290288925E0,2.567247854E0
1.637718289E0,9.257804155E-1,9.331718683E-1,-2.099080086E0,2.476694636E0
1.642723393E0,8.924487233E-1,1.007622004E0,-2.013435841E0,2.421918807E0
1.647728497E0,8.053011298E-1,1.043204904E0,-2.018841267E0,2.410914026E0
1.652733601E0,6.879161000E-1,1.083785653E0,-2.062612534E0,2.429442398E0
1.657738705E0,5.109623671E-1,1.173105240E0,-2.087430000E0,2.448391809E0
1.662743809E0,2.979932427E-1,1.216036439E0,-2.102953911E0,2.447439426E0
1.667748914E0,1.060346961E-1,1.237047553E0,-2.114040375E0,2.451672228E0
1.672754018E0,1.126188040E-2,1.207601666E0,-2.053875923E0,2.382610947E0
1.677759122E0,1.285988092E-2,1.199230075E0,-1.951251507E0,2.290349448E0
1.682764226E0,1.198105812E-1,1.144835234E0,-1.787150860E0,2.125772914E0
1.687769330E0,2.032092810E-1,1.153842092E0,-1.537832260E0,1.933280540E0
1.692774434E0,2.548516393E-1,1.206252337E0,-1.251286507E0,1.756619475E0
1.697779539E0,3.332540989E-1,1.206021428E0,-1.104291916E0,1.668833909E0
1.702784643E0,4.858739972E-1,1.210602999E0,-9.866209030E-1,1.635559222E0
1.707789747E0,6.919541955E-1,1.287213445E0,-8.360624313E-1,1.683662511E0
1.712794851E0,7.828457952E-1,1.440472364E0,-6.573791504E-1,1.766339582E0
1.717799955E0,7.774302363E-1,1.598378897E0,-4.696769714E-1,1.838425774E0
1.722805059E0,7.190487981E-1,1.684305310E0,-3.206958771E-1,1.859236778E0
1.727810111E0,7.028698325E-1,1.712640405E0,-2.198047638E-1,1.864263203E0
1.732815164E0,7.326911092E-1,1.664521813E0,-9.040927887E-2,1.820890707E0
1.737820216E0,8.126642704E-1,1.587927341E0,1.533985138E-1,1.790381960E0
1.742825268E0,9.806136489E-1,1.521037698E0,5.113306046E-1,1.880589746E0
1.747830320E0,1.194189072E0,1.429929972E0,1.054687500E0,2.140829976E0
1.752835372E0,1.346170664E0,1.413953185E0,1.644387245E0,2.552537655E0
1.757840424E0,1.363544226E0,1.381420851E0,2.060486794E0,2.830756480E0
1.762845476E0,1.286466122E0,1.303887367E0,2.226910591E0,2.883443797E0
1.767850528E0,1.172411919E0,1.234895587E0,2.239739418E0,2.813529719E0
1.772855580E0,1.000924706E0,1.242632031E0,2.147089958E0,2.675066340E0
1.777860632E0,7.942014933E-1,1.337512374E0,2.059094429E0,2.580613344E0
1.782865684E0,5.600970387E-1,1.443411469E0,2.033123970E0,2.555530951E0
1.787870736E0,3.495784998E-1,1.541378975E0,2.097771645E0,2.626537672E0
1.792875789E0,1.999900341E-1,1.573970318E0,2.243326187E0,2.747706490E0
1.797880841E0,8.676809072E-2,1.574766636E0,2.426633835E0,2.894126885E0
1.802885893E0,7.146716118E-2,1.558075428E0,2.623766899E0,3.052353082E0
1.807890945E0,1.537788510E-1,1.600174427E0,2.863366127E0,3.283758778E0
1.812895997E0,2.960481644E-1,1.662280083E0,3.207387924E0,3.624659554E0
1.817901049E0,4.513911605E-1,1.676908255E0,3.574369431E0,3.973901370E0
1.822906101E0,6.918243766E-1,1.552777648E0,3.878366470E0,4.234556160E0
1.827911153E0,1.031393290E0,1.323320985E0,4.105295181E0,4.434906884E0
1.832916205E0,1.292970419E0,1.122424126E0,4.269726753E0,4.600236404E0
1.837921257E0,1.419854403E0,9.404028654E-1,4.395685196E0,4.714063260E0
1.842926309E0,1.403609991E0,7.057616711E-1,4.435430527E0,4.705450510E0
1.847931361E0,1.307306051E0,3.997781277E-1,4.393882751E0,4.601638545E0
1.852936414E0,1.169372559E0,6.600737572E-2,4.285531044E0,4.442697996E0
1.857941466E0,9.993693233E-1,-2.088674307E-1,4.124794960E0,4.249270303E0
1.862946518E0,8.400764465E-1,-4.194387794E-1,3.873523712E0,3.985704865E0
1.867951570E0,7.008664608E-1,-6.554445624E-1,3.603438377E0,3.729019913E0
1.872956622E0,5.621450543E-1,-9.106968641E-1,3.333551407E0,3.501134219E0
1.877961674E0,4.324045181E-1,-1.255911231E0,3.140264511E0,3.409625769E0
1.882966726E0,3.630934358E-1,-1.637823462E0,3.099841118E0,3.524672679E0
1.887971778E0,2.914536595E-1,-1.985188723E0,3.255014420E0,3.823746641E0
1.892976830E0,1.699013710E-1,-2.375516653E0,3.457389832E0,4.198272298E0
1.897981882E0,-1.334786415E-3,-2.838231564E0,3.673565865E0,4.642267372E0
1.902986986E0,-1.598881483E-1,-3.250073910E0,3.913224220E0,5.089387825E0
1.907992091E0,-3.529585600E-1,-3.516495466E0,4.109519005E0,5.420190639E0
1.912997195E0,-5.743221641E-1,-3.643692017E0,4.291224480E0,5.658705240E0
1.918002299E0,-8.124148846E-1,-3.647353649E0,4.458299637E0,5.817185079E0
1.923007403E0,-1.022244215E0,-3.586639404E0,4.505656242E0,5.848923288E0
1.928012507E0,-1.140562534E0,-3.525430679E0,4.414498329E0,5.763448609E0
1.933017611E0,-1.162562966E0,-3.374243021E0,4.199550629E0,5.511197157E0
1.938022716E0,-1.122907639E0,-3.148575544E0,3.894692421E0,5.132550884E0
1.943027820E0,-1.051438808E0,-2.825505257E0,3.548031807E0,4.655913791E0
1.948032924E0,-1.020685554E0,-2.410809755E0,3.154997826E0,4.099733401E0
1.953038028E0,-1.021761656E0,-2.015222549E0,2.720589638E0,3.536485089E0
1.958043132E0,-9.363580942E-1,-1.620010138E0,2.268928528E0,2.940958346E0
1.963048236E0,-7.182552218E-1,-1.177477121E0,1.852729797E0,2.309751207E0
1.968053341E0,-5.689679980E-1,-7.643735409E-1,1.362160683E0,1.662369760E0
1.973058445E0,-4.837613702E-1,-3.755509257E-1,8.022422791E-1,1.009285012E0
1.978063549E0,-4.627487659E-1,-4.341769218E-2,1.875019073E-1,5.011770961E-1
1.983068653E0,-4.672321081E-1,2.621195316E-1,-3.816738129E-1,6.577897773E-1
1.988073757E0,-4.378019571E-1,5.568203926E-1,-8.339633942E-1,1.094172951E0
1.993078861E0,-4.534538388E-1,7.796218395E-1,-1.313143730E0,1.593040192E0
1.998083966E0,-4.413197041E-1,8.178256750E-1,-1.824127197E0,2.047203446E0
2.003089070E0,-4.539755583E-1,7.118890285E-1,-2.352665424E0,2.499582844E0
2.008094174E0,-6.308698654E-1,6.025404930E-1,-2.865422726E0,2.995279491E0
2.013099278E0,-9.293299317E-1,5.200085640E-1,-3.367388725E0,3.531765827E0
2.018104382E0,-1.306783676E0,5.182900429E-1,-3.820592403E0,4.071023760E0
2.023109486E0,-1.677522182E0,5.172555447E-1,-4.244490147E0,4.593183055E0
2.028114591E0,-1.970911741E0,4.604713917E-1,-4.567668915E0,4.996011040E0
2.033119695E0,-2.192985058E0,3.249104023E-1,-4.804855824E0,5.291633937E0
2.038124799E0,-2.311666012E0,1.396430731E-1,-4.922900677E0,5.440427466E0
2.043129903E0,-2.314052343E0,-3.349888325E-2,-4.907736301E0,5.426033176E0
2.048135007E0,-2.215549946E0,-1.614074707E-1,-4.812225819E0,5.300210492E0
2.053140111E0,-2.007409573E0,-2.018678188E-1,-4.583947182E0,5.008294677E0
2.058145216E0,-1.766154766E0,-1.894619465E-1,-4.285214424E0,4.638777980E0
2.063150320E0,-1.635346413E0,-1.874868870E-1,-3.997234821E0,4.322892023E0
2.068155424E0,-1.557134032E0,-2.063205242E-1,-3.734185696E0,4.051095822E0
2.073160528E0,-1.488187790E0,-2.466444969E-1,-3.476781845E0,3.789927229E0
2.078165632E0,-1.361088634E0,-3.137056828E-1,-3.248818398E0,3.536353278E0
2.083170736E0,-1.242508292E0,-3.982473612E-1,-3.035833836E0,3.304347877E0
2.088175841E0,-1.117664814E0,-4.860599041E-1,-2.823438168E0,3.075261282E0
2.093180945E0,-1.024056196E0,-5.393939018E-1,-2.578125954E0,2.826016686E0
2.098186049E0,-9.128662944E-1,-5.826318264E-1,-2.357267380E0,2.594126870E0
2.103191153E0,-8.743525147E-1,-5.638360977E-1,-2.184606552E0,2.419691975E0
2.108196257E0,-8.741585016E-1,-5.312976837E-1,-2.017009258E0,2.261582778E0
2.113201361E0,-9.215065837E-1,-5.239375830E-1,-1.883027554E0,2.160897439E0
2.118206466E0,-9.736639261E-1,-5.131889582E-1,-1.744318962E0,2.062530724E0
2.123211570E0,-1.026076078E0,-5.040892363E-1,-1.629500389E0,1.990529978E0
2.128216674E0,-1.054208636E0,-5.540544987E-1,-1.505099297E0,1.919285317E0
2.133221778E0,-1.051907301E0,-6.058731079E-1,-1.428519249E0,1.874635548E0
2.138226882E0,-1.079757810E0,-7.118215561E-1,-1.390255928E0,1.898783400E0
2.143231986E0,-1.126807690E0,-7.805406451E-1,-1.385622978E0,1.949074218E0
2.148237091E0,-1.183375597E0,-8.546133637E-1,-1.476748466E0,2.076421884E0
2.153242195E0,-1.278771400E0,-9.047214389E-1,-1.615701675E0,2.250393095E0
2.158247299E0,-1.441943884E0,-8.828327060E-1,-1.797626019E0,2.467803690E0
2.163252403E0,-1.635177493E0,-8.987694383E-1,-1.974637508E0,2.716760061E0
2.168257507E0,-1.816161871E0,-9.475845098E-1,-2.132376671E0,2.956922490E0
2.173262611E0,-1.980713367E0,-1.009748697E0,-2.275680542E0,3.181436752E0
2.178267716E0,-2.096025944E0,-1.022844315E0,-2.409364700E0,3.353292935E0
2.183272820E0,-2.201009750E0,-9.867131114E-1,-2.557344437E0,3.515402858E0
2.188277924E0,-2.296968937E0,-9.060849547E-1,-2.676536083E0,3.641552093E0
2.193283028E0,-2.385217190E0,-7.808102369E-1,-2.733529568E0,3.710944565E0
2.198288132E0,-2.414492846E0,-6.110513806E-1,-2.747496128E0,3.708354684E0
2.203293236E0,-2.319565296E0,-3.638520241E-1,-2.570283413E0,3.481253838E0
2.208298341E0,-2.067926407E0,-7.853174210E-2,-2.211690903E0,3.028871656E0
2.213303445E0,-1.759201050E0,1.861071587E-1,-1.824837208E0,2.541545798E0
2.218308549E0,-1.501559019E0,3.860145807E-1,-1.462258339E0,2.131170147E0
2.223313653E0,-1.284450531E0,5.160337687E-1,-1.195520401E0,1.829036098E0
2.228318757E0,-1.117068052E0,6.002124548E-1,-1.019637108E0,1.627192630E0
2.233323861E0,-9.036391377E-1,6.962954998E-1,-8.723402023E-1,1.436094893E0
2.238328966E0,-6.870116591E-1,8.331638575E-1,-6.962776184E-1,1.284892819E0
2.243334070E0,-5.242354274E-1,1.005814195E0,-5.249404907E-1,1.249818985E0
2.248339174E0,-3.714395761E-1,1.128030896E0,-4.347801208E-1,1.264695542E0
2.253344278E0,-3.235213757E-1,1.195628405E0,-4.591732025E-1,1.320997120E0
2.258349382E0,-3.560130596E-1,1.209550023E0,-5.741386414E-1,1.385421140E0
2.263354486E0,-4.639281631E-1,1.204490304E0,-6.745615005E-1,1.456385749E0
2.268359591E0,-5.515409708E-1,1.219753861E0,-7.558841705E-1,1.537321633E0
2.273364695E0,-6.620171666E-1,1.265616775E0,-7.275066376E-1,1.602909373E0
2.278369799E0,-7.707290649E-1,1.375795245E0,-6.327981949E-1,1.699196694E0
2.283374903E0,-8.051985502E-1,1.464372158E0,-5.006914139E-1,1.744540746E0
2.288380007E0,-8.470535874E-1,1.536288142E0,-2.739477158E-1,1.775592404E0
2.293385111E0,-8.966086507E-1,1.586378098E0,1.285457611E-1,1.826753008E0
2.298390216E0,-8.484321237E-1,1.651663184E0,6.062612534E-1,1.953300041E0
2.303395320E0,-7.398697734E-1,1.649393082E0,1.030203819E0,2.080678911E0
2.308400424E0,-6.467927098E-1,1.579102159E0,1.376650810E0,2.192503567E0
2.313405528E0,-6.743019223E-1,1.512331367E0,1.550269127E0,2.268295309E0
2.318410632E0,-7.703288198E-1,1.511249423E0,1.661389351E0,2.374341147E0
2.323415736E0,-8.968718052E-1,1.542394519E0,1.652830124E0,2.432119920E0
2.328420841E0,-1.035489440E0,1.581911922E0,1.610908508E0,2.483890080E0
2.333425945E0,-1.173132420E0,1.582009912E0,1.593146324E0,2.533201580E0
2.338431049E0,-1.287454367E0,1.599645495E0,1.528030396E0,2.559547098E0
2.343436153E0,-1.360681534E0,1.605957150E0,1.434902191E0,2.547449097E0
2.348441257E0,-1.398508072E0,1.600918651E0,1.371229172E0,2.529631355E0
2.353446361E0,-1.444622993E0,1.551433563E0,1.298705101E0,2.486064487E0
2.358451466E0,-1.475612164E0,1.482036710E0,1.250730515E0,2.436840349E0
2.363456518E0,-1.486743808E0,1.426555276E0,1.251080513E0,2.410533044E0
2.368461570E0,-1.434836745E0,1.418837905E0,1.290004730E0,2.394988453E0
2.373466622E0,-1.334553003E0,1.477933049E0,1.396106720E0,2.431960483E0
2.378471674E0,-1.157077312E0,1.498553157E0,1.502349854E0,2.416928744E0
2.383476726E0,-8.929181099E-1,1.490259647E0,1.661322594E0,2.403782296E0
2.388481778E0,-4.993468523E-1,1.491289020E0,1.896849632E0,2.464006645E0
2.393486830E0,-4.261642694E-2,1.530119419E0,2.146640778E0,2.636503029E0
2.398491882E0,3.021641374E-1,1.544327021E0,2.405807495E0,2.874745000E0
2.403496934E0,5.223792791E-1,1.571804643E0,2.607394218E0,3.089005432E0
2.408501986E0,6.425588727E-1,1.535950184E0,2.718071938E0,3.187466067E0
2.413507039E0,7.061308622E-1,1.422597647E0,2.738001823E0,3.165289694E0
2.418512091E0,6.892553568E-1,1.265787125E0,2.648173332E0,3.014981259E0
2.423517143E0,6.206480861E-1,1.185683966E0,2.458250999E0,2.798937029E0
2.428522195E0,5.957101583E-1,1.145210028E0,2.196846962E0,2.548041046E0
2.433527247E0,6.093012094E-1,1.112272263E0,1.878145218E0,2.266236309E0
2.438532299E0,7.040535212E-1,1.050180912E0,1.568832397E0,2.014896126E0
2.443537351E0,7.884873152E-1,8.838973045E-1,1.397646904E0,1.832049006E0
2.448542403E0,7.954081297E-1,6.957151890E-1,1.354585648E0,1.718020953E0
2.453547455E0,7.627750635E-1,5.292026997E-1,1.458439827E0,1.728851649E0
2.458552507E0,7.293592691E-1,3.795866966E-1,1.675418854E0,1.866300978E0
2.463557559E0,7.194638252E-1,2.176041603E-1,2.014953613E0,2.150585462E0
2.468562611E0,7.815667391E-1,-5.274295807E-3,2.524703979E0,2.642915922E0
2.473567664E0,9.550796747E-1,-2.758773565E-1,3.104123116E0,3.259427222E0
2.478572716E0,1.241803885E0,-5.767915249E-1,3.738878250E0,3.981705152E0
2.483577768E0,1.581730485E0,-9.142298698E-1,4.189924240E0,4.570902834E0
2.488582820E0,1.842521191E0,-1.303523540E0,4.409839630E0,4.953861476E0
2.493587872E0,1.962502956E0,-1.696843147E0,4.422939301E0,5.127678478E0
2.498592924E0,1.988293529E0,-2.007614136E0,4.301410675E0,5.146451153E0
2.503597976E0,1.922641039E0,-2.149532080E0,4.160441399E0,5.062243510E0
2.508603028E0,1.710881352E0,-2.180348158E0,4.105538368E0,4.953430971E0
2.513608080E0,1.433240891E0,-2.153753281E0,4.237234116E0,4.964573053E0
2.518613132E0,1.147247314E0,-2.191016674E0,4.435972214E0,5.078836476E0
2.523618184E0,8.964903355E-1,-2.327371120E0,4.615838051E0,5.246552408E0
2.528623289E0,7.009387016E-1,-2.583652735E0,4.714908600E0,5.421894468E0
2.533628393E0,5.664861202E-1,-2.885024071E0,4.676113129E0,5.523613347E0
2.538633497E0,4.795548916E-1,-3.208914280E0,4.432909012E0,5.493431173E0
2.543638601E0,4.309561253E-1,-3.436693668E0,3.966660500E0,5.266021465E0
2.548643705E0,4.446471930E-1,-3.530730247E0,3.349563599E0,4.887058779E0
2.553648809E0,4.439096451E-1,-3.472187042E0,2.529422760E0,4.318694030E0
2.558653914E0,4.424515963E-1,-3.327483177E0,1.564019203E0,3.703250434E0
2.563659018E0,4.198524952E-1,-3.100264549E0,4.488897324E-1,3.160604117E0
2.568664122E0,3.837230802E-1,-2.846241713E0,-6.866397858E-1,2.952932353E0
2.573669226E0,3.369926810E-1,-2.548860550E0,-1.742312431E0,3.105786016E0
2.578674330E0,2.593163848E-1,-2.230020761E0,-2.675499916E0,3.492640460E0
2.583679434E0,2.693517208E-1,-1.944999695E0,-3.462865829E0,3.980830807E0
2.588684539E0,4.045197964E-1,-1.706255317E0,-4.052458286E0,4.415581687E0
2.593689643E0,6.212216020E-1,-1.531402588E0,-4.444978714E0,4.742251146E0
2.598694747E0,8.147720098E-1,-1.438320875E0,-4.708069324E0,4.989843398E0
2.603699851E0,9.718622565E-1,-1.382869959E0,-4.899683475E0,5.183024573E0
2.608704955E0,1.084088326E0,-1.325657964E0,-5.058570385E0,5.340575893E0
2.613710059E0,1.185223103E0,-1.265742540E0,-5.137280464E0,5.422039150E0
2.618715164E0,1.261136413E0,-1.178468704E0,-5.131411552E0,5.413930001E0
2.623720268E0,1.264199853E0,-1.111847162E0,-5.002898693E0,5.278579422E0
2.628725372E0,1.218755364E0,-1.052074432E0,-4.794903278E0,5.057995917E0
2.633730476E0,1.168332219E0,-1.067190886E0,-4.531251907E0,4.799597942E0
2.638735580E0,1.142042398E0,-1.139322042E0,-4.230886459E0,4.527992468E0
2.643740684E0,1.135277987E0,-1.236285925E0,-3.970050335E0,4.310285218E0
2.648745789E0,1.157486558E0,-1.378368497E0,-3.705376148E0,4.119403749E0
2.653750893E0,1.113151550E0,-1.471111536E0,-3.470073700E0,3.929972902E0
2.658755997E0,1.049991369E0,-1.529831171E0,-3.287787437E0,3.775236618E0
2.663761101E0,1.001880527E0,-1.517040730E0,-3.158300400E0,3.644178725E0
2.668766205E0,9.690746665E-1,-1.461993933E0,-3.153131485E0,3.608153285E0
2.673771309E0,9.325951934E-1,-1.374486566E0,-3.128644943E0,3.542226178E0
2.678776414E0,8.730000257E-1,-1.235468984E0,-3.108757019E0,3.457294153E0
2.683781518E0,9.045794010E-1,-1.054972053E0,-3.059916019E0,3.360701708E0
2.688786622E0,9.460396767E-1,-8.811418414E-1,-3.087287903E0,3.347050733E0
2.693791726E0,9.397168159E-1,-7.569816709E-1,-3.190727234E0,3.411279705E0
2.698796830E0,8.950327635E-1,-6.819777489E-1,-3.308032036E0,3.494174187E0
2.703801934E0,8.404465318E-1,-7.127527595E-1,-3.329357147E0,3.506991001E0
2.708807039E0,8.144600391E-1,-7.481602430E-1,-3.264552116E0,3.446794079E0
2.713812143E0,7.894003391E-1,-7.398144007E-1,-3.147366524E0,3.328121734E0
2.718817247E0,7.615281343E-1,-7.113164663E-1,-3.040109158E0,3.213745464E0
2.723822351E0,7.027250528E-1,-5.953172445E-1,-2.981070995E0,3.120097659E0
2.728827455E0,6.270390749E-1,-4.203522205E-1,-3.013188839E0,3.106313083E0
2.733832559E0,5.715107918E-1,-2.005735636E-1,-3.069374084E0,3.128563825E0
2.738837664E0,5.778539181E-1,3.030443192E-2,-3.082595825E0,3.136435960E0
2.743842768E0,6.493095756E-1,2.671068907E-1,-2.962034702E0,3.044108834E0
2.748847872E0,7.274219394E-1,4.993798733E-1,-2.760369778E0,2.897958634E0
2.753852976E0,8.113688827E-1,6.931056976E-1,-2.511131287E0,2.728460245E0
2.758858080E0,9.007237554E-1,8.380223513E-1,-2.214314461E0,2.533135069E0
2.763863184E0,9.427996874E-1,9.335486889E-1,-1.884273052E0,2.304532347E0
2.768868289E0,9.812901020E-1,9.938040972E-1,-1.568847656E0,2.100442767E0
2.773873393E0,9.695692658E-1,9.417585135E-1,-1.244050026E0,1.837017726E0
2.778878497E0,9.094882011E-1,8.632400036E-1,-9.911193848E-1,1.598333422E0
2.783883601E0,9.356849790E-1,7.823008299E-1,-9.055490494E-1,1.519052352E0
2.788888705E0,9.237655401E-1,7.327146530E-1,-8.867139816E-1,1.475288182E0
2.793893809E0,8.256832361E-1,7.196691036E-1,-8.772096634E-1,1.403272325E0
2.798898914E0,6.465203762E-1,7.432526350E-1,-9.296236038E-1,1.354478911E0
2.803904018E0,5.056142807E-1,8.086428642E-1,-1.015232086E0,1.392926872E0
2.808909122E0,4.593972266E-1,8.206816912E-1,-1.071913719E0,1.426030600E0
2.813914226E0,3.966619670E-1,8.660124540E-1,-1.085453987E0,1.444135951E0
2.818919330E0,2.400827855E-1,9.495038986E-1,-9.938182831E-1,1.395303615E0
2.823924434E0,5.708600581E-2,1.032842159E0,-8.593311310E-1,1.344794308E0
2.828929539E0,6.792345643E-2,1.125533581E0,-7.633161545E-1,1.361650098E0
2.833934643E0,1.856308430E-1,1.194050908E0,-6.292190552E-1,1.362399721E0
2.838939747E0,4.001231194E-1,1.286443114E0,-3.806486130E-1,1.399974201E0
2.843944851E0,6.160938144E-1,1.411765933E0,-9.899425507E-2,1.543520165E0
2.848949955E0,7.538775802E-1,1.545546532E0,2.348804474E-1,1.735573194E0
2.853955059E0,9.488914609E-1,1.629999638E0,5.205564499E-1,1.956597261E0
2.858960164E0,1.249670267E0,1.670092463E0,6.911849976E-1,2.197412413E0
2.863965268E0,1.570249915E0,1.732763886E0,9.238262177E-1,2.514281282E0
2.868970372E0,1.791855216E0,1.836879611E0,1.180149078E0,2.824468741E0
2.873975476E0,1.896222115E0,1.915181160E0,1.302393913E0,2.993293686E0
2.878980580E0,1.940753341E0,1.967504859E0,1.300378799E0,3.054273059E0
2.883985684E0,2.201860428E0,1.965779305E0,1.064313889E0,3.137712809E0
2.888990789E0,1.899392247E0,1.996649981E0,1.230295181E0,3.017934440E0
2.893995893E0,1.398524761E0,2.021009445E0,1.396190643E0,2.826605561E0
2.899000997E0,1.186711073E0,2.024443626E0,1.279997826E0,2.673022559E0
2.904006101E0,1.167156696E0,2.017282486E0,1.173707008E0,2.609458090E0
2.909011205E0,1.085787654E0,1.995285392E0,1.196741104E0,2.567545111E0
2.914016309E0,9.902774692E-1,2.039795160E0,1.234152794E0,2.581578370E0
2.919021414E0,8.516650200E-1,2.083878517E0,1.285907745E0,2.592574340E0
2.924026518E0,6.647868752E-1,2.094233036E0,1.356746674E0,2.582346827E0
2.929031622E0,5.678981543E-1,2.085259199E0,1.437082291E0,2.595384317E0
2.934036726E0,4.407898188E-1,2.143447876E0,1.536411285E0,2.673803302E0
2.939041830E0,2.645356059E-1,2.249665260E0,1.712048531E0,2.839380750E0
2.944046934E0,1.586453021E-1,2.337166786E0,1.849101067E0,2.984408094E0
2.949052039E0,1.225418746E-1,2.310636759E0,1.966728210E0,3.036787545E0
2.954057143E0,1.364841461E-1,2.256465435E0,2.112752914E0,3.094186332E0
2.959062247E0,1.712351143E-1,2.164873600E0,2.334982872E0,3.188752763E0
2.964067351E0,3.319602609E-1,2.054619312E0,2.662043571E0,3.379072966E0
2.969072455E0,5.803985000E-1,2.006510258E0,3.060379028E0,3.705248390E0
2.974077559E0,7.648067474E-1,1.947985768E0,3.467827797E0,4.050358940E0
2.979082664E0,8.010247350E-1,1.816484690E0,3.893970490E0,4.370842416E0
2.984087768E0,7.436631322E-1,1.650103450E0,4.176241875E0,4.551579116E0
2.989092872E0,6.183363199E-1,1.434824705E0,4.343478203E0,4.615935944E0
2.994097976E0,3.881863058E-1,1.209458232E0,4.367065430E0,4.548047745E0
2.999103080E0,1.541713476E-1,9.505569935E-1,4.309299469E0,4.415584821E0
3.004108184E0,-4.971936345E-2,7.115101814E-1,4.141493797E0,4.202462329E0
3.009113289E0,-2.515360713E-1,4.306296110E-1,3.925881386E0,3.957430595E0
3.014118393E0,-4.130513966E-1,1.136748791E-1,3.671968460E0,3.696875141E0
3.019123497E0,-6.016920209E-1,-2.529430389E-1,3.379744530E0,3.442192115E0
3.024128601E0,-8.664239049E-1,-6.065092683E-1,3.073156357E0,3.250051364E0
3.029133705E0,-1.122888803E0,-8.845714331E-1,2.723561287E0,3.075895312E0
3.034138809E0,-1.354240656E0,-1.067920685E0,2.431447983E0,2.981000107E0
3.039143914E0,-1.572336912E0,-1.213928342E0,2.234980583E0,2.990151098E0
3.044149018E0,-1.731145382E0,-1.337166548E0,2.105353355E0,3.036015721E0
3.049154070E0,-1.779467225E0,-1.481024146E0,2.109429359E0,3.132032623E0
3.054159122E0,-1.694608808E0,-1.608073235E0,2.161057472E0,3.182415425E0
3.059164174E0,-1.501285195E0,-1.738154650E0,2.231568336E0,3.202332910E0
3.064169226E0,-1.248004556E0,-1.848100424E0,2.354496002E0,3.242937245E0
3.069174278E0,-9.781613946E-1,-1.977343559E0,2.544269562E0,3.367490886E0
3.074179330E0,-7.492386103E-1,-2.160470963E0,2.772271156E0,3.593672305E0
3.079184382E0,-5.511243343E-1,-2.369813919E0,3.029052734E0,3.885217692E0
3.084189434E0,-3.493657410E-1,-2.554003716E0,3.281301498E0,4.172760588E0
3.089194486E0,-1.139702648E-1,-2.680721283E0,3.529195786E0,4.433337198E0
3.094199539E0,5.196145177E-2,-2.765353441E0,3.677262306E0,4.601319128E0
3.099204591E0,1.369840205E-1,-2.885040283E0,3.649228096E0,4.653932504E0
3.104209643E0,9.601385891E-2,-2.987190247E0,3.445338249E0,4.561017417E0
3.109214695E0,1.731911302E-2,-3.066986084E0,3.075379372E0,4.343346851E0
3.114219747E0,-6.907692552E-2,-3.138421535E0,2.558659554E0,4.049839511E0
3.119224799E0,-1.482180059E-1,-3.177118301E0,1.900118828E0,3.704929262E0
3.124229851E0,-2.393676192E-1,-3.172870398E0,1.166846275E0,3.389090386E0
3.129234903E0,-4.050854445E-1,-3.129364491E0,3.970823288E-1,3.180360154E0
3.134239955E0,-6.124784350E-1,-2.978523254E0,-4.570474625E-1,3.074999674E0
3.139245007E0,-8.199368119E-1,-2.738181114E0,-1.342979431E0,3.158088970E0
3.144250059E0,-9.767784476E-1,-2.459511518E0,-2.189146519E0,3.434480387E0
3.149255111E0,-1.118731141E0,-2.164815426E0,-2.986298084E0,3.854343192E0
3.154260164E0,-1.214262724E0,-1.847835898E0,-3.677411556E0,4.290954116E0
3.159265216E0,-1.260565996E0,-1.512199044E0,-4.210312843E0,4.647849698E0
3.164270268E0,-1.278248310E0,-1.209753036E0,-4.628474712E0,4.951787487E0
3.169275320E0,-1.249097943E0,-9.543234110E-1,-4.908319950E0,5.153890140E0
3.174280372E0,-1.130813479E0,-7.265112400E-1,-5.107521057E0,5.281413547E0
3.179285424E0,-9.242643118E-1,-5.502326488E-1,-5.130599022E0,5.242143341E0
3.184290476E0,-5.965003967E-1,-3.541692495E-1,-4.929928303E0,4.978497931E0
3.189295528E0,-2.138958126E-1,-1.536462307E-1,-4.481755257E0,4.489486470E0
3.194300580E0,1.401474774E-1,-3.599953651E-2,-4.010926723E0,4.013535905E0
3.199305632E0,4.198983312E-1,-1.657199860E-2,-3.627228260E0,3.651489298E0
3.204310684E0,6.169958115E-1,-4.769957066E-2,-3.306560516E0,3.363971095E0
3.209315789E0,7.183071375E-1,-1.297031641E-1,-3.072672367E0,3.158180414E0
3.214320893E0,7.106774449E-1,-3.004633188E-1,-2.930292606E0,3.030174153E0
3.219325997E0,5.860626698E-1,-4.736368656E-1,-2.807646275E0,2.907005149E0
3.224331101E0,3.548797071E-1,-6.343046427E-1,-2.743095875E0,2.837755621E0
3.229336205E0,8.461132646E-2,-7.866770029E-1,-2.712785244E0,2.825813788E0
3.234341309E0,-1.956818104E-1,-9.306269288E-1,-2.644989491E0,2.810752080E0
3.239346414E0,-4.427107573E-1,-1.056824565E0,-2.530172348E0,2.777524633E0
3.244351518E0,-6.707734466E-1,-1.223140240E0,-2.406566620E0,2.781649144E0
3.249356622E0,-8.611251712E-1,-1.415743470E0,-2.302738190E0,2.836982429E0
3.254361726E0,-1.042935491E0,-1.587725520E0,-2.218461037E0,2.920643103E0
3.259366830E0,-1.183105469E0,-1.677756906E0,-2.177448273E0,2.992638930E0
3.264371934E0,-1.320483804E0,-1.729742408E0,-2.136449814E0,3.049607201E0
3.269377039E0,-1.426808238E0,-1.782758236E0,-2.018826008E0,3.047895524E0
3.274382143E0,-1.449394822E0,-1.885448933E0,-1.776765347E0,2.968595312E0
3.279387247E0,-1.350155830E0,-1.928710938E0,-1.563316345E0,2.826093530E0
3.284392351E0,-1.162496686E0,-1.913839698E0,-1.454773903E0,2.670308604E0
3.289397455E0,-1.020962238E0,-1.822227240E0,-1.393539429E0,2.510941685E0
3.294402559E0,-1.154845715E0,-1.639868259E0,-1.212191582E0,2.343553917E0
3.299407664E0,-1.319398880E0,-1.534397125E0,-1.240812302E0,2.373774023E0
3.304412768E0,-1.439585924E0,-1.534341931E0,-1.474253654E0,2.569053645E0
3.309417872E0,-1.551356912E0,-1.457564592E0,-1.878709316E0,2.839146263E0
3.314422976E0,-1.647977352E0,-1.193451524E0,-2.334436417E0,3.096732032E0
3.319428080E0,-1.588914514E0,-8.226450086E-1,-2.774499416E0,3.301399878E0
3.324433184E0,-1.390986323E0,-4.784236550E-1,-3.165525436E0,3.490599294E0
3.329438289E0,-1.361356258E0,-2.509292364E-1,-3.493312836E0,3.757591105E0
3.334443393E0,-1.432458401E0,-1.538153887E-1,-3.643263340E0,3.917775390E0
3.339448497E0,-1.488737464E0,-1.145964861E-1,-3.653938770E0,3.947244625E0
3.344453601E0,-1.548858404E0,-8.037388325E-2,-3.573330402E0,3.895396319E0
3.349458705E0,-1.530315042E0,-6.500124931E-2,-3.439845085E0,3.765451301E0
3.354463809E0,-1.479735613E0,2.272832394E-2,-3.162728310E0,3.491845418E0
3.359468914E0,-1.404375911E0,1.922416687E-1,-2.651369572E0,3.006491171E0
3.364474018E0,-1.159410000E0,2.897609472E-1,-2.130746841E0,2.443005333E0
3.369479122E0,-9.772710800E-1,2.430300713E-1,-1.835134029E0,2.093284330E0
3.374484226E0,-6.072514057E-1,2.725317478E-1,-1.348074913E0,1.503440652E0
3.379489330E0,-4.670671821E-1,4.395058155E-1,-1.219752312E0,1.378083022E0
3.384494434E0,-4.384220243E-1,5.951671600E-1,-1.158171654E0,1.373972125E0
3.389499539E0,-5.185503364E-1,7.740045786E-1,-1.197149277E0,1.516952184E0
3.394504643E0,-6.196922660E-1,9.679533243E-1,-1.380067825E0,1.795978659E0
3.399509747E0,-7.610037327E-1,1.164596677E0,-1.501554489E0,2.046967998E0
3.404514851E0,-8.815323114E-1,1.341531754E0,-1.600191593E0,2.266587699E0
3.409519955E0,-9.823596478E-1,1.471199036E0,-1.604450703E0,2.388246038E0
3.414525059E0,-1.116012931E0,1.578459144E0,-1.524245262E0,2.461776137E0
3.419530164E0,-1.320297480E0,1.630401492E0,-1.460268974E0,2.556125963E0
3.424535268E0,-1.499754786E0,1.651294231E0,-1.350363731E0,2.607588784E0
3.429540372E0,-1.597539425E0,1.674776673E0,-1.184973717E0,2.600225342E0
3.434545476E0,-1.571613073E0,1.685914278E0,-8.348436356E-1,2.451374819E0
3.439550580E0,-1.475822926E0,1.692990899E0,-4.385108948E-1,2.288353840E0
3.444555684E0,-1.416594028E0,1.761478305E0,1.872348785E-2,2.260507693E0
3.449560789E0,-1.400095105E0,1.847087741E0,5.132465363E-1,2.373904259E0
3.454565893E0,-1.356436133E0,1.924474001E0,1.050232887E0,2.578082288E0
3.459570997E0,-1.201478124E0,1.977793455E0,1.548762321E0,2.784579207E0
3.464576101E0,-9.843267202E-1,2.081979752E0,2.004447937E0,3.053088651E0
3.469581205E0,-7.580752969E-1,2.201751709E0,2.455860138E0,3.384322349E0
3.474586309E0,-6.938710809E-1,2.388050795E0,3.137380600E0,4.003423623E0
3.479591414E0,-6.166534424E-1,2.452199459E0,3.828672409E0,4.588275937E0
3.484596518E0,-4.718908668E-1,2.172517061E0,4.166305542E0,4.722352511E0
3.489601622E0,-4.172273278E-1,1.797376633E0,4.165151596E0,4.555560253E0
3.494606726E0,-5.677806139E-1,1.475561380E0,4.016928673E0,4.316870646E0
3.499611830E0,-8.085262775E-1,1.222831964E0,3.745566368E0,4.022225773E0
3.504616934E0,-1.044206738E0,1.064709783E0,3.489757538E0,3.795047076E0
3.509622039E0,-1.156116366E0,9.215568304E-1,3.235023499E0,3.556859441E0
3.514627143E0,-1.197877049E0,8.186646700E-1,2.995644569E0,3.328514331E0
3.519632247E0,-1.193681479E0,7.477303743E-1,2.757122993E0,3.096078711E0
3.524637351E0,-1.157761812E0,6.810797453E-1,2.562346458E0,2.893078189E0
3.529642455E0,-1.056664705E0,5.860905647E-1,2.449396133E0,2.731223877E0
3.534647559E0,-8.904867172E-1,5.066713095E-1,2.398919106E0,2.608542751E0
3.539652664E0,-6.639187336E-1,3.717823029E-1,2.487212181E0,2.601006459E0
3.544657768E0,-4.241606593E-1,2.056509256E-1,2.709175110E0,2.749878969E0
3.549662872E0,-2.512120605E-1,1.850848198E-1,2.978396416E0,2.994696829E0
3.554667976E0,-1.725955009E-1,2.761147022E-1,3.294704437E0,3.310756087E0
3.559673080E0,-7.772171497E-2,4.302432537E-1,3.586305618E0,3.612857306E0
3.564678184E0,1.190617085E-1,6.563146114E-1,3.877277374E0,3.934234919E0
3.569683289E0,4.794996977E-1,9.245369434E-1,4.215616226E0,4.342362109E0
3.574688393E0,7.559796572E-1,1.162076235E0,4.476919174E0,4.686654639E0
3.579693497E0,8.261578083E-1,1.320220828E0,4.627709389E0,4.882746558E0
3.584698601E0,7.778391838E-1,1.393916368E0,4.471947670E0,4.748299970E0
3.589703705E0,7.204229832E-1,1.408171177E0,3.919171333E0,4.226329291E0
3.594708809E0,6.798307896E-1,1.403056979E0,3.237824440E0,3.593639644E0
3.599713914E0,5.529333353E-1,1.365812302E0,2.695982933E0,3.072377336E0
3.604719018E0,2.524877787E-1,1.321498752E0,2.393846512E0,2.746017143E0
3.609724122E0,-1.647118330E-1,1.203715801E0,2.302401543E0,2.603289185E0
3.614729226E0,-5.028280616E-1,1.041480303E0,2.340063095E0,2.610251438E0
3.619734330E0,-6.564766765E-1,8.204500675E-1,2.391846657E0,2.612475908E0
3.624739434E0,-6.829937100E-1,6.126261950E-1,2.448087692E0,2.614368874E0
3.629744539E0,-6.207217574E-1,4.420071840E-1,2.556565285E0,2.667712860E0
3.634749643E0,-5.741267800E-1,4.275496006E-1,2.655017853E0,2.749825452E0
3.639754747E0,-5.371114612E-1,3.772579432E-1,2.767273903E0,2.844049425E0
3.644759851E0,-3.565670252E-1,1.848447323E-1,2.826557159E0,2.854948860E0
3.649764955E0,-2.392435074E-2,-1.600281000E-1,2.818881035E0,2.823521145E0
3.654770059E0,4.495327473E-1,-5.674234629E-1,2.730412483E0,2.824748025E0
3.659775164E0,8.095687628E-1,-9.473610520E-1,2.633255005E0,2.913232992E0
3.664780268E0,1.024111986E0,-1.285275459E0,2.508071899E0,2.998526808E0
3.669785372E0,1.104765058E0,-1.413330555E0,2.407140732E0,3.002055228E0
3.674790476E0,1.096784353E0,-1.508215308E0,2.396963120E0,3.036952672E0
3.679795580E0,9.682493210E-1,-1.616985917E0,2.237948418E0,2.925844036E0
3.684800684E0,8.778460026E-1,-1.843658805E0,2.049516678E0,2.893131522E0
3.689805789E0,9.891422987E-1,-2.240782022E0,2.123246193E0,3.241555330E0
3.694810893E0,9.646145105E-1,-2.623655796E0,2.272269249E0,3.602396207E0
3.699815997E0,5.396571159E-1,-2.679323673E0,2.372143745E0,3.618987579E0
3.704821101E0,-1.671508551E-1,-2.481904268E0,2.192560196E0,3.315887275E0
3.709826205E0,-6.432769895E-1,-2.097966671E0,1.920415878E0,2.916036108E0
3.714831309E0,-3.755095601E-1,-2.014808893E0,1.638425827E0,2.623909582E0
3.719836361E0,7.575917244E-2,-2.236471653E0,1.238059044E0,2.557407887E0
3.724841414E0,6.474577188E-1,-2.696542263E0,7.395067215E-1,2.870089174E0
3.729846466E0,1.264930725E0,-3.257309914E0,1.481895447E-1,3.497438742E0
3.734851518E0,1.753453851E0,-3.889457226E0,-2.731800079E-1,4.275173123E0
3.739856570E0,1.995718718E0,-4.069750786E0,-1.151865005E0,4.676810628E0
3.744861622E0,1.913913608E0,-4.138108253E0,-1.884591579E0,4.933425852E0
3.749866674E0,1.866535187E0,-4.108281136E0,-2.538602829E0,5.177492812E0
3.754871726E0,1.766880035E0,-3.898376226E0,-3.114117622E0,5.293102193E0
3.759876778E0,1.543556213E0,-3.560468674E0,-3.850551128E0,5.466831528E0
3.764881830E0,1.132454634E0,-3.236380577E0,-4.661827564E0,5.786989630E0
3.769886882E0,6.529014111E-1,-2.808788300E0,-5.208876610E0,5.953819572E0
3.774891934E0,3.171206713E-1,-2.338478804E0,-5.583466053E0,6.061694631E0
3.779896986E0,3.845369816E-2,-1.819795132E0,-5.872148037E0,6.147784607E0
3.784902039E0,-1.843080521E-1,-1.362222433E0,-6.022536755E0,6.177424089E0
3.789907091E0,-3.043132424E-1,-1.022535443E0,-6.039699078E0,6.133200651E0
3.794912143E0,-2.744163275E-1,-8.916828632E-1,-5.847230434E0,5.921191299E0
3.799917195E0,-3.614032269E-2,-9.987847805E-1,-5.560133457E0,5.649244305E0
3.804922247E0,2.644693851E-1,-1.162333250E0,-5.245554924E0,5.379294480E0
3.809927299E0,4.718943238E-1,-1.239679098E0,-4.874827862E0,5.052072367E0
3.814932351E0,5.401472449E-1,-1.275130153E0,-4.433561802E0,4.644802063E0
3.819937403E0,6.765664816E-1,-1.366002560E0,-4.002923012E0,4.283351239E0
3.824942455E0,8.392509818E-1,-1.322251797E0,-3.635336399E0,3.958328278E0
3.829947507E0,8.383427262E-1,-1.125867367E0,-3.368930817E0,3.649669944E0
3.834952559E0,7.904341221E-1,-9.735649824E-1,-3.232352257E0,3.467090421E0
3.839957611E0,6.052210927E-1,-6.405715942E-1,-3.244618416E0,3.362167932E0
3.844962664E0,4.250149131E-1,-3.326265812E-1,-3.281101227E0,3.325192232E0
3.849967716E0,2.580582500E-1,-5.466127396E-2,-3.341601372E0,3.351996665E0
3.854972768E0,4.112690687E-2,2.267479897E-1,-3.373357773E0,3.381220007E0
3.859977820E0,-2.837587595E-1,6.121205091E-1,-3.433748722E0,3.499405784E0
3.864982872E0,-5.693330765E-1,9.434777498E-1,-3.484358311E0,3.654455261E0
3.869987924E0,-4.722806811E-1,1.024399161E0,-3.587191105E0,3.760370023E0
3.874992976E0,-6.403811574E-1,1.203233004E0,-3.497908115E0,3.754093615E0
3.879998028E0,-3.088422418E-1,1.121621251E0,-3.188544273E0,3.394146777E0
3.885003132E0,-3.616607189E-2,7.714569569E-1,-2.951476097E0,3.050846599E0
3.890008236E0,1.289793849E-1,4.835528135E-1,-2.853562832E0,2.897115780E0
3.895013341E0,3.760440350E-1,2.051649094E-1,-2.927899361E0,2.959070196E0
3.900018445E0,7.465362549E-1,4.110705853E-2,-3.035370827E0,3.126096964E0
3.905023549E0,1.020170689E0,-8.849978447E-3,-3.065917969E0,3.231204040E0
3.910028653E0,1.121920586E0,-1.146495342E-2,-3.010265350E0,3.212558906E0
3.915033757E0,1.115195274E0,-1.423442364E-2,-2.921287537E0,3.126944833E0
3.920038861E0,1.215623379E0,-5.962014198E-2,-2.856547832E0,3.105021784E0
3.925043966E0,1.312534094E0,-1.086589098E-1,-2.892612934E0,3.178326933E0
3.930049070E0,1.276164293E0,-1.845123768E-1,-2.962503433E0,3.230954458E0
3.935054174E0,1.555196524E0,-4.588261843E-1,-2.922724724E0,3.342376027E0
3.940059278E0,1.561510801E0,-6.062116623E-1,-2.811699390E0,3.272836999E0
3.945064382E0,1.276281595E0,-7.370314598E-1,-2.648596287E0,3.031034868E0
3.950069486E0,1.699799418E0,-1.277282357E0,-2.246918678E0,3.093446594E0
3.955074591E0,1.781935930E0,-1.414164782E0,-1.750469685E0,2.870418403E0
3.960079695E0,1.631071091E0,-1.287186980E0,-1.398556709E0,2.504636519E0
3.965084799E0,1.095011711E0,-8.587067127E-1,-1.052216530E0,1.744588058E0
3.970089903E0,2.285265625E-1,2.146762609E-1,-4.530858994E-1,5.509964782E-1
3.975095007E0,-6.081461906E-1,9.942623377E-1,-7.060174942E-1,1.362666536E0
3.980100111E0,-1.150606751E0,1.404914021E0,-1.212032318E0,2.183277730E0
3.985105216E0,-1.384669304E0,1.481432796E0,-1.769844532E0,2.691524081E0
3.990110320E0,-1.306603074E0,1.286829948E0,-2.130615234E0,2.811167762E0
3.995115424E0,-1.192848444E0,1.127909780E0,-2.165545464E0,2.717472178E0
4.000120528E0,-8.636460900E-1,1.024070144E0,-2.099971771E0,2.490880501E0
4.005125632E0,-4.553125501E-1,1.132579446E0,-1.790555477E0,2.167056676E0
4.010130736E0,-2.603488266E-1,1.652714968E0,-1.079642296E0,1.991199579E0
4.015135841E0,-2.625246942E-1,2.185209751E0,-5.461616516E-1,2.267675775E0
4.020140945E0,-2.486386895E-1,2.457777739E0,-2.521848679E-1,2.483161255E0
4.025146049E0,-4.798498750E-2,2.448163986E0,-3.509521484E-2,2.448885693E0
4.030151153E0,2.464689016E-1,2.358247995E0,2.102746964E-1,2.380398281E0
4.035156257E0,5.362943411E-1,2.351339340E0,4.933366776E-1,2.461663948E0
4.040161361E0,7.220851183E-1,2.451651096E0,8.713607788E-1,2.700235105E0
4.045166466E0,9.240384102E-1,2.682707071E0,1.286892891E0,3.115583016E0
4.050171570E0,1.065557003E0,2.938826561E0,1.629958153E0,3.525461227E0
4.055176674E0,1.007063150E0,3.152620077E0,1.929430008E0,3.830912384E0
4.060181778E0,8.336797357E-1,3.257087946E0,2.214086533E0,4.025645658E0
4.065186882E0,6.594071984E-1,3.271552563E0,2.498298645E0,4.168857175E0
4.070191986E0,6.461575031E-1,3.277328253E0,2.782095909E0,4.347235632E0
4.075197091E0,7.650403976E-1,3.326828480E0,3.122904778E0,4.626619586E0
4.080202195E0,8.587055206E-1,3.400562286E0,3.492011070E0,4.949276750E0
4.085207299E0,8.655964136E-1,3.469343662E0,3.803369522E0,5.220270330E0
4.090212403E0,8.428248763E-1,3.498929501E0,4.066734314E0,5.430579104E0
4.095217507E0,8.330702186E-1,3.436247349E0,4.234416008E0,5.516527962E0
4.100222611E0,8.494433761E-1,3.228602648E0,4.368736267E0,5.498298435E0
4.105227716E0,8.263716698E-1,3.101678133E0,4.565262794E0,5.580763546E0
4.110232820E0,6.898525953E-1,3.075573921E0,4.603743553E0,5.579382246E0
4.115237924E0,5.307751298E-1,3.139602661E0,4.680597305E0,5.660990924E0
4.120243028E0,4.466593564E-1,3.178254366E0,4.814963341E0,5.786594626E0
4.125248132E0,4.848786592E-1,2.929156303E0,4.872768402E0,5.706043801E0
4.130253236E0,6.101542115E-1,2.516964436E0,4.959341049E0,5.594860300E0
4.135258341E0,7.412043810E-1,2.171021461E0,5.065130234E0,5.560419265E0
4.140263445E0,8.597196341E-1,1.843001246E0,5.228411674E0,5.609996442E0
4.145268549E0,8.801862001E-1,1.508763790E0,5.334350586E0,5.613055504E0
4.150273653E0,8.177241087E-1,1.263909221E0,5.406930923E0,5.612578841E0
4.155278757E0,6.920038462E-1,1.050619125E0,5.326670647E0,5.473215695E0
4.160283861E0,5.315015912E-1,9.216582775E-1,5.088961601E0,5.198988181E0
4.165288966E0,3.015518486E-1,7.771040201E-1,4.741765022E0,4.814473980E0
4.170294070E0,2.494429611E-2,5.654036999E-1,4.414222717E0,4.450355689E0
4.175299174E0,-2.322058380E-1,2.780611515E-1,4.158803940E0,4.174552403E0
4.180304278E0,-4.272423685E-1,-1.078072786E-1,3.889221191E0,3.914102697E0
4.185309382E0,1.513886899E-1,-4.901334047E-1,2.950119019E0,2.994386667E0
4.190314486E0,-1.727968156E-1,-8.901534677E-1,3.498886108E0,3.614475887E0
4.195319591E0,-1.062611461E0,-1.538298488E0,3.711697578E0,4.155984151E0
4.200324695E0,-1.562535286E0,-1.783608437E0,3.890260696E0,4.555974524E0
4.205329799E0,-1.595500588E0,-1.916624069E0,3.858100891E0,4.593910364E0
4.210334903E0,-1.270845532E0,-2.044856071E0,4.050951958E0,4.712398167E0
4.215340007E0,-7.190628052E-1,-2.284770727E0,4.047853470E0,4.703439838E0
4.220345111E0,-3.733738661E-1,-2.579785585E0,4.140826225E0,4.892968786E0
4.225350216E0,-1.728553325E-1,-2.854839325E0,4.095502853E0,4.995310817E0
4.230355320E0,-1.459735632E-1,-3.044269562E0,3.964743614E0,5.000807672E0
4.235360424E0,-1.208306700E-1,-3.168369055E0,3.700872421E0,4.873358103E0
4.240365528E0,-1.206793040E-1,-3.170770407E0,3.409335136E0,4.657457948E0
4.245370632E0,-2.176570892E-2,-3.295692444E0,2.860589981E0,4.364062038E0
4.250375736E0,-3.651872277E-2,-3.474773407E0,2.375218391E0,4.209162180E0
4.255380841E0,-1.968990564E-1,-3.501930237E0,1.924449921E0,4.000723949E0
4.260385945E0,-3.101167083E-1,-3.578574181E0,1.455729485E0,3.875759780E0
4.265391049E0,-4.040050507E-1,-3.509035587E0,1.012228966E0,3.674392237E0
4.270396153E0,-3.346740305E-1,-3.465487480E0,3.500690460E-1,3.499165403E0
4.275401257E0,-2.226161957E-1,-3.370041847E0,-3.631801605E-1,3.396857349E0
4.280406361E0,-1.829978526E-1,-3.302680731E0,-1.022336006E0,3.462132166E0
4.285411466E0,-1.588952541E-1,-3.218527317E0,-1.766320229E0,3.674786108E0
4.290416570E0,-8.414065838E-2,-3.082009315E0,-2.470926285E0,3.951118547E0
4.295421674E0,-3.955632448E-2,-2.881877422E0,-2.973797321E0,4.141286357E0
4.300426778E0,1.851919293E-2,-2.568691730E0,-3.476265907E0,4.322377219E0
4.305431882E0,4.629927874E-2,-2.227408886E0,-3.954648495E0,4.539023979E0
4.310436986E0,-5.234923959E-2,-1.895061255E0,-4.275303841E0,4.676774586E0
4.315442091E0,-1.245309114E-1,-1.542364836E0,-4.400314331E0,4.664457465E0
4.320447143E0,-3.199133277E-2,-1.145221710E0,-4.416096687E0,4.562287383E0
4.325452195E0,1.869387031E-1,-7.464631200E-1,-4.346766472E0,4.414355222E0
4.330457247E0,4.179475904E-1,-4.033684134E-1,-4.245056152E0,4.284610601E0
4.335462299E0,6.049149632E-1,-9.185099602E-2,-4.044040203E0,4.090063555E0
4.340467351E0,7.873718739E-1,1.255873442E-1,-3.786801815E0,3.869831345E0
4.345472403E0,1.038118601E0,3.540115356E-1,-3.559421539E0,3.724579989E0
4.350477455E0,1.208939910E0,4.590291977E-1,-3.342644691E0,3.584064319E0
4.355482507E0,1.252222180E0,4.974439144E-1,-3.126762867E0,3.404725666E0
4.360487559E0,1.271741033E0,1.396992207E-1,-3.256152153E0,3.498480809E0
4.365492611E0,1.076153874E0,5.260229111E-3,-3.075485706E0,3.258335029E0
4.370497664E0,8.114597797E-1,1.132543087E-1,-2.636977196E0,2.761329796E0
4.375502716E0,6.616944671E-1,-7.574534416E-2,-2.409142494E0,2.499508848E0
4.380507768E0,5.035899878E-1,-1.307284236E-1,-2.272253990E0,2.331057913E0
4.385512820E0,2.983984351E-1,-2.391191125E-1,-2.216561317E0,2.249302925E0
4.390517872E0,7.904340327E-2,-5.352939963E-1,-2.151058674E0,2.218071446E0
4.395522924E0,-5.480258167E-2,-7.899471521E-1,-2.047043324E0,2.194859037E0
4.400527976E0,-1.762284935E-1,-9.992439747E-1,-1.952333927E0,2.200261977E0
4.405533028E0,-3.100798130E-1,-1.125821829E0,-1.866874218E0,2.202008998E0
4.410538080E0,-4.333722591E-1,-1.237624645E0,-1.790606499E0,2.219413866E0
4.415543132E0,-4.847548008E-1,-1.287366033E0,-1.718717575E0,2.201428768E0
4.420548184E0,-5.307595134E-1,-1.304435015E0,-1.636802673E0,2.159254353E0
4.425553236E0,-5.171312094E-1,-1.313811183E0,-1.678680420E0,2.193511446E0
4.430558289E0,-5.005239248E-1,-1.372928619E0,-1.820279598E0,2.334282547E0
4.435563341E0,-5.134227872E-1,-1.404773474E0,-1.961072445E0,2.466332623E0
4.440568393E0,-4.926470816E-1,-1.394548893E0,-2.081964016E0,2.553828876E0
4.445573445E0,-4.136599302E-1,-1.351132631E0,-2.159121990E0,2.580403397E0
4.450578497E0,-3.334265053E-1,-1.235780001E0,-2.230896950E0,2.572008290E0
4.455583549E0,-2.836765647E-1,-1.009331942E0,-2.345215797E0,2.568902586E0
4.460588601E0,-2.719317377E-1,-7.424203157E-1,-2.487819672E0,2.610437035E0
4.465593653E0,-2.878745794E-1,-5.343942642E-1,-2.663587093E0,2.731875767E0
4.470598705E0,-3.752440512E-1,-4.078610539E-1,-2.901297092E0,2.953757532E0
4.475603757E0,-5.209625959E-1,-3.092430234E-1,-3.076612949E0,3.135694582E0
4.480608809E0,-6.878815293E-1,-2.522888184E-1,-3.232708931E0,3.314700240E0
4.485613861E0,-8.433150649E-1,-1.409403086E-1,-3.369647980E0,3.476430925E0
4.490618914E0,-1.035825610E0,-9.456968307E-2,-3.468354225E0,3.620961081E0
4.495623966E0,-1.213295698E0,1.603627205E-2,-3.514534950E0,3.718104292E0
4.500629070E0,-1.376109958E0,1.337743998E-1,-3.513088226E0,3.775362644E0
4.505634174E0,-1.519411922E0,2.684633732E-1,-3.430640221E0,3.761645583E0
4.510639278E0,-1.752116203E0,4.630247355E-1,-3.186005592E0,3.665369658E0
4.515644382E0,-1.909365058E0,6.072371006E-1,-2.941999912E0,3.559462783E0
4.520649486E0,-1.772499323E0,6.338367462E-1,-2.579000950E0,3.192921667E0
4.525654591E0,-1.463066936E0,8.438315392E-1,-2.030135632E0,2.640845926E0
4.530659695E0,-1.425948143E0,1.188273787E0,-1.448566437E0,2.354499400E0
4.535664799E0,-1.516001463E0,1.483966589E0,-8.246145248E-1,2.276050612E0
4.540669903E0,-1.630912423E0,1.744287252E0,-3.112392426E-1,2.408170097E0
4.545675007E0,-1.813303232E0,1.959360361E0,-3.735733032E-2,2.669935806E0
4.550680111E0,-1.959192634E0,2.234666348E0,9.298419952E-2,2.973350891E0
4.555685216E0,-2.152309179E0,2.475204945E0,1.851024628E-1,3.285321482E0
4.560690320E0,-2.356271267E0,2.672022343E0,1.863594055E-1,3.567414682E0
4.565695424E0,-2.563778400E0,2.854126930E0,1.733245850E-1,3.840448103E0
4.570700528E0,-2.761781931E0,2.925837994E0,2.129354477E-1,4.029058067E0
4.575705632E0,-2.917479992E0,2.810821056E0,3.242168427E-1,4.064175325E0
4.580710736E0,-2.978870869E0,2.567151070E0,5.165576935E-1,3.966203237E0
4.585715841E0,-2.964469194E0,2.290936470E0,7.706861496E-1,3.824973811E0
4.590720945E0,-2.950183153E0,2.015639305E0,9.956731796E-1,3.709143773E0
4.595726049E0,-2.797262907E0,1.779062390E0,1.368576050E0,3.586466668E0
4.600731153E0,-2.524301291E0,1.632544041E0,1.760280609E0,3.483659695E0
4.605736257E0,-2.260522842E0,1.565557241E0,2.146991730E0,3.488625300E0
4.610741361E0,-1.939519405E0,1.558027267E0,2.610173225E0,3.605854789E0
4.615746466E0,-1.551619887E0,1.556533098E0,3.154665947E0,3.844767457E0
4.620751570E0,-1.157532573E0,1.531473279E0,3.704047203E0,4.171960899E0
4.625756674E0,-8.315392137E-1,1.419900179E0,4.129362106E0,4.445132775E0
4.630761778E0,-5.143805742E-1,1.302718282E0,4.387846947E0,4.605959523E0
4.635766882E0,-2.330609113E-1,1.199276805E0,4.508404732E0,4.671005830E0
4.640771986E0,1.976961643E-2,1.072021246E0,4.486320496E0,4.612666472E0
4.645777091E0,1.690562218E-1,9.031322002E-1,4.216350555E0,4.315302977E0
4.650782195E0,1.238992810E-1,7.083362341E-1,3.966406822E0,4.031063672E0
4.655787299E0,9.433251619E-2,5.701352358E-1,3.549760818E0,3.596491996E0
4.660792403E0,1.973558068E-1,5.615217686E-1,2.865993500E0,2.927144471E0
4.665797507E0,6.564747095E-1,8.415462971E-1,1.307896614E0,1.688121076E0
4.670802611E0,6.012505293E-1,1.110796452E0,1.406085968E0,1.890092248E0
4.675807716E0,4.427613020E-1,1.168998837E0,2.134735107E0,2.473800685E0
4.680812820E0,4.092997909E-1,1.111210585E0,2.928770065E0,3.159115284E0
4.685817924E0,6.000010967E-1,1.161187649E0,2.611845016E0,2.920632202E0
4.690823028E0,9.017713070E-1,1.380392313E0,1.663838387E0,2.342441590E0
4.695828132E0,1.325074196E0,1.592064857E0,1.367204666E0,2.481882498E0
4.700833236E0,1.698984742E0,1.762582302E0,1.802438736E0,3.040070875E0
4.705838341E0,1.926380038E0,1.982216597E0,2.528712273E0,3.746265934E0
4.710843445E0,2.115509987E0,2.254491329E0,3.144134521E0,4.409500601E0
4.715848549E0,2.383278370E0,2.520943403E0,3.438576698E0,4.884565604E0
4.720853653E0,2.648815632E0,2.656682968E0,3.503415108E0,5.133040625E0
4.725858757E0,2.816639662E0,2.700079918E0,3.549368858E0,5.274647840E0
4.730863861E0,2.882375002E0,2.675552130E0,3.542881966E0,5.293267183E0
4.735868966E0,2.851040125E0,2.578931332E0,3.459975243E0,5.172112265E0
4.740874070E0,2.646054506E0,2.492425919E0,3.219247818E0,4.855651133E0
4.745879174E0,2.390413761E0,2.330786705E0,2.902035713E0,4.423624746E0
4.750884278E0,2.144229412E0,2.084749699E0,2.661479950E0,4.003420613E0
4.755889382E0,1.906026125E0,1.802314281E0,2.478378296E0,3.608826864E0
4.760894486E0,1.684594393E0,1.406857967E0,2.386187553E0,3.242067033E0
4.765899591E0,1.494244814E0,8.984255791E-1,2.293947220E0,2.881341690E0
4.770904695E0,1.307014108E0,3.104865551E-1,2.192094803E0,2.570985687E0
4.775909799E0,1.099517941E0,-2.274219990E-1,2.080533981E0,2.364166262E0
4.780914903E0,8.916659951E-1,-7.291907072E-1,1.901709557E0,2.223350303E0
4.785920007E0,6.308269501E-1,-1.175026417E0,1.736804962E0,2.189776518E0
4.790925111E0,4.118740559E-1,-1.617008686E0,1.628705978E0,2.331746232E0
4.795930216E0,2.670795321E-1,-2.025903225E0,1.596370697E0,2.593070527E0
4.800935320E0,1.098409593E-1,-2.392423630E0,1.658920288E0,2.913378174E0
4.805940424E0,-4.104417562E-2,-2.755517483E0,1.759049416E0,3.269375486E0
4.810945528E0,-9.516149759E-2,-3.197582245E0,1.983137131E0,3.763830602E0
4.815950632E0,2.953767776E-2,-3.638688087E0,2.350539207E0,4.331969303E0
4.820955736E0,2.477906346E-1,-4.071108818E0,2.708503723E0,4.896051432E0
4.825960841E0,5.224738717E-1,-4.544295788E0,3.028725624E0,5.486053414E0
4.830965945E0,7.593905330E-1,-5.050114632E0,3.278087616E0,6.068458634E0
4.835971049E0,1.027070165E0,-5.546283245E0,3.394619942E0,6.583279996E0
4.840976153E0,1.217072010E0,-5.890130043E0,3.340329170E0,6.879876101E0
4.845981257E0,1.292121649E0,-6.020014763E0,3.105895042E0,6.896139508E0
4.850986309E0,1.324109554E0,-5.931324482E0,2.720226288E0,6.658341181E0
4.855991361E0,1.293687344E0,-5.748174191E0,2.212122917E0,6.293538056E0
4.860996414E0,1.181965590E0,-5.503348351E0,1.528941154E0,5.832799223E0
4.866001466E0,1.103708506E0,-5.224224091E0,7.709951401E-1,5.394916433E0
4.871006518E0,1.030056834E0,-4.985770226E0,3.840351105E-2,5.091207779E0
4.876011570E0,9.653809667E-1,-4.753151894E0,-6.931037903E-1,4.899469992E0
4.881016622E0,8.708354831E-1,-4.477547646E0,-1.423764229E0,4.778482179E0
4.886021674E0,7.600402832E-1,-4.153589725E0,-2.134578705E0,4.731426327E0
4.891026726E0,6.707214117E-1,-3.746811152E0,-2.773254871E0,4.709501417E0
4.896031778E0,6.402413249E-1,-3.265697002E0,-3.335438251E0,4.711670001E0
4.901036830E0,6.439990997E-1,-2.737929344E0,-3.840703964E0,4.760462044E0
4.906041882E0,5.715661645E-1,-2.248605013E0,-4.232102871E0,4.826345107E0
4.911046934E0,4.519315362E-1,-1.835078120E0,-4.557958126E0,4.934241188E0
4.916051986E0,2.993978262E-1,-1.467881680E0,-4.785153389E0,5.014180755E0
4.921057039E0,9.493386745E-2,-1.112886190E0,-4.981017113E0,5.104709550E0
4.926062091E0,-1.092888713E-1,-7.506809235E-1,-5.121772766E0,5.177646393E0
4.931067143E0,-2.614007592E-1,-4.671041965E-1,-5.221900463E0,5.249262913E0
4.936072195E0,-4.143660665E-1,-3.055408001E-1,-5.238249302E0,5.263488403E0
4.941077247E0,-5.206037760E-1,-2.330057621E-1,-5.170679569E0,5.202042597E0
4.946082299E0,-5.607903004E-1,-2.837052345E-1,-4.995090485E0,5.034471509E0
4.951087351E0,-6.013612747E-1,-4.104461670E-1,-4.754391670E0,4.809817210E0
4.956092403E0,-6.462285519E-1,-6.287415028E-1,-4.443461895E0,4.534013766E0
4.961097455E0,-6.661428809E-1,-8.489091396E-1,-4.229336262E0,4.364822823E0
4.966102507E0,-6.943489909E-1,-1.057403803E0,-4.030307770E0,4.224169036E0
4.971107559E0,-7.022511959E-1,-1.250377655E0,-3.807772636E0,4.068873735E0
4.976112611E0,-6.948959827E-1,-1.251991987E0,-3.527913570E0,3.807432012E0
4.981117664E0,-6.916768551E-1,-1.279264688E0,-3.257259846E0,3.567166483E0
4.986122716E0,-6.547391415E-1,-1.395634174E0,-3.086273193E0,3.449863811E0
4.991127768E0,-6.229499578E-1,-1.568076491E0,-2.885546684E0,3.342650176E0
4.996132820E0,-5.924373865E-1,-1.720520854E0,-2.640625477E0,3.206879632E0
5.001137872E0,-6.491643190E-1,-1.810266495E0,-2.418467999E0,3.089897499E0
5.006142924E0,-7.725434899E-1,-1.837546587E0,-2.242983818E0,3.000729463E0
5.011147976E0,-8.659623861E-1,-1.859918356E0,-2.152387619E0,2.973543275E0
5.016153028E0,-9.489813447E-1,-1.920524359E0,-2.108287811E0,3.005637520E0
5.021158080E0,-1.013195395E0,-1.943098187E0,-2.210950851E0,3.112956656E0
5.026163132E0,-1.093102694E0,-1.932378888E0,-2.407599926E0,3.274980774E0
5.031168184E0,-1.175615430E0,-1.902268887E0,-2.655202389E0,3.471425972E0
5.036173236E0,-1.189989924E0,-1.818875790E0,-2.877293587E0,3.605995500E0
5.041178289E0,-1.151196599E0,-1.681626558E0,-3.088432312E0,3.700207513E0
5.046183341E0,-1.040246248E0,-1.566414952E0,-3.317525387E0,3.813363706E0
5.051188445E0,-9.238987565E-1,-1.443422079E0,-3.545743465E0,3.938191582E0
5.056193549E0,-7.827393413E-1,-1.316344142E0,-3.730370522E0,4.032506293E0
5.061198653E0,-5.684700012E-1,-1.179162025E0,-3.852710724E0,4.069024594E0
5.066203757E0,-3.277794719E-1,-1.068960786E0,-3.903658867E0,4.060624225E0
5.071208861E0,-1.073800102E-1,-9.511451721E-1,-3.874101639E0,3.990597839E0
5.076213966E0,6.505757570E-2,-7.820961475E-1,-3.769136429E0,3.849973544E0
5.081219070E0,2.572448254E-1,-5.618395805E-1,-3.564983845E0,3.618141571E0
5.086224174E0,5.228217840E-1,-3.239805698E-1,-3.309607029E0,3.366274605E0
5.091229278E0,9.485241175E-1,-2.024652958E-1,-3.079606056E0,3.228724773E0
5.096234382E0,1.390331268E0,-9.693622589E-2,-2.779237747E0,3.109112433E0
5.101239486E0,1.747840643E0,4.506564140E-2,-2.379842281E0,2.953070793E0
5.106244591E0,1.983790874E0,1.660437584E-1,-2.015446663E0,2.832846980E0
5.111249695E0,2.094032764E0,2.898340225E-1,-1.638149738E0,2.674417982E0
5.116254799E0,2.107290745E0,5.215504169E-1,-1.252701759E0,2.506382018E0
5.121259903E0,1.975163698E0,8.845899105E-1,-9.259166718E-1,2.353952554E0
5.126265007E0,1.763356686E0,1.191852570E0,-6.479835510E-1,2.224819550E0
5.131270111E0,1.528190136E0,1.404920816E0,-3.756971359E-1,2.109577192E0
5.136275216E0,1.311685443E0,1.609863520E0,-4.203414917E-2,2.077004122E0
5.141280320E0,1.074918747E0,1.806702375E0,3.242444992E-1,2.127147922E0
5.146285424E0,9.130123854E-1,1.995109797E0,7.566881180E-1,2.320911809E0
5.151290528E0,7.198936343E-1,2.117164612E0,1.197996140E0,2.536893295E0
5.156295632E0,5.147531629E-1,2.176989079E0,1.681851387E0,2.798727631E0
5.161300736E0,4.031176865E-1,2.183480024E0,2.146245003E0,3.088115363E0
5.166305841E0,4.472859800E-1,2.193392992E0,2.610523224E0,3.438876134E0
5.171310945E0,5.657926202E-1,2.296785831E0,3.074910164E0,3.879486946E0
5.176316049E0,7.116006017E-1,2.512063742E0,3.534775734E0,4.394482808E0
5.181321153E0,8.190727830E-1,2.757128477E0,3.875514030E0,4.826204167E0
5.186326257E0,9.320579767E-1,2.955164671E0,4.130802155E0,5.163841278E0
5.191331361E0,1.051264048E0,3.168494463E0,4.324618340E0,5.463225882E0
5.196336466E0,1.047971010E0,3.426034689E0,4.375660896E0,5.655295325E0
5.201341570E0,9.082190394E-1,3.723644018E0,4.326948166E0,5.780386408E0
5.206346674E0,6.985931993E-1,3.990484715E0,4.211819649E0,5.843922096E0
5.211351778E0,4.756425023E-1,4.189189911E0,4.111425400E0,5.888918977E0
5.216356882E0,3.341523409E-1,4.258275986E0,4.044710159E0,5.882537924E0
5.221361986E0,2.683425248E-1,4.250761986E0,4.092865944E0,5.906990503E0
5.226367091E0,2.728113532E-1,4.238530159E0,4.193562508E0,5.968712629E0
5.231372195E0,2.995226681E-1,4.173509598E0,4.275068283E0,5.981981696E0
5.236377299E0,4.103590846E-1,4.136713982E0,4.308813095E0,5.987208651E0
5.241382403E0,5.763256550E-1,4.017757893E0,4.361914635E0,5.958257214E0
5.246387507E0,7.402647734E-1,3.787694454E0,4.405758858E0,5.857075407E0
5.251392611E0,8.258014321E-1,3.537225723E0,4.440450668E0,5.736855930E0
5.256397716E0,8.283720016E-1,3.294566154E0,4.447026253E0,5.596106576E0
5.261402820E0,8.348529935E-1,3.064337969E0,4.387311935E0,5.416239722E0
5.266407924E0,7.738808990E-1,2.703255892E0,4.251774788E0,5.097457495E0
5.271413028E0,6.457710862E-1,2.302606106E0,4.088266373E0,4.736342165E0
5.276418132E0,6.756037474E-1,1.948829412E0,4.021080017E0,4.519232347E0
5.281423236E0,8.062205315E-1,1.737412930E0,4.069260597E0,4.497496753E0
5.286428341E0,9.772065282E-1,1.691834211E0,4.122735023E0,4.562255985E0
5.291433445E0,1.061994314E0,1.654158831E0,4.057111740E0,4.508240126E0
5.296438549E0,9.946668744E-1,1.543426514E0,3.829391479E0,4.246853741E0
5.301443653E0,9.091967940E-1,1.484775782E0,3.611742973E0,4.009474434E0
5.306448757E0,8.206136823E-1,1.417180061E0,3.289018631E0,3.674159727E0
5.311453861E0,5.752906203E-1,1.217328310E0,2.908879280E0,3.205374577E0
5.316458966E0,2.291725129E-1,9.338843822E-1,2.499908447E0,2.678470146E0
5.321464070E0,-5.684169754E-2,5.388257504E-1,2.152845383E0,2.219979146E0
5.326469174E0,-2.511700988E-1,5.646157265E-2,1.829262733E0,1.847288953E0
5.331474226E0,-4.650775194E-1,-4.654266834E-1,1.586553574E0,1.717577171E0
5.336479278E0,-6.281757355E-1,-9.890904427E-1,1.482152939E0,1.889360207E0
5.341484330E0,-6.938288212E-1,-1.534719586E0,1.487500191E0,2.247091333E0
5.346489382E0,-7.488794923E-1,-2.070276499E0,1.502467155E0,2.665384180E0
5.351494434E0,-7.505170107E-1,-2.586870193E0,1.445925713E0,3.057102280E0
5.356499486E0,-6.931191087E-1,-3.046428680E0,1.346712112E0,3.402172147E0
5.361504539E0,-6.333284974E-1,-3.405935287E0,1.180955887E0,3.660076089E0
5.366509591E0,-6.277843714E-1,-3.771080494E0,9.823446274E-1,3.947171427E0
5.371514643E0,-6.279251575E-1,-4.036794186E0,8.322811127E-1,4.169255227E0
5.376519695E0,-6.422541142E-1,-4.256007671E0,6.208047867E-1,4.348734325E0
5.381524747E0,-7.034443021E-1,-4.419171333E0,3.288745880E-1,4.486877272E0
5.386529799E0,-7.489172220E-1,-4.530642986E0,-1.485919952E-2,4.592148045E0
5.391534851E0,-8.023926020E-1,-4.604292870E0,-3.913688660E-1,4.690044382E0
5.396539903E0,-9.214409590E-1,-4.682518005E0,-7.769279480E-1,4.835146880E0
5.401544955E0,-1.058515310E0,-4.664196014E0,-1.114376068E0,4.910907568E0
5.406550007E0,-1.214018583E0,-4.553494930E0,-1.427943707E0,4.924142609E0
5.411555059E0,-1.292715907E0,-4.345197201E0,-1.775255203E0,4.868612140E0
5.416560111E0,-1.285953641E0,-4.077076912E0,-2.127818108E0,4.775336932E0
5.421565164E0,-1.242255211E0,-3.820475101E0,-2.414083004E0,4.686899269E0
5.426570216E0,-1.195731521E0,-3.541622400E0,-2.648607731E0,4.581264673E0
5.431575268E0,-1.108533144E0,-3.283069372E0,-2.874703407E0,4.502367146E0
5.436580320E0,-1.019344330E0,-3.005962372E0,-3.025637627E0,4.385128925E0
5.441585372E0,-9.757562876E-1,-2.714596510E0,-3.106446266E0,4.239238487E0
5.446590424E0,-9.624859691E-1,-2.427812576E0,-3.083789825E0,4.041090550E0
5.451595476E0,-9.548918009E-1,-2.217042446E0,-3.029572487E0,3.873681067E0
5.456600528E0,-9.623566866E-1,-2.077259064E0,-2.939049721E0,3.725472973E0
5.461605580E0,-9.610741138E-1,-1.946154833E0,-2.783536911E0,3.529767672E0
5.466610632E0,-9.178186655E-1,-1.843193293E0,-2.582074642E0,3.302553872E0
5.471615684E0,-8.139365911E-1,-1.821687460E0,-2.363125324E0,3.092797969E0
5.476620736E0,-6.636574268E-1,-1.849300027E0,-2.078417778E0,2.860100038E0
5.481625789E0,-4.860531688E-1,-1.841336608E0,-1.703616619E0,2.555206014E0
5.486630841E0,-2.760688961E-1,-1.827996492E0,-1.362691879E0,2.296674633E0
5.491635893E0,-1.386441886E-1,-1.786842346E0,-1.079056740E0,2.091982607E0
5.496640945E0,-1.096633077E-2,-1.724126339E0,-8.761348724E-1,1.933996951E0
5.501645997E0,6.407874823E-2,-1.636270642E0,-7.822179794E-1,1.814759672E0
5.506651049E0,9.100994468E-2,-1.572158217E0,-7.634754181E-1,1.750102564E0
5.511656101E0,9.798514843E-2,-1.508423209E0,-8.579988480E-1,1.738132242E0
5.516661153E0,7.976311445E-2,-1.464515805E0,-9.938993454E-1,1.771723626E0
5.521666205E0,8.886319399E-2,-1.421242476E0,-1.171190262E0,1.843776958E0
5.526671257E0,1.492817998E-1,-1.364063263E0,-1.365991592E0,1.936204192E0
5.531676309E0,1.898098588E-1,-1.283066273E0,-1.564037800E0,2.031871325E0
5.536681361E0,1.343254298E-1,-1.187582850E0,-1.774967670E0,2.139837980E0
5.541686414E0,7.864877582E-2,-1.077369213E0,-2.056231499E0,2.322713505E0
5.546691466E0,-6.231755018E-3,-9.709066153E-1,-2.364889145E0,2.556442676E0
5.551696518E0,-9.177547693E-2,-8.677213192E-1,-2.710600376E0,2.847580978E0
5.556701570E0,-1.686200798E-1,-8.149132729E-1,-3.088722229E0,3.198862514E0
5.561706622E0,-2.081826776E-1,-8.114976883E-1,-3.403806210E0,3.505390882E0
5.566711726E0,-3.062707782E-1,-8.039886951E-1,-3.637009144E0,3.737383460E0
5.571716830E0,-4.049270749E-1,-7.200409174E-1,-3.807708263E0,3.896288885E0
5.576721934E0,-4.703000784E-1,-6.740128994E-1,-3.916109085E0,4.001422987E0
5.581727039E0,-4.401944280E-1,-6.034836769E-1,-3.914516449E0,3.985147765E0
5.586732143E0,-3.857750297E-1,-4.269747734E-1,-3.865283012E0,3.907882111E0
5.591737247E0,-4.107260704E-1,-2.258157730E-1,-3.873692513E0,3.901945970E0
5.596742351E0,-4.953987598E-1,-5.738186836E-2,-3.930125237E0,3.961640694E0
5.601747455E0,-6.061871052E-1,8.384680748E-2,-4.053850174E0,4.099779790E0
5.606752559E0,-6.907120347E-1,2.414417267E-1,-4.201889992E0,4.265120951E0
5.611757664E0,-7.874619961E-1,3.873343468E-1,-4.269182682E0,4.358445258E0
5.616762768E0,-9.204303622E-1,4.407353401E-1,-4.193795204E0,4.316173989E0
5.621767872E0,-1.021884203E0,4.547111988E-1,-4.004683495E0,4.157944142E0
5.626772976E0,-1.072262287E0,4.198930264E-1,-3.687665462E0,3.863280100E0
5.631778080E0,-1.109855533E0,4.938611984E-1,-3.352801800E0,3.566084421E0
5.636783184E0,-1.306765676E0,6.282072067E-1,-3.004751205E0,3.336286953E0
5.641788289E0,-1.605484962E0,8.747184277E-1,-2.715043545E0,3.273251555E0
5.646793393E0,-1.877234697E0,1.146825314E0,-2.493062496E0,3.324842706E0
5.651798497E0,-2.079957485E0,1.334403753E0,-2.376945019E0,3.428807976E0
5.656803601E0,-2.219999552E0,1.490216494E0,-2.237447739E0,3.486447417E0
5.661808705E0,-2.337148666E0,1.623628139E0,-2.064986229E0,3.516048969E0
5.666813809E0,-2.456711054E0,1.691128254E0,-1.830804825E0,3.499598588E0
5.671818914E0,-2.579180717E0,1.721228361E0,-1.534925938E0,3.459884085E0
5.676824018E0,-2.680386066E0,1.685051441E0,-1.167800903E0,3.374555789E0
5.681829122E0,-2.712690830E0,1.563321114E0,-7.820749283E-1,3.227120332E0
5.686834226E0,-2.623583078E0,1.427614927E0,-3.059711456E-1,3.002480790E0
5.691839330E0,-2.379907370E0,1.330108881E0,2.557153702E-1,2.738346047E0
5.696844434E0,-2.096314669E0,1.303583145E0,8.982486725E-1,2.626921180E0
5.701849539E0,-1.919827342E0,1.289754391E0,1.540431023E0,2.778872280E0
5.706854643E0,-1.830025673E0,1.263826609E0,2.158555984E0,3.099292758E0
5.711859747E0,-1.802066326E0,1.215478897E0,2.638038635E0,3.418198332E0
5.716864851E0,-1.864264488E0,1.192046165E0,2.983925819E0,3.714871389E0
5.721869955E0,-1.988015652E0,1.140614748E0,3.249015808E0,3.976092549E0
5.726875059E0,-2.058975697E0,1.094771385E0,3.390319824E0,4.114872272E0
5.731880164E0,-2.072876930E0,1.064260006E0,3.484444618E0,4.191756485E0
5.736885268E0,-2.049483776E0,1.073217869E0,3.531377792E0,4.221706936E0
5.741890372E0,-1.960356593E0,1.174513340E0,3.555016518E0,4.226182911E0
5.746895476E0,-1.811067939E0,1.339560747E0,3.674889565E0,4.310360007E0
5.751900580E0,-1.530057311E0,1.592071056E0,3.881343842E0,4.465489407E0
5.756905684E0,-1.260322928E0,1.912584066E0,4.011738777E0,4.619571377E0
5.761910789E0,-9.681618214E-1,2.186411381E0,4.047020912E0,4.700649987E0
5.766915893E0,-6.401191354E-1,2.371105909E0,4.063719749E0,4.748232718E0
5.771920997E0,-2.098620832E-1,2.505687714E0,4.076085091E0,4.789257007E0
5.776926101E0,1.414963007E-1,2.681476593E0,4.074505806E0,4.879747482E0
5.781931205E0,3.482496142E-1,2.932165623E0,4.082883835E0,5.038731333E0
5.786936309E0,5.067741871E-1,3.138463259E0,4.058101654E0,5.155090759E0
5.791941414E0,6.029837132E-1,3.143317938E0,3.909185410E0,5.052303196E0
5.796946466E0,6.128869653E-1,3.115130424E0,3.798719406E0,4.950751167E0
5.801951518E0,6.464003325E-1,3.140587330E0,3.702611923E0,4.898005433E0
5.806956570E0,6.841840744E-1,3.215194464E0,3.659018517E0,4.918739655E0
5.811961622E0,7.162306905E-1,3.176033258E0,3.648804665E0,4.890189070E0
5.816966674E0,7.515528202E-1,3.070516586E0,3.691197395E0,4.859819128E0
5.821971726E0,8.423408270E-1,2.988842249E0,3.728933334E0,4.852593108E0
5.826976778E0,9.975547194E-1,2.882409573E0,3.723967552E0,4.813661256E0
5.831981830E0,1.226505756E0,2.827023983E0,3.690913200E0,4.808245129E0
5.836986882E0,1.500801802E0,2.736089945E0,3.677770615E0,4.823338152E0
5.841991934E0,1.802211642E0,2.594837904E0,3.665513992E0,4.839126303E0
5.846996986E0,2.102854490E0,2.446550369E0,3.572806358E0,4.813787593E0
5.852002039E0,2.274462938E0,2.272318602E0,3.480990410E0,4.738555446E0
5.857007091E0,2.417743683E0,2.048534632E0,3.409136772E0,4.654480872E0
5.862012143E0,2.586031199E0,1.828289986E0,3.337962151E0,4.601325130E0
5.867017195E0,2.718395948E0,1.659910440E0,3.252923012E0,4.552635206E0
5.872022247E0,2.796916723E0,1.477283001E0,3.086763382E0,4.419639849E0
5.877027299E0,2.827008724E0,1.300219297E0,2.906290054E0,4.257824612E0
5.882032351E0,2.765895128E0,1.124251366E0,2.711378098E0,4.033074284E0
5.887037403E0,2.589430809E0,9.305841923E-1,2.473237038E0,3.699735166E0
5.892042455E0,2.393130779E0,6.859092712E-1,2.225339890E0,3.339114266E0
5.897047507E0,2.209744215E0,4.332637787E-1,1.953384399E0,2.981006140E0
5.902052559E0,1.981350899E0,1.011145115E-1,1.690833092E0,2.606701378E0
5.907057611E0,1.631225824E0,-2.812936306E-1,1.404062271E0,2.170579337E0
5.912062664E0,1.254805565E0,-6.511404514E-1,1.064238548E0,1.769498398E0
5.917067716E0,8.657959700E-1,-9.982186556E-1,7.573394775E-1,1.523025354E0
5.922072768E0,4.584236741E-1,-1.269611955E0,5.263118744E-1,1.448817093E0
5.927077820E0,4.084283113E-2,-1.541650653E0,3.567056656E-1,1.582906758E0
5.932082872E0,-3.404839635E-1,-1.919902563E0,3.586225510E-1,1.982565337E0
5.937087924E0,-6.717225909E-1,-2.409727097E0,4.842634201E-1,2.548039831E0
5.942092976E0,-9.432204962E-1,-2.901922941E0,6.715755463E-1,3.124393601E0
5.947098028E0,-1.240718603E0,-3.411787033E0,8.681392670E-1,3.732738833E0
5.952103080E0,-1.458653927E0,-3.926355839E0,1.083911896E0,4.326523599E0
5.957108132E0,-1.534153700E0,-4.346459866E0,1.252245903E0,4.776343867E0
5.962113184E0,-1.523624420E0,-4.701896667E0,1.296899796E0,5.109913182E0
5.967118236E0,-1.488132238E0,-4.902357101E0,1.194173813E0,5.260579227E0
5.972123289E0,-1.479305744E0,-5.043649197E0,9.632987976E-1,5.343658604E0
5.977128341E0,-1.472532034E0,-5.158889294E0,6.233835220E-1,5.401027342E0
5.982133393E0,-1.372062206E0,-5.247544289E0,2.461299896E-1,5.429535499E0
5.987138445E0,-1.211146593E0,-5.285234928E0,-1.398954391E-1,5.424034942E0
5.992143497E0,-1.104692340E0,-5.271351814E0,-5.731353760E-1,5.416269867E0
5.997148549E0,-1.014664173E0,-5.190794945E0,-1.015495300E0,5.385640746E0
6.002153601E0,-9.078072906E-1,-5.071226120E0,-1.486416340E0,5.361984891E0
6.007158653E0,-8.039515018E-1,-4.969380379E0,-1.880817413E0,5.373876953E0
6.012163705E0,-6.510099173E-1,-4.769794464E0,-2.246791840E0,5.312516044E0
6.017168757E0,-4.444248080E-1,-4.519793034E0,-2.488917828E0,5.178875788E0
6.022173809E0,-2.273327112E-1,-4.214443207E0,-2.750893116E0,5.037918681E0
6.027178861E0,9.220540524E-3,-3.781881332E0,-3.051848412E0,4.859680047E0
6.032183914E0,2.650666237E-1,-3.298485518E0,-3.257915020E0,4.643735275E0
6.037188966E0,5.117477179E-1,-2.782986879E0,-3.469807148E0,4.477327701E0
6.042194018E0,7.636010647E-1,-2.282877445E0,-3.639805317E0,4.363805537E0
6.047199070E0,9.776431322E-1,-1.663892388E0,-3.768062592E0,4.233511506E0
6.052204122E0,1.249085069E0,-1.055055857E0,-3.845092773E0,4.178288502E0
6.057209174E0,1.635260701E0,-4.758229256E-1,-3.823009491E0,4.185198512E0
6.062214226E0,2.007026434E0,1.570701599E-3,-3.730444431E0,4.236079937E0
6.067219278E0,2.273982763E0,3.532021046E-1,-3.624828815E0,4.293615408E0
6.072224330E0,2.412870407E0,5.310039520E-1,-3.486921787E0,4.273468421E0
6.077229382E0,2.448002100E0,6.015644073E-1,-3.326124668E0,4.173451728E0
6.082234434E0,2.340989590E0,6.594395638E-1,-3.142049789E0,3.973357482E0
6.087239486E0,2.110393524E0,6.555583477E-1,-2.977338791E0,3.707838164E0
6.092244539E0,1.851559043E0,6.034460068E-1,-2.822109222E0,3.428807145E0
6.097249643E0,1.592604041E0,5.167078972E-1,-2.723923206E0,3.197363338E0
6.102254747E0,1.352356315E0,4.135348797E-1,-2.663306713E0,3.015473652E0
6.107259851E0,1.097057939E0,2.932655811E-1,-2.663953304E0,2.895891578E0
6.112264955E0,8.453735709E-1,1.554734707E-1,-2.716109753E0,2.848873578E0
6.117270059E0,6.688306332E-1,1.916670799E-2,-2.776659489E0,2.856140699E0
6.122275164E0,5.625467300E-1,-2.019994259E-1,-2.783383846E0,2.846838286E0
6.127280268E0,4.836910665E-1,-4.745495319E-1,-2.731578350E0,2.814369306E0
6.132285372E0,4.237707257E-1,-7.315696478E-1,-2.578311443E0,2.713386385E0
6.137290476E0,3.413074315E-1,-8.489398956E-1,-2.448068142E0,2.613470363E0
6.142295580E0,1.941929162E-1,-9.225260019E-1,-2.469968319E0,2.643767881E0
6.147300684E0,1.204103231E-3,-1.004675031E0,-2.543452740E0,2.734689234E0
6.152305789E0,-1.905047894E-1,-1.095108271E0,-2.673276424E0,2.895161661E0
6.157310893E0,-3.860403597E-1,-1.131183863E0,-2.825991631E0,3.068359951E0
6.162315997E0,-5.429291129E-1,-1.150474310E0,-3.073479652E0,3.326355413E0
6.167321101E0,-6.900858879E-1,-1.176057577E0,-3.353666782E0,3.620277730E0
6.172326205E0,-8.279516697E-1,-1.178173304E0,-3.614175320E0,3.890483202E0
6.177331309E0,-9.233099818E-1,-1.131689787E0,-3.869713783E0,4.136170676E0
6.182336414E0,-1.014891386E0,-1.078810334E0,-4.063141823E0,4.324691635E0
6.187341518E0,-1.059353471E0,-9.419260025E-1,-4.209203720E0,4.441491903E0
6.192346622E0,-1.061411142E0,-7.871569395E-1,-4.322577000E0,4.520053272E0
6.197351726E0,-1.054806113E0,-6.759588718E-1,-4.374817371E0,4.550666255E0
6.202356830E0,-1.034720421E0,-6.315975189E-1,-4.284867764E0,4.453049913E0
6.207361934E0,-1.000599384E0,-6.678383350E-1,-4.062605858E0,4.236976932E0
6.212367039E0,-8.561185598E-1,-7.797459364E-1,-3.665157795E0,3.843738333E0
6.217372143E0,-6.387383342E-1,-8.814876080E-1,-3.164358139E0,3.346366611E0
6.222377247E0,-4.531084895E-1,-8.780202866E-1,-2.722737789E0,2.896468193E0
6.227382351E0,-2.989141047E-1,-7.316576242E-1,-2.325706005E0,2.456334860E0
6.232387455E0,-2.053339928E-1,-4.861614704E-1,-2.001704216E0,2.070105020E0
6.237392559E0,-1.014435142E-1,-2.325623035E-1,-1.678844929E0,1.697909393E0
6.242397664E0,9.837783873E-2,-4.743051529E-2,-1.290113449E0,1.294727989E0
6.247402768E0,3.175314665E-1,-3.120470047E-2,-7.542171478E-1,8.189282457E-1
6.252407872E0,5.755197406E-1,-4.089784622E-2,1.975154877E-2,5.773090414E-1
6.257412976E0,8.592075706E-1,1.279644966E-1,8.883695602E-1,1.242502731E0
6.262418080E0,1.083395123E0,4.113292694E-1,1.651091576E0,2.017186197E0
6.267423184E0,1.151920319E0,7.357373238E-1,2.303631783E0,2.678609568E0
6.272428289E0,1.216805339E0,1.061844826E0,2.769800186E0,3.206231860E0
6.277433393E0,1.318866491E0,1.393645287E0,3.135993958E0,3.676426813E0
6.282438497E0,1.508943558E0,1.764381170E0,3.459665298E0,4.166441593E0
6.287443549E0,1.757802963E0,2.116707325E0,3.879454613E0,4.756100214E0
6.292448601E0,1.984272361E0,2.421955347E0,4.299531937E0,5.318757315E0
6.297453653E0,2.141257763E0,2.698755264E0,4.782149315E0,5.893828709E0
6.302458705E0,2.262982368E0,2.994413853E0,5.102540970E0,6.334313528E0
6.307463757E0,2.301468134E0,3.222313643E0,5.332696915E0,6.642116919E0
6.312468809E0,2.285201311E0,3.406144857E0,5.424919128E0,6.801008408E0
6.317473861E0,2.170765400E0,3.488312244E0,5.431994438E0,6.810808198E0
6.322478914E0,2.044249535E0,3.430468559E0,5.344487190E0,6.671627539E0
6.327483966E0,1.976963520E0,3.271084785E0,5.229443550E0,6.477303473E0
6.332489018E0,1.940197587E0,3.154126167E0,5.010320663E0,6.230264176E0
6.337494070E0,1.785812616E0,3.051710129E0,4.706234932E0,5.886485254E0
6.342499122E0,1.619120479E0,3.007983446E0,4.431869507E0,5.595621758E0
6.347504174E0,1.468733788E0,2.908820152E0,4.230106354E0,5.339682891E0
6.352509226E0,1.296666384E0,2.783398151E0,4.081679344E0,5.107715267E0
6.357514278E0,1.117823124E0,2.627325535E0,3.895629883E0,4.829937907E0
6.362519330E0,1.047643065E0,2.507998943E0,3.791527748E0,4.665114935E0
6.367524382E0,1.096404433E0,2.401616096E0,3.740597725E0,4.578420459E0
6.372529434E0,1.164674163E0,2.255810499E0,3.618429184E0,4.420200977E0
6.377534486E0,1.152841330E0,2.085382700E0,3.444192886E0,4.188117569E0
6.382539539E0,1.037684202E0,2.020143509E0,3.265648842E0,3.977716764E0
6.387544591E0,8.966069818E-1,1.993754387E0,3.087431908E0,3.783014198E0
6.392549643E0,8.641254902E-1,2.064212561E0,2.832872391E0,3.610104201E0
6.397554695E0,9.400209785E-1,2.093575478E0,2.544878960E0,3.426821653E0
6.402559747E0,1.056835175E0,2.106586218E0,2.261531830E0,3.266363773E0
6.407564799E0,1.137861490E0,2.113623619E0,1.953902245E0,3.095136113E0
6.412569851E0,1.087187409E0,2.063184261E0,1.659971237E0,2.862553103E0
6.417574903E0,9.380460978E-1,1.922795534E0,1.427270889E0,2.571803908E0
6.422579955E0,7.428076863E-1,1.707785606E0,1.298511505E0,2.270336333E0
6.427585007E0,5.778489709E-1,1.461851120E0,1.306879044E0,2.044223805E0
6.432590059E0,4.574542046E-1,1.185037613E0,1.385248184E0,1.879492225E0
6.437595111E0,3.525768816E-1,8.770878315E-1,1.509702682E0,1.781234322E0
6.442600164E0,2.342042625E-1,4.895732403E-1,1.723411560E0,1.806842826E0
6.447605216E0,1.020778120E-1,-3.092122078E-2,1.988260269E0,1.991119007E0
6.452610268E0,-6.318920851E-2,-6.135655642E-1,2.261438370E0,2.344047584E0
6.457615320E0,-2.427189648E-1,-1.158993721E0,2.481071472E0,2.749162525E0
6.462620372E0,-4.088146985E-1,-1.649418831E0,2.676213264E0,3.170146586E0
6.467625424E0,-5.291588306E-1,-2.086254835E0,2.899770737E0,3.611251671E0
6.472630476E0,-6.432036757E-1,-2.456809759E0,3.166360855E0,4.058998180E0
6.477635528E0,-7.660771608E-1,-2.820264816E0,3.437988281E0,4.512264539E0
6.482640580E0,-9.029254317E-1,-3.192863464E0,3.652835846E0,4.934861817E0
6.487645632E0,-1.072977066E0,-3.571203232E0,3.772966385E0,5.304719375E0
6.492650684E0,-1.237487674E0,-3.941667080E0,3.822550774E0,5.628499758E0
6.497655736E0,-1.357151151E0,-4.290561676E0,3.811404228E0,5.897251981E0
6.502660789E0,-1.501866341E0,-4.613348007E0,3.682336807E0,6.090828080E0
6.507665841E0,-1.655282259E0,-4.833750725E0,3.440412521E0,6.159670750E0
6.512670893E0,-1.777618051E0,-4.917883873E0,3.028350830E0,6.042881471E0
6.517675945E0,-1.892410040E0,-4.846254826E0,2.455857277E0,5.753141451E0
6.522680997E0,-1.981587052E0,-4.589862823E0,1.732586861E0,5.291066548E0
6.527686049E0,-2.084727764E0,-4.215114594E0,9.159421921E-1,4.790848671E0
6.532691101E0,-2.107424259E0,-3.787667751E0,6.310939789E-2,4.334933310E0
6.537696153E0,-2.103285313E0,-3.281461954E0,-7.785367966E-1,3.974659886E0
6.542701205E0,-2.044168949E0,-2.718080997E0,-1.547400475E0,3.736447408E0
6.547706257E0,-1.968365192E0,-2.219569921E0,-2.196311951E0,3.691170323E0
6.552711309E0,-1.865692258E0,-1.826755285E0,-2.692465305E0,3.750628200E0
6.557716361E0,-1.745802879E0,-1.447290421E0,-3.069909096E0,3.816650247E0
6.562721414E0,-1.584739327E0,-1.061343551E0,-3.305097580E0,3.815955828E0
6.567726466E0,-1.420546532E0,-7.208063602E-1,-3.412766457E0,3.766230097E0
6.572731518E0,-1.199922681E0,-4.304996729E-1,-3.416970253E0,3.647030315E0
6.577736570E0,-9.653997421E-1,-1.857271194E-1,-3.313011169E0,3.455797192E0
6.582741622E0,-6.971505880E-1,-4.436898232E-2,-3.129559517E0,3.206576105E0
6.587746674E0,-4.280409515E-1,3.099942207E-2,-2.895136356E0,2.926772035E0
6.592751726E0,-2.193068266E-1,4.448008537E-2,-2.666963100E0,2.676334460E0
6.597756778E0,-9.407536685E-2,-3.362512589E-2,-2.463857651E0,2.465882265E0
6.602761830E0,-1.383481026E-1,-1.659846306E-1,-2.290300369E0,2.300471012E0
6.607766882E0,-2.279991508E-1,-3.630402088E-1,-2.193845749E0,2.235339119E0
6.612771934E0,-3.540577590E-1,-6.113123894E-1,-2.131132126E0,2.245169007E0
6.617776986E0,-5.073620677E-1,-9.068506956E-1,-2.068431854E0,2.314779641E0
6.622782039E0,-6.450054049E-1,-1.178907514E0,-2.038982391E0,2.441987733E0
6.627787091E0,-7.717460990E-1,-1.447583199E0,-2.023407936E0,2.604854859E0
6.632792143E0,-8.396970034E-1,-1.666152000E0,-2.040586472E0,2.764985840E0
6.637797195E0,-9.253033400E-1,-1.864105344E0,-2.142940521E0,2.987184139E0
6.642802247E0,-9.042150974E-1,-2.118561745E0,-2.315915108E0,3.266400403E0
6.647807299E0,-8.535495996E-1,-2.329438925E0,-2.588055134E0,3.585088841E0
6.652812351E0,-7.971705198E-1,-2.496799946E0,-2.782302380E0,3.822394189E0
6.657817403E0,-8.303684592E-1,-2.606251717E0,-3.027903557E0,4.080472980E0
6.662822455E0,-9.290553927E-1,-2.633440733E0,-3.420556068E0,4.415694491E0
6.667827507E0,-9.836643934E-1,-2.515422821E0,-3.902887821E0,4.746312353E0
6.672832559E0,-1.052531719E0,-2.351322651E0,-4.346000671E0,5.052154299E0
6.677837611E0,-1.126556396E0,-2.154315710E0,-4.711965084E0,5.302152435E0
6.682842664E0,-1.215163589E0,-1.980757833E0,-4.962850571E0,5.479955285E0
6.687847716E0,-1.351494789E0,-1.830009580E0,-5.137185097E0,5.618375561E0
6.692852768E0,-1.439360261E0,-1.672484636E0,-5.254374504E0,5.698895880E0
6.697857820E0,-1.507206798E0,-1.474097729E0,-5.338528633E0,5.739732085E0
6.702862872E0,-1.550528049E0,-1.244052172E0,-5.346744537E0,5.704338716E0
6.707867924E0,-1.541187406E0,-1.006231904E0,-5.197840691E0,5.514100934E0
6.712872976E0,-1.446403027E0,-7.420028448E-1,-4.901483536E0,5.164028543E0
6.717878028E0,-1.342364430E0,-4.474034309E-1,-4.524621487E0,4.740707931E0
6.722883132E0,-1.366678357E0,-1.279294491E-1,-4.229768753E0,4.446922462E0
6.727888236E0,-1.417807698E0,1.344425678E-1,-3.973605156E0,4.221112579E0
6.732893341E0,-1.462122083E0,3.444051743E-1,-3.732120991E0,4.023076310E0
6.737898445E0,-1.609342098E0,4.973375797E-1,-3.519646168E0,3.901952819E0
6.742903549E0,-1.749710560E0,5.407407284E-1,-3.326586723E0,3.797376306E0
6.747908653E0,-1.840974212E0,5.369675159E-1,-3.162514687E0,3.698515825E0
6.752913757E0,-1.912442327E0,6.294949055E-1,-2.970004082E0,3.588122592E0
6.757918861E0,-1.978431821E0,7.608494759E-1,-2.806478024E0,3.517016248E0
6.762923966E0,-1.991525292E0,9.454129934E-1,-2.676712513E0,3.467674811E0
6.767929070E0,-1.981671810E0,1.135596514E0,-2.580778599E0,3.446305381E0
6.772934174E0,-1.945193529E0,1.264730215E0,-2.480488300E0,3.396489745E0
6.777939278E0,-1.844674110E0,1.352299213E0,-2.313774109E0,3.253472969E0
6.782944382E0,-1.713695765E0,1.336315513E0,-2.071184158E0,3.002048657E0
6.787949486E0,-1.494939089E0,1.317061543E0,-1.762322903E0,2.659939097E0
6.792954591E0,-1.289331675E0,1.299060583E0,-1.363327980E0,2.282235252E0
6.797959695E0,-1.144561529E0,1.334264278E0,-8.885231018E-1,1.969709512E0
6.802964799E0,-1.026782751E0,1.398134351E0,-4.048347473E-1,1.781278657E0
6.807969903E0,-8.303486109E-1,1.442033648E0,1.452798843E-1,1.670343110E0
6.812975007E0,-5.600821972E-1,1.431906223E0,7.761955261E-1,1.722360878E0
6.817980111E0,-2.538592815E-1,1.419840932E0,1.454456329E0,2.048373994E0
6.822985216E0,-6.671100855E-3,1.543748140E0,2.204081535E0,2.690943745E0
6.827990320E0,1.689103842E-1,1.711660028E0,2.853048325E0,3.331395430E0
6.832995424E0,2.834976614E-1,1.808154702E0,3.372915268E0,3.837492900E0
6.838000528E0,3.182534277E-1,1.856682301E0,3.725669861E0,4.174825783E0
6.843005632E0,2.783937454E-1,1.823825479E0,3.916302681E0,4.329118749E0
6.848010736E0,1.973291636E-1,1.776885033E0,3.949744225E0,4.335520575E0
6.853015841E0,8.951914310E-2,1.716459394E0,3.921741486E0,4.281857401E0
6.858020945E0,-9.306445718E-2,1.666961789E0,3.765332222E0,4.118877194E0
6.863026049E0,-2.507101595E-1,1.590895295E0,3.461381912E0,3.817717665E0
6.868031153E0,-3.748872578E-1,1.546312332E0,3.148621559E0,3.527809520E0
6.873036257E0,-4.569981992E-1,1.581755280E0,2.817327499E0,3.263147462E0
6.878041309E0,-4.880291522E-1,1.702774048E0,2.567781448E0,3.119473269E0
6.883046361E0,-3.489440978E-1,1.848071098E0,2.399689674E0,3.048875088E0
6.888051414E0,-1.692920029E-1,2.008700848E0,2.331951141E0,3.082456002E0
6.893056466E0,-6.839737296E-2,2.199431419E0,2.340457916E0,3.212463234E0
6.898061518E0,3.081473708E-2,2.348866463E0,2.362895012E0,3.331875755E0
6.903066570E0,1.807894707E-1,2.462420940E0,2.360868454E0,3.416123765E0
6.908071622E0,3.381228745E-1,2.564288378E0,2.434781075E0,3.552190992E0
6.913076674E0,4.694355130E-1,2.673940420E0,2.594049454E0,3.754919392E0
6.918081726E0,5.801814795E-1,2.767220020E0,2.762123108E0,3.952649903E0
6.923086778E0,6.663480997E-1,2.853259563E0,2.967802048E0,4.170486653E0
6.928091830E0,7.526824474E-1,2.907597542E0,3.225522995E0,4.407340800E0
6.933096882E0,8.352369070E-1,2.972389936E0,3.559332848E0,4.711854512E0
6.938101934E0,9.337640405E-1,3.046539545E0,3.859357834E0,5.004793839E0
6.943106986E0,9.917899370E-1,3.162887096E0,4.135335922E0,5.299858984E0
6.948112039E0,1.086427093E0,3.292111397E0,4.315671921E0,5.535643179E0
6.953117091E0,1.213541389E0,3.491223097E0,4.367083549E0,5.721253372E0
6.958122143E0,1.291710019E0,3.712363720E0,4.261016846E0,5.797104771E0
6.963127195E0,1.257692695E0,3.836361170E0,4.078859329E0,5.739037495E0
6.968132247E0,1.134550929E0,3.835208654E0,3.839706421E0,5.544310294E0
6.973137299E0,9.789922833E-1,3.800290585E0,3.562671661E0,5.300307895E0
6.978142351E0,8.424637318E-1,3.655844212E0,3.319374084E0,5.009309968E0
6.983147403E0,7.431797981E-1,3.435941219E0,3.176615715E0,4.738026559E0
6.988152455E0,6.709851027E-1,3.198631287E0,3.081541061E0,4.491921463E0
6.993157507E0,5.918239355E-1,2.853276253E0,3.067513466E0,4.230966770E0
6.998162559E0,4.811322391E-1,2.447677612E0,3.177489281E0,4.039684648E0
7.003167611E0,3.719607592E-1,2.072304726E0,3.397049904E0,3.996592265E0
7.008172664E0,2.932757139E-1,1.659444928E0,3.668824196E0,4.037330689E0
7.013177716E0,1.788215339E-1,1.175051212E0,3.940281868E0,4.115646206E0
7.018182768E0,6.102681160E-3,6.232675314E-1,4.178119659E0,4.224355992E0
7.023187820E0,-1.663975865E-1,7.050585747E-2,4.272524834E0,4.276345132E0
7.028192872E0,-3.523333669E-1,-4.499702454E-1,4.290679932E0,4.328573241E0
7.033197924E0,-5.658683777E-1,-1.081888914E0,4.227936745E0,4.400697645E0
7.038202976E0,-7.884883285E-1,-1.739349365E0,4.137050629E0,4.556559882E0
7.043208028E0,-1.001506329E0,-2.346535206E0,4.042098999E0,4.779937941E0
7.048213080E0,-1.172042370E0,-2.837449074E0,3.924123764E0,4.982323542E0
7.053218132E0,-1.367316961E0,-3.304363251E0,3.745143890E0,5.178269491E0
7.058223184E0,-1.535094976E0,-3.747946978E0,3.548420906E0,5.384692569E0
7.063228236E0,-1.623079419E0,-4.207022190E0,3.276730537E0,5.574081586E0
7.068233289E0,-1.655198812E0,-4.624184132E0,2.954137802E0,5.731465096E0
7.073238341E0,-1.616460681E0,-4.980503082E0,2.561681747E0,5.829285502E0
7.078243393E0,-1.520151377E0,-5.271042824E0,2.046880722E0,5.855294472E0
7.083248445E0,-1.365690708E0,-5.442988873E0,1.395567894E0,5.782633373E0
7.088253497E0,-1.147922635E0,-5.605620384E0,7.608556747E-1,5.772313888E0
7.093258549E0,-9.383615851E-1,-5.705734253E0,9.963321686E-2,5.783238937E0
7.098263601E0,-7.695960999E-1,-5.727991581E0,-5.643177032E-1,5.806945856E0
7.103268653E0,-6.073422432E-1,-5.723875999E0,-1.279043198E0,5.896403358E0
7.108273705E0,-4.947785139E-1,-5.644337654E0,-2.059090614E0,6.028532781E0
7.113278757E0,-4.420419335E-1,-5.464052677E0,-2.794728756E0,6.153192793E0
7.118283809E0,-3.872873783E-1,-5.272727013E0,-3.491130352E0,6.335584645E0
7.123288861E0,-3.263795674E-1,-5.150347710E0,-4.143940926E0,6.618523366E0
7.128293914E0,-2.166134715E-1,-4.989994526E0,-4.739359379E0,6.885382639E0
7.133298966E0,-8.639011532E-2,-4.828622818E0,-5.210966110E0,7.104732885E0
7.138304018E0,7.904906571E-2,-4.636301517E0,-5.545020103E0,7.228332343E0
7.143309070E0,3.419676721E-1,-4.354809284E0,-5.765963078E0,7.233784349E0
7.148314122E0,5.878528953E-1,-3.983439922E0,-5.922094822E0,7.161324718E0
7.153319174E0,7.841035128E-1,-3.541224480E0,-6.056686401E0,7.059641584E0
7.158324226E0,9.361648560E-1,-3.094833612E0,-6.117320061E0,6.919248836E0
7.163329278E0,1.053819895E0,-2.687132835E0,-6.089813232E0,6.739216902E0
7.168334330E0,1.099197149E0,-2.284201622E0,-5.993503571E0,6.507526141E0
7.173339382E0,1.124777436E0,-1.895744801E0,-5.818814754E0,6.222345038E0
7.178344434E0,1.187293887E0,-1.555659533E0,-5.556063652E0,5.890635506E0
7.183349486E0,1.238175988E0,-1.264661789E0,-5.243290901E0,5.533945129E0
7.188354539E0,1.209971666E0,-9.854536057E-1,-4.918407440E0,5.160027325E0
7.193359591E0,1.111797333E0,-7.145600319E-1,-4.566599369E0,4.754000331E0
7.198364643E0,1.019842267E0,-5.011730194E-1,-4.201765060E0,4.352709762E0
7.203369695E0,9.759907126E-1,-3.177123070E-1,-3.928751945E0,4.060614588E0
7.208374747E0,9.551751614E-1,-2.177879810E-1,-3.637145519E0,3.766778295E0
7.213379799E0,9.375860095E-1,-1.305675507E-1,-3.336265564E0,3.467965300E0
7.218384851E0,9.087363482E-1,-9.531259537E-2,-3.044999123E0,3.179136030E0
7.223389903E0,9.066215754E-1,-1.127340794E-1,-2.734474659E0,2.883057980E0
7.228394955E0,8.836483955E-1,-1.838004589E-1,-2.418844223E0,2.581748336E0
7.233400007E0,8.253744841E-1,-2.854200602E-1,-2.097965240E0,2.272480099E0
7.238405059E0,7.271810770E-1,-3.609094620E-1,-1.824341297E0,1.996814745E0
7.243410111E0,6.082433462E-1,-3.868921995E-1,-1.645701885E0,1.796658075E0
7.248415164E0,4.588958621E-1,-3.734972477E-1,-1.499733925E0,1.612230583E0
7.253420216E0,3.743789792E-1,-3.163360357E-1,-1.324257851E0,1.412050623E0
7.258425268E0,4.018786848E-1,-2.494280338E-1,-1.148018837E0,1.241639268E0
7.263430320E0,4.549810290E-1,-2.210435867E-1,-9.614658356E-1,1.086409019E0
7.268435372E0,5.051912069E-1,-2.171982527E-1,-8.124208450E-1,9.810305123E-1
7.273440424E0,6.339019537E-1,-2.239842415E-1,-6.577739716E-1,9.405675016E-1
7.278445476E0,8.264075518E-1,-1.842411757E-1,-5.119075775E-1,9.894157975E-1
7.283450528E0,1.030210972E0,-6.461942196E-2,-4.561347961E-1,1.128525263E0
7.288455580E0,1.169732571E0,4.888761044E-2,-5.094785690E-1,1.276805662E0
7.293460632E0,1.221963167E0,1.617145538E-1,-6.097097397E-1,1.375169642E0
7.298465684E0,1.187704563E0,1.887753010E-1,-8.669013977E-1,1.482496636E0
7.303470736E0,1.110489607E0,1.315655708E-1,-1.094562531E0,1.564788740E0
7.308475789E0,1.009456158E0,5.832302570E-2,-1.312064171E0,1.656476893E0
7.313480841E0,9.567472935E-1,3.505468369E-3,-1.553037643E0,1.824089799E0
7.318485893E0,8.381224871E-1,-1.774859428E-2,-1.822342396E0,2.005915283E0
7.323490945E0,6.733582020E-1,-3.812003136E-2,-2.115275383E0,2.220192413E0
7.328495997E0,5.394052267E-1,-1.093212366E-1,-2.369771957E0,2.432843657E0
7.333501049E0,4.645100534E-1,-1.826094389E-1,-2.605187893E0,2.652568520E0
7.338506101E0,3.519214094E-1,-2.333551645E-1,-2.730871677E0,2.763324706E0
7.343511153E0,1.381949186E-1,-2.227817774E-1,-2.670622349E0,2.683459201E0
7.348516205E0,-8.687883615E-2,-1.942429543E-1,-2.381659508E0,2.391146225E0
7.353521257E0,-2.612686753E-1,-2.009192705E-1,-2.017214775E0,2.043963141E0
7.358526309E0,-3.172414899E-1,-2.530444860E-1,-1.615451336E0,1.665640025E0
7.363531361E0,-2.442596555E-1,-2.842603922E-1,-1.204913139E0,1.261856736E0
7.368536414E0,-1.470114589E-1,-2.088283300E-1,-8.524580002E-1,8.898911633E-1
7.373541466E0,-5.400687456E-2,-2.716648579E-2,-5.818538666E-1,5.849860533E-1
7.378546518E0,9.684783220E-2,1.790603399E-1,-3.307895660E-1,3.884119526E-1
7.383551570E0,1.857073605E-1,4.239981174E-1,-1.613903046E-1,4.902126658E-1
7.388556622E0,2.126733363E-1,6.741287708E-1,7.750511169E-3,7.069226394E-1
7.393561674E0,2.591318190E-1,9.295481443E-1,1.622743607E-1,9.785407607E-1
7.398566726E0,3.870922625E-1,1.161967516E0,3.595209122E-1,1.276426345E0
7.403571778E0,5.389231443E-1,1.409852982E0,6.185359955E-1,1.631168404E0
7.408576830E0,6.375277042E-1,1.677768350E0,9.822893143E-1,2.046030426E0
7.413581882E0,7.831532359E-1,1.945793629E0,1.455535889E0,2.553042608E0
7.418586934E0,9.852676392E-1,2.203498840E0,2.043051720E0,3.162312412E0
7.423591986E0,1.205333948E0,2.497667313E0,2.687437057E0,3.861798787E0
7.428597039E0,1.385780811E0,2.817274094E0,3.355322838E0,4.595172807E0
7.433602091E0,1.588672996E0,3.046402931E0,4.008549690E0,5.279481350E0
7.438607143E0,1.742555976E0,3.208074331E0,4.642496109E0,5.906014931E0
7.443612195E0,1.766785383E0,3.286802530E0,5.214338303E0,6.412014145E0
7.448617247E0,1.743487835E0,3.353389263E0,5.638256073E0,6.787849507E0
7.453622299E0,1.677956820E0,3.402510405E0,5.861939430E0,6.982474492E0
7.458627351E0,1.508242130E0,3.438887119E0,5.904819489E0,6.997687628E0
7.463632403E0,1.272753239E0,3.448623180E0,5.743192673E0,6.818882953E0
7.468637455E0,9.521936178E-1,3.442344189E0,5.434596062E0,6.503171576E0
7.473642507E0,5.797988772E-1,3.402281761E0,5.036439896E0,6.105523298E0
7.478647559E0,2.416590452E-1,3.320433855E0,4.634736061E0,5.706527704E0
7.483652611E0,-3.849744797E-2,3.250989914E0,4.186232567E0,5.300467958E0
7.488657664E0,-2.557191253E-1,3.171595335E0,3.772071838E0,4.934869319E0
7.493662716E0,-3.480381966E-1,3.135738373E0,3.420750618E0,4.653549239E0
7.498667768E0,-3.978387713E-1,3.086472511E0,3.112907410E0,4.401679315E0
7.503672820E0,-3.484346271E-1,3.019104719E0,2.896242142E0,4.198168474E0
7.508677872E0,-2.385173440E-1,2.957551718E0,2.713220596E0,4.020642821E0
7.513682924E0,-1.255344152E-1,2.858752728E0,2.587705612E0,3.858036597E0
7.518687976E0,3.429722786E-2,2.785022020E0,2.495732307E0,3.739813325E0
7.523693028E0,2.465164065E-1,2.655180931E0,2.427703857E0,3.606175555E0
7.528698080E0,4.308076501E-1,2.469668388E0,2.369222641E0,3.449358361E0
7.533703132E0,5.688003302E-1,2.291002035E0,2.310683250E0,3.303253128E0
7.538708184E0,6.370725632E-1,2.148367882E0,2.213728905E0,3.149911375E0
7.543713236E0,7.217934728E-1,2.051691532E0,2.164381981E0,3.068382851E0
7.548718289E0,7.609337568E-1,1.991566658E0,2.105133057E0,2.996154723E0
7.553723341E0,7.305226326E-1,1.820021868E0,2.098068237E0,2.871938935E0
7.558728393E0,6.260802746E-1,1.546847820E0,2.100055695E0,2.682340137E0
7.563733445E0,4.859855473E-1,1.129228592E0,2.058446884E0,2.397611883E0
7.568738497E0,4.006242156E-1,6.487879753E-1,2.059302330E0,2.195939818E0
7.573743549E0,3.550114632E-1,1.053402424E-1,2.145624161E0,2.177345344E0
7.578748601E0,2.670704722E-1,-4.587717056E-1,2.322207451E0,2.382109477E0
7.583753653E0,1.370153427E-1,-9.778194427E-1,2.455327988E0,2.646420147E0
7.588758705E0,-4.434591532E-2,-1.466860056E0,2.545215607E0,2.937986976E0
7.593763757E0,-2.293684483E-1,-1.907354355E0,2.520299911E0,3.168993873E0
7.598768809E0,-3.947817087E-1,-2.342787743E0,2.438154221E0,3.404277164E0
7.603773861E0,-5.556730628E-1,-2.787824392E0,2.375378609E0,3.704478496E0
7.608778914E0,-6.883729696E-1,-3.185291052E0,2.303281784E0,3.990619427E0
7.613783966E0,-8.307942748E-1,-3.545618057E0,2.174264908E0,4.241350543E0
7.618789018E0,-9.295836091E-1,-3.883670330E0,1.969442368E0,4.452608691E0
7.623794070E0,-1.008778811E0,-4.161295414E0,1.688928604E0,4.602878886E0
7.628799122E0,-1.102078676E0,-4.330741882E0,1.366279602E0,4.672967217E0
7.633804174E0,-1.176157475E0,-4.387123108E0,9.584436417E-1,4.642069558E0
7.638809226E0,-1.255273104E0,-4.344350338E0,5.084104538E-1,4.550557286E0
7.643814278E0,-1.301998377E0,-4.225762367E0,6.381320953E-2,4.422255022E0
7.648819330E0,-1.312583566E0,-4.064010143E0,-3.182888031E-1,4.282564865E0
7.653824382E0,-1.297255874E0,-3.873028278E0,-5.951185226E-1,4.127636964E0
7.658829434E0,-1.217764258E0,-3.695309162E0,-8.291311264E-1,3.978155102E0
7.663834486E0,-1.045577884E0,-3.535261393E0,-1.044399261E0,3.831719724E0
7.668839539E0,-8.426210880E-1,-3.349291801E0,-1.183658600E0,3.650864767E0
7.673844591E0,-6.901367903E-1,-3.098546982E0,-1.314105034E0,3.435717425E0
7.678849643E0,-5.826742649E-1,-2.858771563E0,-1.407196045E0,3.239179658E0
7.683854695E0,-5.295053720E-1,-2.609843493E0,-1.501446724E0,3.057123036E0
7.688859747E0,-4.734102488E-1,-2.403763294E0,-1.510938644E0,2.878390318E0
7.693864799E0,-4.192765951E-1,-2.225671291E0,-1.459792137E0,2.694512691E0
7.698869851E0,-3.907701969E-1,-2.104276657E0,-1.314538956E0,2.511711421E0
7.703874903E0,-4.104808569E-1,-2.040049314E0,-1.122815132E0,2.364531573E0
7.708879955E0,-4.442778826E-1,-2.043345213E0,-9.561166763E-1,2.299304589E0
7.713885007E0,-4.633752108E-1,-2.120189667E0,-7.518978119E-1,2.296795840E0
7.718890059E0,-4.576859474E-1,-2.195505142E0,-5.815181732E-1,2.316869146E0
7.723895111E0,-4.894776344E-1,-2.308987141E0,-5.020093918E-1,2.413094155E0
7.728900164E0,-5.399713516E-1,-2.442707062E0,-4.652156830E-1,2.544565283E0
7.733905216E0,-6.140810251E-1,-2.568901062E0,-4.900445938E-1,2.686352895E0
7.738910268E0,-6.879394054E-1,-2.655047178E0,-5.379972458E-1,2.794991446E0
7.743915320E0,-7.425678968E-1,-2.692389011E0,-6.615419388E-1,2.870192225E0
7.748920372E0,-7.877025604E-1,-2.691180706E0,-8.509407043E-1,2.930363288E0
7.753925424E0,-8.478252888E-1,-2.690151930E0,-1.101334572E0,3.027980014E0
7.758930476E0,-8.036823273E-1,-2.656177044E0,-1.407849312E0,3.111787502E0
7.763935528E0,-6.937080622E-1,-2.584564209E0,-1.708253384E0,3.174796474E0
7.768940580E0,-6.424927711E-1,-2.508758545E0,-2.069544792E0,3.315068935E0
7.773945632E0,-5.977637172E-1,-2.385502815E0,-2.467813492E0,3.483970231E0
7.778950684E0,-5.645737648E-1,-2.209705830E0,-2.855274677E0,3.654331248E0
7.783955736E0,-5.047691464E-1,-2.009596825E0,-3.208125114E0,3.819075548E0
7.788960789E0,-4.232655764E-1,-1.765353799E0,-3.545661449E0,3.983383348E0
7.793965841E0,-3.151817918E-1,-1.581257343E0,-3.858493328E0,4.181827963E0
7.798970893E0,-2.090727687E-1,-1.408453941E0,-4.132457733E0,4.370887878E0
7.803975945E0,-1.428664327E-1,-1.203270078E0,-4.386807442E0,4.551082204E0
7.808980997E0,-5.890321732E-2,-9.986141920E-1,-4.521227360E0,4.630571966E0
7.813986049E0,6.656682491E-2,-7.316402197E-1,-4.626878262E0,4.684840552E0
7.818991101E0,1.905536652E-1,-4.737858772E-1,-4.641689777E0,4.669696751E0
7.823996153E0,2.510837913E-1,-2.292752266E-1,-4.608915806E0,4.621440804E0
7.829001205E0,2.868992388E-1,2.122211456E-2,-4.533408642E0,4.542527431E0
7.834006257E0,3.464013338E-1,2.729895115E-1,-4.486934185E0,4.508558033E0
7.839011309E0,4.012492895E-1,4.589333534E-1,-4.412014484E0,4.453930020E0
7.844016361E0,4.666090608E-1,6.556723118E-1,-4.313421249E0,4.387850621E0
7.849021414E0,4.571071863E-1,7.867410183E-1,-4.248555183E0,4.344896956E0
7.854026466E0,4.539932013E-1,8.905773163E-1,-4.193514824E0,4.311009668E0
7.859031518E0,4.477406442E-1,1.005769968E0,-4.148373604E0,4.291974892E0
7.864036570E0,4.431698918E-1,1.137378693E0,-4.079727173E0,4.258427368E0
7.869041622E0,4.067605436E-1,1.300065756E0,-4.025965691E0,4.250179390E0
7.874046674E0,3.816643357E-1,1.470221043E0,-3.958469391E0,4.239893572E0
7.879051726E0,3.392267227E-1,1.629157066E0,-3.872592926E0,4.214997448E0
7.884056778E0,2.364836037E-1,1.796293974E0,-3.749302387E0,4.164116344E0
7.889061830E0,9.716087580E-2,1.981363058E0,-3.626968861E0,4.134022608E0
7.894066882E0,-2.703499794E-2,2.155680656E0,-3.424355030E0,4.046467269E0
7.899071934E0,-7.497900724E-2,2.319213390E0,-3.060297012E0,3.840545587E0
7.904076986E0,-1.862593293E-1,2.385335445E0,-2.659237385E0,3.577158257E0
7.909082039E0,-3.467066288E-1,2.415809393E0,-2.268916130E0,3.332314648E0
7.914087091E0,-5.081970096E-1,2.376862526E0,-1.903557777E0,3.087275802E0
7.919092143E0,-6.181025505E-1,2.258813858E0,-1.491324902E0,2.776389881E0
7.924097195E0,-6.765840650E-1,2.133217096E0,-1.060889244E0,2.476664524E0
7.929102247E0,-6.833204031E-1,1.985257864E0,-5.738697052E-1,2.176580345E0
7.934107299E0,-6.856744289E-1,1.871583462E0,-1.114225388E-1,1.996343923E0
7.939112351E0,-6.977205873E-1,1.786751032E0,3.122882843E-1,1.943403520E0
7.944117403E0,-7.191926837E-1,1.706451654E0,6.687068939E-1,1.968853543E0
7.949122455E0,-6.784401536E-1,1.630370855E0,1.039278030E0,2.049021472E0
7.954127507E0,-6.760377288E-1,1.577370882E0,1.452725410E0,2.248452141E0
7.959132559E0,-6.832857728E-1,1.527680755E0,1.966503143E0,2.582212723E0
7.964137611E0,-6.331480742E-1,1.523524284E0,2.537602425E0,3.026785224E0
7.969142664E0,-5.065776110E-1,1.616486549E0,3.017878532E0,3.460815002E0
7.974147716E0,-4.325937629E-1,1.758064628E0,3.436237335E0,3.884025698E0
7.979152768E0,-2.960321307E-1,1.871173501E0,3.764159203E0,4.214002823E0
7.984157820E0,-2.018966675E-1,1.998591065E0,3.987458229E0,4.464857404E0
7.989162872E0,-2.168246359E-1,2.150178194E0,4.106198311E0,4.640166350E0
7.994167924E0,-2.301068157E-1,2.345546484E0,4.110852242E0,4.738527578E0
7.999172976E0,-2.082218081E-1,2.475523472E0,3.996601105E0,4.705782950E0
8.004178028E0,-2.135825306E-1,2.550635338E0,3.792104721E0,4.575086484E0
8.009183080E0,-2.364902943E-1,2.639235497E0,3.568943977E0,4.445093113E0
8.014188132E0,-2.671234012E-1,2.709057331E0,3.302982330E0,4.280191445E0
8.019193184E0,-2.342448235E-1,2.775746822E0,3.084858894E0,4.156440239E0
8.024198236E0,-2.296731770E-1,2.864040852E0,2.904753685E0,4.085715817E0
8.029203289E0,-2.542239428E-1,2.931440830E0,2.843780518E0,4.092073165E0
8.034208341E0,-2.457958013E-1,2.930356264E0,2.853919983E0,4.097836341E0
8.039213393E0,-2.234293967E-1,2.879906178E0,2.959017754E0,4.135162192E0
8.044218445E0,-2.057962716E-1,2.755728483E0,3.087339401E0,4.143435309E0
8.049223497E0,-1.783748269E-1,2.648268938E0,3.215058327E0,4.169142117E0
8.054228549E0,-1.700339168E-1,2.465713263E0,3.438015938E0,4.234218584E0
8.059233601E0,-8.028686047E-2,2.331259727E0,3.612879753E0,4.300478811E0
8.064238653E0,4.285986722E-2,2.196352720E0,3.739846230E0,4.337309311E0
8.069243705E0,2.135691643E-1,2.041550636E0,3.819031715E0,4.335728777E0
8.074248757E0,4.123353958E-1,1.991073251E0,3.931820869E0,4.426466821E0
8.079253809E0,6.435459256E-1,2.015851736E0,4.078215599E0,4.594524138E0
8.084258861E0,8.642898202E-1,2.110924244E0,4.181672096E0,4.763337021E0
8.089263914E0,1.026719332E0,2.190130234E0,4.261371613E0,4.900011331E0
8.094268966E0,1.202327609E0,2.224956989E0,4.336437225E0,5.020031184E0
8.099274018E0,1.419641733E0,2.182144880E0,4.449885368E0,5.155445540E0
8.104279070E0,1.607198238E0,2.085703850E0,4.577762604E0,5.281018574E0
8.109284122E0,1.708529353E0,1.940322280E0,4.681829453E0,5.348219341E0
8.114289174E0,1.777319312E0,1.755669475E0,4.680810928E0,5.305773288E0
8.119294226E0,1.829399586E0,1.332781076E0,4.206212044E0,4.776528865E0
8.124299278E0,1.697252750E0,1.472324014E0,4.257820129E0,4.814295084E0
8.129304330E0,1.653391004E0,1.299043417E0,4.238005638E0,4.730952061E0
8.134309382E0,1.576740384E0,1.010213375E0,4.012771606E0,4.428202487E0
8.139314434E0,1.268127561E0,6.127716303E-1,3.768484116E0,4.023072099E0
8.144319486E0,7.805816531E-1,-7.041096687E-3,3.638897896E0,3.721684456E0
8.149324539E0,3.962512016E-1,-8.058421612E-1,3.604730606E0,3.714899641E0
8.154329591E0,-1.006641518E-2,-1.564594269E0,3.532194138E0,3.863217828E0
8.159334643E0,-5.206936598E-1,-2.303916693E0,3.426405907E0,4.161659699E0
8.164339695E0,-9.690921307E-1,-3.034689903E0,3.297226906E0,4.584777817E0
8.169344747E0,-1.202634454E0,-3.753078699E0,3.173557281E0,5.059979760E0
8.174349799E0,-1.335973263E0,-4.435972214E0,2.921633720E0,5.477099382E0
8.179354851E0,-1.406511426E0,-5.079052448E0,2.642129898E0,5.895413350E0
8.184359903E0,-1.413886547E0,-5.572688103E0,2.296887398E0,6.191091953E0
8.189364955E0,-1.410116315E0,-5.903030872E0,1.871720314E0,6.351184018E0
8.194370007E0,-1.414277434E0,-6.079948902E0,1.338072777E0,6.384073783E0
8.199375059E0,-1.431393743E0,-6.160604477E0,6.960268021E-1,6.362891550E0
8.204380111E0,-1.424023986E0,-6.139244080E0,2.682399750E-2,6.302291782E0
8.209385164E0,-1.373923659E0,-6.067150593E0,-5.980424881E-1,6.249450964E0
8.214390216E0,-1.315005898E0,-5.990818024E0,-1.159775734E0,6.242132717E0
8.219395268E0,-1.242242575E0,-5.875589371E0,-1.673047066E0,6.234164222E0
8.224400320E0,-1.169971466E0,-5.758850098E0,-2.138119698E0,6.253378568E0
8.229405372E0,-1.060330629E0,-5.592430115E0,-2.536017418E0,6.231449268E0
8.234410424E0,-8.710891604E-1,-5.376038551E0,-2.828669071E0,6.136933725E0
8.239415476E0,-6.603521705E-1,-5.128873825E0,-3.054489613E0,6.005940267E0
8.244420528E0,-5.098038912E-1,-4.832159042E0,-3.165694237E0,5.799248315E0
8.249425580E0,-3.141752183E-1,-4.477010727E0,-3.234035492E0,5.531845685E0
8.254430632E0,-1.018436402E-1,-4.044567108E0,-3.312129974E0,5.228680540E0
8.259435684E0,1.471563280E-1,-3.649593115E0,-3.419112206E0,5.003150324E0
