"Time (s)","Linear Acceleration x (m/s^2)","Linear Acceleration y (m/s^2)","Linear Acceleration z (m/s^2)","Absolute acceleration (m/s^2)"
2.486231000E-2,0.000000000E0,0.000000000E0,0.000000000E0,0.000000000E0
2.986246600E-2,1.367530823E-1,3.759050369E-2,3.422307968E-2,1.458960954E-1
3.486293500E-2,2.896695137E-1,9.381413460E-2,2.833485603E-1,4.159277890E-1
3.986387200E-2,3.976428509E-1,1.730852127E-1,7.450695038E-1,8.620944804E-1
4.486538300E-2,5.469336510E-1,3.072948456E-1,1.444499016E0,1.574847277E0
4.986757000E-2,7.876591682E-1,5.161147118E-1,2.437929153E0,2.613480422E0
5.487048700E-2,1.372040033E0,4.277014732E-1,3.078095913E0,3.397071806E0
5.987418500E-2,2.049857855E0,7.304573059E-2,3.403928280E0,3.974164143E0
6.487866400E-2,2.468174458E0,-3.765516281E-1,3.619108200E0,4.396773868E0
6.988387200E-2,2.607609034E0,-8.698633909E-1,3.724380493E0,4.628962870E0
7.488975800E-2,2.541749001E0,-1.379556060E0,3.587906837E0,4.608333579E0
7.989626800E-2,2.363721132E0,-1.672184944E0,3.290458679E0,4.382978257E0
8.490330000E-2,2.128720522E0,-2.038713455E0,2.820750237E0,4.079759247E0
8.991069500E-2,1.902288437E0,-2.430209637E0,2.167156219E0,3.771098813E0
9.491835200E-2,1.620398998E0,-2.455809593E0,1.420803070E0,3.267319243E0
9.992611200E-2,1.284365892E0,-2.465352058E0,6.007795334E-1,2.844027525E0
1.049337160E-1,7.259702086E-1,-2.557450771E0,-3.054494858E-1,2.675983292E0
1.099381430E-1,1.463612318E-1,-2.672013521E0,-1.300101280E0,2.975120368E0
1.149425700E-1,-4.287850857E-1,-2.670782804E0,-2.162889957E0,3.463384242E0
1.199469970E-1,-8.715136051E-1,-2.599404097E0,-2.646380424E0,3.810481200E0
1.249514250E-1,-1.044274449E0,-2.588035345E0,-2.867230892E0,4.001180958E0
1.299558520E-1,-1.210001826E0,-2.202257156E0,-2.930171967E0,3.860045175E0
1.349602790E-1,-2.003771305E0,-1.546687007E0,-2.544925213E0,3.589426762E0
1.399647060E-1,-2.407169104E0,-1.037585020E0,-2.499771595E0,3.622140775E0
1.449691330E-1,-2.560766935E0,-5.923136473E-1,-2.684417725E0,3.756921782E0
1.499735600E-1,-2.584354877E0,-2.153410912E-1,-2.593266487E0,3.667464109E0
1.549779870E-1,-2.380933523E0,1.432405710E-1,-2.452871323E0,3.421394457E0
1.599824140E-1,-2.062259912E0,5.177005529E-1,-2.287069798E0,3.122758087E0
1.649868410E-1,-1.767083883E0,9.090136290E-1,-2.007431507E0,2.824654401E0
1.699912680E-1,-8.534786701E-1,1.123891950E0,-1.764439106E0,2.259381401E0
1.749956950E-1,-8.074204922E-1,1.201592803E0,-1.365525246E0,1.990078469E0
1.800001220E-1,-8.692758083E-1,1.249075174E0,-1.091712475E0,1.872876224E0
1.850045500E-1,-7.570610046E-1,1.225735188E0,-9.791722298E-1,1.741937533E0
1.900089770E-1,-4.656958580E-1,1.170919895E0,-1.007749081E0,1.613531606E0
1.950134040E-1,-1.347368956E-1,1.150428772E0,-1.098066807E0,1.596054856E0
2.000178310E-1,3.207442760E-1,9.899280071E-1,-1.411309242E0,1.753461755E0
2.050222580E-1,4.547516108E-1,8.356785178E-1,-1.653396130E0,1.907583910E0
2.100266850E-1,4.808592796E-1,6.898781061E-1,-1.878138065E0,2.057804665E0
2.150311120E-1,4.338411093E-1,5.690104365E-1,-2.091327667E0,2.210348931E0
2.200355390E-1,4.123975039E-1,4.526672661E-1,-2.149168015E0,2.234704121E0
2.250399660E-1,3.764137030E-1,3.212590218E-1,-2.112057686E0,2.169258469E0
2.300443930E-1,3.230556250E-1,1.879518628E-1,-1.852013588E0,1.889350462E0
2.350488200E-1,3.246974945E-1,2.856695652E-1,-1.594352245E0,1.651966902E0
2.400532470E-1,3.081548214E-1,3.192872405E-1,-1.311018467E0,1.384078450E0
2.450576750E-1,2.063350677E-1,2.666335702E-1,-9.511938095E-1,1.009176538E0
2.500621020E-1,-3.297388554E-2,1.894557476E-1,-2.310180664E-1,3.005829410E-1
2.550665290E-1,-3.236762285E-1,6.357097626E-2,5.797319412E-1,6.670057673E-1
2.600709560E-1,-6.597939730E-1,1.660302281E-1,1.418945312E0,1.573626361E0
2.650753830E-1,-9.035912752E-1,1.865842938E-1,2.230541229E0,2.413836172E0
2.700798100E-1,-1.124599576E0,1.778765321E-1,2.964540482E0,3.175667573E0
2.750842370E-1,-1.210494637E0,1.126787663E-1,3.591073036E0,3.791279378E0
2.800886640E-1,-9.519622326E-1,2.590560913E-2,3.620595932E0,3.743743861E0
2.850930910E-1,-7.012703419E-1,1.836663485E-2,3.459547997E0,3.529956057E0
2.900975180E-1,-6.721154451E-1,7.254713774E-2,3.591425896E0,3.654496165E0
2.951019970E-1,-7.879945040E-1,1.528090835E-1,3.809563637E0,3.893207040E0
3.001064770E-1,-1.041629314E0,8.806729317E-2,3.581615448E0,3.731047667E0
3.051109560E-1,-1.347411752E0,-2.631664276E-2,3.164861679E0,3.439848898E0
3.101154350E-1,-1.735143781E0,-1.018002629E-1,2.934135437E0,3.410313475E0
3.151199140E-1,-2.112750530E0,-9.821474552E-3,2.641169548E0,3.382245977E0
3.201243930E-1,-2.281211376E0,2.008886933E-1,1.900417328E0,2.975880984E0
3.251288720E-1,-2.110484600E0,4.433711171E-1,9.490718842E-1,2.356153780E0
3.301333520E-1,-1.680188179E0,5.792728066E-1,-2.713966370E-2,1.777449257E0
3.351378310E-1,-1.232274055E0,6.893486977E-1,-9.442682266E-1,1.698629877E0
3.401423100E-1,-8.315858841E-1,7.824407816E-1,-1.790701389E0,2.123760845E0
3.451467890E-1,-6.279451847E-1,9.093732238E-1,-2.512961388E0,2.745223079E0
3.501512680E-1,-8.155829906E-1,1.077505350E0,-2.954507351E0,3.248893209E0
3.551557470E-1,-1.231762648E0,8.964769840E-1,-3.107197762E0,3.460576272E0
3.601602270E-1,-1.419396877E0,7.587812543E-1,-3.137642860E0,3.526363454E0
3.651647060E-1,-1.689281464E0,5.879650116E-1,-2.953764915E0,3.453129290E0
3.701691850E-1,-1.958206177E0,5.088989139E-1,-2.444577694E0,3.173249066E0
3.751736640E-1,-2.245202303E0,5.072755814E-1,-1.628401279E0,2.819566035E0
3.801781430E-1,-2.454914570E0,5.877159238E-1,-8.815779686E-1,2.673797911E0
3.851826220E-1,-2.524528027E0,6.273350120E-1,3.274106979E-1,2.621829273E0
3.901871020E-1,-2.460587978E0,7.921071053E-1,1.923878670E0,3.222302903E0
3.951915810E-1,-2.616355181E0,5.002200007E-1,3.902583122E0,4.725006826E0
4.001960600E-1,-2.143433571E0,2.764965296E-1,5.907248497E0,6.290178265E0
4.052005390E-1,-1.407981873E0,1.932528019E-1,7.148736954E0,7.288634964E0
4.102050180E-1,-3.096091747E-1,1.447615623E-1,8.156157494E0,8.163315430E0
4.152094970E-1,9.009220600E-1,-1.133711338E-1,8.706118584E0,8.753343039E0
4.202139770E-1,1.941303968E0,-4.283205271E-1,8.852851868E0,9.073318344E0
4.252184560E-1,2.807379246E0,-7.950699329E-1,8.649715424E0,9.128586492E0
4.302229350E-1,3.870607853E0,-2.296284676E0,1.109646606E1,1.197439299E1
4.352274140E-1,5.452184677E0,-3.954279184E0,1.263516045E1,1.431816752E1
4.402318930E-1,5.674283981E0,-2.236711025E0,6.695211411E0,9.056833373E0
4.452363720E-1,4.874321938E0,-1.804541469E0,5.400783539E0,7.495588509E0
4.502408520E-1,3.149869442E0,-1.111035585E0,5.601774216E0,6.521959210E0
4.552453310E-1,1.341955185E0,-1.511708379E0,5.762511253E0,6.106770168E0
4.602498100E-1,-1.209046841E-1,-2.155694485E0,4.120398521E0,4.651808318E0
4.652542890E-1,-1.679822922E0,-2.762339830E0,2.940866470E0,4.370471597E0
4.702587680E-1,-3.097383499E0,-2.681205273E0,2.008698463E0,4.562621590E0
4.752632470E-1,-4.061179161E0,-1.937114358E0,1.011779785E0,4.611863674E0
4.802677270E-1,-4.653736115E0,-1.344880342E0,-1.451616287E-1,4.846342421E0
4.852722060E-1,-4.812235832E0,-8.623654842E-1,-1.394632339E0,5.083924399E0
4.902766850E-1,-4.361723900E0,-3.477122784E-1,-2.107089996E0,4.856476857E0
4.952811640E-1,-3.538243771E0,1.754781008E-1,-2.030060768E0,4.083026851E0
5.002856430E-1,-2.890044928E0,7.077734470E-1,-1.942221165E0,3.553241617E0
5.052901220E-1,-2.039572477E0,1.263410091E0,-1.840437412E0,3.023784188E0
5.102946020E-1,-7.635324001E-1,1.925055265E0,-1.284332275E0,2.436868666E0
5.152990810E-1,2.271590233E-1,2.670377254E0,-1.257524490E-1,2.682970291E0
5.203035600E-1,4.951777458E-1,3.352819920E0,8.727912903E-1,3.499766714E0
5.253080390E-1,1.157016993E0,3.827045441E0,1.361001015E0,4.223421467E0
5.303125180E-1,2.080620289E0,4.309730530E0,1.704522133E0,5.080172608E0
5.353169970E-1,2.577984095E0,4.716747761E0,2.014130592E0,5.740246813E0
5.403214770E-1,2.980552673E0,4.888891220E0,2.127559662E0,6.108310873E0
5.453259560E-1,3.386491060E0,4.658806324E0,1.929869652E0,6.074306128E0
5.503304350E-1,3.537787199E0,4.030564785E0,1.950511932E0,5.706652920E0
5.553349140E-1,3.577484369E0,3.162675142E0,2.228992462E0,5.269659938E0
5.603393930E-1,4.367730618E0,2.324959040E0,1.837749481E0,5.278241036E0
5.653438720E-1,5.612874985E0,1.240587473E0,8.298845291E-1,5.807936915E0
5.703483520E-1,5.871552944E0,2.379499972E-1,1.559638977E-2,5.876393233E0
5.753528310E-1,5.260638237E0,-2.386514843E-1,-4.788875580E-2,5.266266469E0
5.803573100E-1,4.322923660E0,-5.311182141E-1,-5.441036224E-1,4.389282889E0
5.853617890E-1,3.189537048E0,-6.272945404E-1,-1.075530052E0,3.423946541E0
5.903662680E-1,2.011554241E0,-4.709326625E-1,-2.666537762E0,3.373210885E0
5.953707470E-1,7.319745421E-1,-3.135203123E-1,-4.334323406E0,4.406862955E0
6.003752270E-1,4.934918284E-1,-1.820524335E-1,-5.694134712E0,5.718378039E0
6.053797060E-1,8.396971226E-2,-2.305700779E-1,-5.837634087E0,5.842789163E0
6.103841850E-1,4.119781256E-1,-6.503173709E-1,-5.340673923E0,5.395872183E0
6.153886640E-1,1.555093169E0,-9.144141674E-1,-5.135239124E0,5.442898942E0
6.203931430E-1,2.219782829E0,-5.859431624E-1,-5.504605293E0,5.964180131E0
6.253976220E-1,2.170003414E0,8.907020092E-2,-6.098131180E0,6.473333933E0
6.304021020E-1,1.870517254E0,6.433449984E-1,-6.914567947E0,7.191938368E0
6.354065810E-1,1.670935154E0,7.841349840E-1,-7.976110935E0,8.186894259E0
6.404110600E-1,1.979390621E0,6.107369661E-1,-9.081531525E0,9.314784040E0
6.454155390E-1,2.524403811E0,3.165565729E-1,-1.010686398E1,1.042216494E1
6.504199660E-1,3.054913521E0,-9.209954739E-2,-1.068669891E1,1.111514789E1
6.554243930E-1,3.931104660E0,-6.238521338E-1,-1.085721111E1,1.156381462E1
6.604288200E-1,4.492933273E0,-1.002530336E0,-1.086338711E1,1.179850397E1
6.654332470E-1,4.553908348E0,-1.096469402E0,-1.044043732E1,1.144303534E1
6.704376750E-1,4.304566860E0,-1.213308930E0,-9.577614784E0,1.057034150E1
6.754421020E-1,4.226786137E0,-1.316925764E0,-8.701395988E0,9.762904622E0
6.804465290E-1,4.364818096E0,-1.214478731E0,-8.363363266E0,9.511700201E0
6.854509560E-1,4.068431854E0,-1.221663952E0,-8.170490265E0,9.208773628E0
6.904553830E-1,3.379173517E0,-1.442243576E0,-7.718245983E0,8.548110975E0
6.954598100E-1,2.771535635E0,-1.888317585E0,-7.342166901E0,8.071837949E0
7.004642370E-1,2.215975046E0,-2.438761473E0,-7.427217484E0,8.125371528E0
7.054686640E-1,1.303441525E0,-3.287659645E0,-7.850207329E0,8.610076704E0
7.104730910E-1,2.491722107E-1,-4.209907532E0,-8.378660202E0,9.380157515E0
7.154775180E-1,-7.609927654E-1,-5.081666946E0,-8.800671577E0,1.019089148E1
7.204819450E-1,-1.711383820E0,-5.889196396E0,-9.134498596E0,1.100229673E1
7.254863720E-1,-2.637609482E0,-6.638268948E0,-9.250953674E0,1.168776036E1
7.304908000E-1,-3.273803473E0,-7.106627464E0,-9.088726997E0,1.199278539E1
7.354952270E-1,-3.924795389E0,-7.297152996E0,-8.815765381E0,1.209835443E1
7.404996540E-1,-4.348155975E0,-7.123279572E0,-8.631311417E0,1.200612798E1
7.455040810E-1,-4.417046070E0,-6.666707039E0,-8.552423477E0,1.170893787E1
7.505085080E-1,-4.059907913E0,-6.060059071E0,-8.469087601E0,1.117732584E1
7.555129350E-1,-3.703923225E0,-5.562843323E0,-8.158783913E0,1.054656475E1
7.605173620E-1,-3.263450623E0,-5.299913406E0,-7.384441853E0,9.657596676E0
7.655217890E-1,-2.834835291E0,-5.291140079E0,-6.192408562E0,8.624290015E0
7.705262160E-1,-2.610465288E0,-5.484527588E0,-4.921584606E0,7.817708547E0
7.755306430E-1,-2.568617821E0,-5.913658619E0,-3.624225855E0,7.396226661E0
7.805350700E-1,-2.619483232E0,-6.468471050E0,-2.298891544E0,7.347633120E0
7.855394970E-1,-2.773634195E0,-6.920070648E0,-1.025014400E0,7.525362380E0
7.905439250E-1,-2.897272825E0,-7.230792046E0,1.936850548E-1,7.792050907E0
7.955483520E-1,-3.161420107E0,-7.514732361E0,8.548245430E-1,8.197347409E0
8.005527790E-1,-3.483961821E0,-7.864593983E0,1.006270409E0,8.660393098E0
8.055572060E-1,-3.798690557E0,-8.376247406E0,8.858323097E-1,9.239928000E0
8.105616330E-1,-4.030464172E0,-8.859217644E0,8.000626564E-1,9.765781021E0
8.155660600E-1,-4.415451527E0,-9.110126495E0,8.353209496E-1,1.015816805E1
8.205704870E-1,-4.947029591E0,-9.021716118E0,8.355112076E-1,1.032291347E1
8.255749140E-1,-5.472780228E0,-8.619737625E0,7.237162590E-1,1.023596431E1
8.305793410E-1,-5.722314358E0,-8.081263542E0,3.714275360E-1,9.909069606E0
8.355837680E-1,-5.521392822E0,-7.687262535E0,-1.690733433E-1,9.466169752E0
8.405881950E-1,-5.068756580E0,-7.401915073E0,-9.101334810E-1,9.017149382E0
8.455926750E-1,-4.480014801E0,-6.828196526E0,-1.655171156E0,8.332730163E0
8.505971540E-1,-3.762808561E0,-6.183811188E0,-2.276780605E0,7.588279054E0
8.556016330E-1,-2.419340611E0,-5.808146954E0,-2.473007679E0,6.760439853E0
8.606061120E-1,-3.037028313E-1,-5.709020138E0,-2.191947222E0,6.122889756E0
8.656105910E-1,2.360082626E0,-5.491323471E0,-1.453170896E0,6.151124216E0
8.706150700E-1,5.062619686E0,-4.809000492E0,-5.308433175E-1,7.002742209E0
8.756195500E-1,7.353523731E0,-3.911510229E0,5.097455382E-1,8.344702754E0
8.806240290E-1,9.318523407E0,-3.070180416E0,1.881466031E0,9.990035070E0
8.856285080E-1,1.118101120E1,-2.274607897E0,3.716722250E0,1.200011987E1
8.906329870E-1,1.284929276E1,-1.395984173E0,5.928980827E0,1.421991244E1
8.956374660E-1,1.416567230E1,-6.393454075E-1,7.915031433E0,1.623954300E1
9.006419450E-1,1.475448704E1,-1.691820621E-1,9.323791504E0,1.745441487E1
9.056464250E-1,1.510867882E1,1.281177998E-1,1.024869251E1,1.825717087E1
9.106509040E-1,1.556103325E1,6.845250130E-1,1.084177113E1,1.897783790E1
9.156553830E-1,1.607076073E1,1.481901646E0,1.092047596E1,1.948646140E1
9.206598620E-1,1.664459801E1,1.888214588E0,1.015088558E1,1.958694655E1
9.256643410E-1,1.683213425E1,2.171307087E0,8.987323761E0,1.920435644E1
9.306688200E-1,1.699995804E1,2.159690142E0,7.803174019E0,1.882956079E1
9.356733000E-1,1.658349609E1,2.080953121E0,6.705688953E0,1.800858054E1
9.406777790E-1,1.556931496E1,2.243240356E0,5.705982208E0,1.673301911E1
9.456822580E-1,1.409220409E1,2.692432642E0,4.601741314E0,1.506703132E1
9.506867370E-1,1.240189552E1,3.062329292E0,3.444311619E0,1.323057655E1
9.556912160E-1,1.119125652E1,3.139204025E0,2.171447992E0,1.182429748E1
9.606956950E-1,1.049974823E1,2.282810688E0,5.109575987E-1,1.075718435E1
9.657001750E-1,9.371072769E0,1.314709425E0,-3.556672335E-1,9.469528230E0
9.707046540E-1,8.614415169E0,1.015726328E0,-7.216840982E-1,8.704060926E0
9.757091330E-1,8.691184998E0,1.140332460E0,-1.292823672E0,8.860499299E0
9.807136120E-1,8.922250748E0,1.510642529E0,-1.917319059E0,9.250119547E0
9.857180910E-1,9.208932877E0,1.959880352E0,-4.306099415E0,1.035316705E1
9.907225700E-1,1.053041458E1,2.708816528E0,-8.057559967E0,1.353335106E1
9.957270500E-1,1.421420479E1,4.981544971E0,-1.331265926E1,2.010189804E1
1.000731529E0,1.848580933E1,9.942022324E0,-2.188540459E1,3.032391611E1
1.005736008E0,2.100745773E1,1.495608425E1,-3.147691345E1,4.069144648E1
1.010740487E0,1.537888718E1,9.018455505E0,-1.298784924E1,2.205735565E1
1.015744966E0,1.357373142E1,4.915231228E0,-5.306496620E0,1.538065633E1
1.020749445E0,1.246802044E1,3.422360420E0,-1.655347824E0,1.303473287E1
1.025753925E0,1.107989693E1,3.102734566E0,1.690885305E0,1.162971069E1
1.030758404E0,1.018310833E1,2.828477383E0,3.596338987E0,1.116376431E1
1.035762883E0,1.012368965E1,2.449258804E0,4.080911636E0,1.118667961E1
1.040767362E0,9.411949158E0,1.869214058E0,4.316578865E0,1.052195805E1
1.045771841E0,8.763585091E0,1.479107857E0,4.003337860E0,9.747558551E0
1.050776320E0,8.481511116E0,8.156909943E-1,3.588810921E0,9.245590648E0
1.055780800E0,8.333645821E0,6.178929806E-1,2.871809244E0,8.836217105E0
1.060785279E0,7.981000900E0,8.889651299E-1,9.637537003E-1,8.087982169E0
1.065789758E0,7.560813904E0,2.221990108E0,-4.314512253E0,8.984328740E0
1.070794237E0,6.199021339E0,4.500757217E0,-1.316950130E1,1.523549952E1
1.075798716E0,4.932000160E0,4.068837643E0,-1.213885880E1,1.371976524E1
1.080803195E0,4.019591331E0,3.466675282E0,-1.288931656E1,1.393949186E1
1.085807675E0,3.183831215E0,2.027924061E0,-8.741987228E0,9.522163510E0
1.090812154E0,3.240464211E0,4.872121811E-1,-4.133638382E0,5.274936045E0
1.095816633E0,3.554549217E0,1.902902126E-1,-1.093837500E0,3.723910710E0
1.100821112E0,3.754683495E0,1.037371397E0,7.256748080E-1,3.962371952E0
1.105825591E0,3.957723618E0,1.931457758E0,1.304491401E0,4.593016777E0
1.110830070E0,4.028108597E0,2.472804070E0,1.275490046E0,4.895640274E0
1.115834550E0,3.617879868E0,2.885592937E0,1.304493904E0,4.808056331E0
1.120839029E0,3.339720726E0,2.560673475E0,1.623570442E0,4.510738759E0
1.125843508E0,2.826348305E0,1.954310417E0,2.361918926E0,4.169680439E0
1.130847987E0,1.613075256E0,1.285125256E0,2.722989321E0,3.415879030E0
1.135852466E0,8.965864182E-1,7.871007919E-1,2.837531090E0,3.078145147E0
1.140856945E0,1.844120026E-1,3.477115631E-1,2.628177643E0,2.657485436E0
1.145861425E0,-1.133288383E0,7.807159424E-2,1.851293921E0,2.172032900E0
1.150865904E0,-8.607120514E-1,2.697827816E-1,1.600144386E0,1.836864187E0
1.155870331E0,1.440753937E-1,1.114006519E0,2.473114967E0,2.716259539E0
1.160874758E0,-2.354574203E-1,1.549960732E0,2.379220724E0,2.849299865E0
1.165879185E0,-1.472252846E0,1.530407667E0,1.823436975E0,2.799035275E0
1.170883612E0,2.449431419E0,2.501799583E0,2.833829880E0,4.504365352E0
1.175888039E0,5.665555000E0,5.054081917E0,6.337226391E0,9.889524549E0
1.180892466E0,-3.716872215E0,2.735247612E0,8.336113691E-1,4.689523054E0
1.185896893E0,-5.288132191E0,1.435691595E0,1.148617625E0,5.598649379E0
1.190901320E0,-7.186869621E0,5.865631104E-1,1.959063530E0,7.472153716E0
1.195905747E0,-8.924512863E0,-3.381490707E-1,1.596283674E0,9.072452602E0
1.200910175E0,-9.257169724E0,-5.888216496E-1,1.713058233E0,9.432734001E0
1.205914602E0,-1.011337662E1,-4.817459583E-1,2.128776312E0,1.034621449E1
1.210919029E0,-1.008522034E1,-3.161504269E-1,3.032820940E0,1.053611044E1
1.215923456E0,-9.868472099E0,-6.321442127E-1,4.554047585E0,1.088695078E1
1.220927883E0,-1.080391788E1,-1.793566823E0,5.073696136E0,1.206995924E1
1.225932310E0,-1.226613426E1,-2.551612377E0,3.297789574E0,1.295546956E1
1.230936737E0,-1.288867092E1,-2.050920963E0,2.425143242E0,1.327423951E1
1.235941164E0,-1.213634682E1,-1.752009273E0,3.001406431E0,1.262413922E1
1.240945591E0,-1.131264114E1,-1.219537973E0,2.217093945E0,1.159217961E1
1.245950018E0,-9.870743752E0,-1.315176725E0,8.818172216E-1,9.996943215E0
1.250954445E0,-8.749142647E0,3.316967487E-1,9.318929315E-1,8.804881840E0
1.255958872E0,-7.303837776E0,1.171406388E0,4.612808824E-1,7.411546346E0
1.260963300E0,-5.951673985E0,1.585660458E0,-2.092613727E-1,6.162834788E0
1.265967727E0,-5.798966408E0,1.508280158E0,-9.353197366E-2,5.992634534E0
1.270972154E0,-5.243021965E0,1.724382997E0,2.602898479E-1,5.525443588E0
1.275976581E0,-4.819676876E0,2.637696028E0,8.766763806E-1,5.563747568E0
1.280981008E0,-5.195673943E0,2.749355793E0,1.262189507E0,6.012246448E0
1.285985435E0,-5.217914581E0,2.240758419E0,1.217701197E0,5.807790206E0
1.290989862E0,-5.326134682E0,2.189230680E0,1.208773255E0,5.884010061E0
1.295994289E0,-5.505108833E0,2.113496304E0,1.917529106E0,6.200807025E0
1.300998716E0,-5.615760803E0,1.581012726E0,2.729274273E0,6.440908996E0
1.306003143E0,-5.476820946E0,1.094745755E0,3.527904510E0,6.606068890E0
1.311007570E0,-5.642093182E0,6.412426233E-1,4.355707645E0,7.156577161E0
1.316011997E0,-4.955357552E0,7.896769047E-2,4.571922302E0,6.742720363E0
1.321016425E0,-3.682219028E0,-2.486026287E-1,4.113908291E0,5.526733363E0
1.326020852E0,-3.785190582E0,-3.668465614E-1,3.278755188E0,5.021203016E0
1.331025279E0,-3.245836735E0,-4.421961308E-1,2.776670694E0,4.294286166E0
1.336029706E0,-3.011338234E0,-1.699776649E-1,2.102992535E0,3.676904672E0
1.341034133E0,-2.493593693E0,2.438503504E-1,1.210563302E0,2.782613161E0
1.346038560E0,-1.827091217E0,3.932383060E-1,3.621187210E-1,1.903688170E0
1.351042987E0,-6.786203384E-1,5.937709808E-1,-3.268628120E-1,9.591292089E-1
1.356047466E0,9.208879471E-1,6.906380653E-1,-4.939215183E-1,1.252586929E0
1.361051945E0,2.143507957E0,3.993408680E-1,-8.319731951E-1,2.333726396E0
1.366056425E0,2.717987061E0,-1.175889969E-1,-1.185694695E0,2.967684744E0
1.371060904E0,4.067515373E0,-2.545874119E-1,-1.610221863E0,4.382044102E0
1.376065383E0,4.370921135E0,-1.774730682E-1,-1.871891379E0,4.758195624E0
1.381069862E0,4.638683319E0,-5.509400368E-2,-2.035116911E0,5.065779222E0
1.386074341E0,4.422198296E0,-5.563352108E-1,-2.439116716E0,5.080810663E0
1.391078820E0,3.294219017E0,-1.787450075E0,-2.444235802E0,4.474499453E0
1.396083300E0,2.517785072E0,-2.717381239E0,-2.093277216E0,4.255021971E0
1.401087779E0,2.539468765E0,-3.505723476E0,-1.968669891E0,4.755487340E0
1.406092258E0,9.087152481E-1,-3.814346552E0,-2.060185194E0,4.429375357E0
1.411096737E0,-3.018693924E-1,-3.821616650E0,-2.361176014E0,4.502336184E0
1.416101216E0,-1.193899632E0,-3.796431541E0,-2.696563721E0,4.807259581E0
1.421105695E0,-1.611214638E0,-3.473032475E0,-2.882349014E0,4.792275349E0
1.426110175E0,-1.334990978E0,-3.330987215E0,-3.635835648E0,5.108520098E0
1.431114654E0,-3.489894867E-1,-3.469924212E0,-4.415117264E0,5.626315682E0
1.436119133E0,8.243036270E-1,-3.971000910E0,-4.744255543E0,6.241497044E0
1.441123612E0,2.959270477E-1,-3.006047487E0,-4.328160286E0,5.277960380E0
1.446128091E0,1.204095840E0,-2.100195646E0,-3.593366385E0,4.332776306E0
1.451132570E0,1.854204178E0,-1.703888893E0,-2.984714270E0,3.905103041E0
1.456137050E0,2.428454399E0,-1.430043697E0,-2.172909975E0,3.558644897E0
1.461141529E0,2.255327225E0,-1.499424696E0,-1.707057357E0,3.201377849E0
1.466146008E0,2.007328987E0,-2.166144848E0,-9.200813770E-1,3.093235023E0
1.471150487E0,3.013000488E0,-2.487224340E0,-1.114702225E-2,3.906991313E0
1.476154966E0,1.599994659E0,-2.649756432E0,1.504421234E-2,3.095386629E0
1.481159445E0,2.568187714E0,-2.474255562E0,3.827133179E-1,3.586641633E0
1.486163925E0,2.575565338E0,-2.515687704E0,1.043716431E0,3.748541773E0
1.491168404E0,3.666646957E0,-2.155685902E0,1.693898678E0,4.578271983E0
1.496172883E0,4.299375534E0,-1.673709869E0,1.736013651E0,4.929470368E0
1.501177362E0,5.337289810E0,-7.560477257E-1,1.600176096E0,5.623062708E0
1.506181841E0,5.645576477E0,-2.049946785E-1,1.364229202E0,5.811684600E0
1.511186320E0,5.858567238E0,-6.274700165E-2,1.057547808E0,5.953583344E0
1.516190800E0,6.412671089E0,6.729888916E-2,6.278975010E-1,6.443689542E0
1.521195279E0,7.081573009E0,5.142655373E-1,9.058809280E-2,7.100799359E0
1.526199758E0,7.947323322E0,7.426419258E-1,-1.230952024E0,8.076305338E0
1.531204237E0,8.037288666E0,5.833361149E-1,-2.152378082E0,8.340924501E0
1.536208716E0,8.205647469E0,-8.879995346E-2,-3.101641178E0,8.772725563E0
1.541213195E0,8.137308121E0,-8.189239502E-1,-3.205895424E0,8.784314735E0
1.546217675E0,7.723736763E0,-1.354258537E0,-3.218852997E0,8.476505199E0
1.551222154E0,7.453323364E0,-1.081118584E0,-2.967628717E0,8.094916106E0
1.556226633E0,7.564200878E0,-3.911933899E-1,-3.250000000E0,8.242127589E0
1.561231112E0,7.733608723E0,3.339891434E-1,-3.999384880E0,8.712940493E0
1.566235591E0,7.265741825E0,1.225411654E0,-4.719038486E0,8.749969270E0
1.571240070E0,6.460211277E0,2.052501202E0,-5.350759983E0,8.635839468E0
1.576244550E0,5.606238842E0,2.543335438E0,-5.657705307E0,8.361106293E0
1.581249029E0,4.430926800E0,3.191544533E0,-5.158079147E0,7.511647576E0
1.586253508E0,3.352360725E0,3.359277248E0,-3.614711761E0,5.965669047E0
1.591257987E0,3.137792587E0,3.256476641E0,-1.473032951E0,4.756070700E0
1.596262466E0,4.747472763E0,2.700129032E0,3.535335064E-1,5.473041236E0
1.601266945E0,6.273909569E0,1.974132299E0,1.692537665E0,6.791452228E0
1.606271425E0,7.381553650E0,2.383788824E0,1.932056665E0,7.993911834E0
1.611275904E0,8.566856384E0,3.322811604E0,1.413396120E0,9.296762547E0
1.616280383E0,1.059748936E1,3.859032154E0,4.941232204E-1,1.128906850E1
1.621284862E0,1.137218189E1,4.234193802E0,-5.857092738E-1,1.214899064E1
1.626289341E0,9.269873619E0,5.358848572E0,-1.409777403E0,1.079978182E1
1.631293820E0,7.990084648E0,6.889066219E0,-1.901394606E0,1.071988748E1
1.636298300E0,7.618121147E0,7.263469696E0,-1.711296439E0,1.066406570E1
1.641302779E0,7.241199493E0,6.665862560E0,-1.115616322E0,9.905215472E0
1.646307258E0,6.833717346E0,5.380275249E0,2.317423820E-1,8.700618315E0
1.651311685E0,6.271088600E0,3.581250668E0,1.239146471E0,7.327168113E0
1.656316112E0,5.206243515E0,1.159193277E0,2.210704565E0,5.773726289E0
1.661320539E0,2.674366951E0,-2.969674110E0,3.461628199E0,5.287161119E0
1.666324966E0,4.312934875E-1,-6.582491398E0,3.388980627E0,7.416225237E0
1.671329393E0,-9.501557350E-1,-7.692159653E0,5.024366379E0,9.236686286E0
1.676333820E0,-2.504313946E0,-5.712945461E0,7.382337093E0,9.664793590E0
1.681338247E0,-5.655575752E0,-2.372673035E0,9.631013870E0,1.141803585E1
1.686342675E0,-8.719224930E0,-1.812553883E0,9.455058098E0,1.298877818E1
1.691347102E0,-1.084224224E1,-3.403693676E0,8.692987442E0,1.430759861E1
1.696351529E0,-1.150063515E1,-5.127570629E0,8.194595337E0,1.502358087E1
1.701355956E0,-1.164404202E1,-5.184123039E0,8.238656998E0,1.517676893E1
1.706360383E0,-1.209966183E1,-4.726594925E0,7.863681793E0,1.518486112E1
1.711364810E0,-1.182577991E1,-4.148864746E0,6.635375977E0,1.418063340E1
1.716369237E0,-1.159306622E1,-3.466691494E0,4.751723766E0,1.299984665E1
1.721373664E0,-9.057860374E0,-2.821416140E0,-4.921022654E-1,9.499862538E0
1.726378091E0,-8.102139473E0,-1.766362906E0,-2.054786682E0,8.543234180E0
1.731382518E0,-6.194674969E0,-9.444587231E-1,-2.779008627E0,6.854844214E0
1.736386945E0,-5.413630486E0,-1.069243670E0,-1.706490040E0,5.776052745E0
1.741391372E0,-4.696570396E0,-1.048331022E0,-1.105623007E0,4.937527079E0
1.746395800E0,-3.139804840E0,-1.253700733E0,-2.963953018E-1,3.393816456E0
1.751400227E0,-1.510856628E0,-1.171549320E0,9.706646204E-1,2.144156097E0
1.756404654E0,-2.210126877E0,-1.868291616E0,2.587278366E0,3.881904651E0
1.761409081E0,-2.587655544E0,-2.957795382E0,3.126629591E0,5.021984402E0
1.766413508E0,-2.609150410E0,-3.160714388E0,7.589917183E-1,4.168195021E0
1.771417935E0,-1.645265102E0,-4.283456802E0,-2.552579403E0,5.250767662E0
1.776422362E0,-2.037031174E0,-3.642508745E0,-1.852909803E0,4.566250179E0
1.781426789E0,-1.855027676E0,-2.184775829E0,-9.892761707E-1,3.032002712E0
1.786431216E0,7.771825790E-1,-2.831906557E0,8.414533138E-1,3.054791513E0
1.791435643E0,2.016742706E0,-3.467436314E0,3.145135403E0,5.097277944E0
1.796440070E0,1.149940491E-1,-4.667838573E0,3.079042912E0,5.593071234E0
1.801444497E0,-2.342179775E0,-4.212413788E0,3.313753605E0,5.849034021E0
1.806448925E0,-4.677427292E0,-4.216923714E0,4.178998470E0,7.558094991E0
1.811453352E0,-4.378218651E0,-4.004550457E0,4.431606770E0,7.405697906E0
1.816457779E0,-3.467790604E0,-3.814684868E0,4.663317204E0,6.951540811E0
1.821462206E0,-2.100191116E0,-2.968506813E0,3.838088036E0,5.287131093E0
1.826466633E0,-1.874458790E0,-1.559192181E0,3.148361206E0,3.982066586E0
1.831471060E0,-1.632248878E0,-9.076857567E-1,2.919247866E0,3.465564591E0
1.836475487E0,-1.532918453E0,-5.260481834E-1,2.941517830E0,3.358436067E0
1.841479914E0,-7.414455414E-1,-3.288092613E-1,2.029398680E0,2.185478442E0
1.846484341E0,-9.623908997E-2,-2.172517776E-1,1.871950746E0,1.886971089E0
1.851488768E0,2.400479317E-1,-1.642842293E-1,1.937924743E0,1.959633799E0
1.856493195E0,9.571361542E-2,-3.270854950E-1,2.081782103E0,2.109493479E0
1.861497675E0,-8.320236206E-2,-6.889286041E-1,2.364475012E0,2.464201156E0
1.866502154E0,-7.456812859E-1,-4.736523628E-1,2.529586554E0,2.679402036E0
1.871506633E0,-1.025548458E0,-7.212882042E-1,2.780668020E0,3.050265718E0
1.876511112E0,-1.357681274E0,-9.514479637E-1,3.021587372E0,3.446526065E0
1.881515591E0,-1.387309551E0,-1.143844604E0,2.809340477E0,3.335476306E0
1.886520070E0,-1.314502239E0,-1.565799713E0,3.365357637E0,3.937674048E0
1.891524550E0,-1.308216572E0,-1.651848793E0,4.009180069E0,4.529189757E0
1.896529029E0,-1.478642464E0,-1.469443798E0,4.442911625E0,4.907658537E0
1.901533508E0,-1.835474014E0,-1.330026627E0,4.489411831E0,5.029190220E0
1.906537987E0,-2.320291042E0,-1.435219765E0,4.042496204E0,4.877025923E0
1.911542466E0,-3.037947655E0,-1.907733917E0,4.047446728E0,5.408363862E0
1.916546945E0,-3.415050268E0,-2.182621956E0,4.124147892E0,5.782300820E0
1.921551425E0,-3.262452364E0,-2.456447124E0,4.375221729E0,5.985005688E0
1.926555904E0,-2.349405289E0,-2.287522316E0,4.264270782E0,5.379262855E0
1.931560383E0,-9.571657181E-1,-1.800542355E0,3.831203938E0,4.340074031E0
1.936564862E0,7.919235229E-1,-1.191228390E0,3.188571930E0,3.494733022E0
1.941569341E0,2.441493511E0,-4.240460396E-1,2.432059765E0,3.472120434E0
1.946573820E0,3.125653744E0,1.848444939E-1,2.475363731E0,3.991403815E0
1.951578300E0,4.250554085E0,1.754407406E0,1.908038259E0,4.978530443E0
1.956582779E0,5.150226116E0,4.041375637E0,2.276132107E0,6.930968436E0
1.961587258E0,4.735048771E0,5.326332092E0,7.690824270E-1,7.168123060E0
1.966591737E0,2.840223312E0,6.064313412E0,-1.229981422E0,6.808496157E0
1.971596216E0,1.291187286E0,6.298172951E0,-4.105313778E0,7.628089429E0
1.976600695E0,-5.375299454E-1,5.684228897E0,-4.652315140E0,7.365014104E0
1.981605175E0,-1.980355740E0,5.698812485E0,-6.819722652E0,9.105322051E0
1.986609654E0,-3.781079054E0,4.470434666E0,-7.247731209E0,9.317239537E0
1.991614133E0,-5.393523216E0,3.730742455E0,-7.719760418E0,1.012932539E1
1.996618612E0,-6.147627831E0,2.968693495E0,-8.233371735E0,1.069555418E1
2.001623091E0,-6.614787102E0,1.907282829E0,-9.184133530E0,1.147786761E1
2.006627570E0,-6.692256451E0,1.003295898E0,-1.019474602E1,1.223624720E1
2.011632050E0,-4.316393852E0,2.455973625E-1,-1.267271519E1,1.338989485E1
2.016636529E0,1.247391701E0,-1.465847492E0,-1.215612030E1,1.230755685E1
2.021641008E0,6.159488201E0,-2.581742287E0,-8.825983047E0,1.106809220E1
2.026645487E0,8.266436577E0,-2.622297764E0,-5.409686565E0,1.022130755E1
2.031649966E0,8.907390594E0,-2.341362953E0,-3.362743378E0,9.804673921E0
2.036654445E0,9.295875549E0,-2.086548805E0,-2.642904520E0,9.886957694E0
2.041658925E0,9.395668030E0,-1.628012180E0,-2.369645596E0,9.825691916E0
2.046663404E0,9.452275276E0,-1.047277927E0,-2.333374023E0,9.792187360E0
2.051667883E0,9.184444427E0,-2.496843338E-1,-2.411488295E0,9.499033504E0
2.056672362E0,8.288010597E0,4.105877876E-1,-2.692214489E0,8.723973914E0
2.061676841E0,6.552516460E0,7.252640724E-1,-3.046485901E0,7.262407058E0
2.066681320E0,3.540193081E0,1.076736927E0,-2.783825159E0,4.630552016E0
2.071685800E0,-6.083202362E-2,1.425919533E0,-2.088467121E0,2.529553709E0
2.076690279E0,-2.847906113E0,1.741020679E0,-9.303679466E-1,3.465156093E0
2.081694758E0,-4.273653030E0,1.765461922E0,2.200231552E-1,4.629187424E0
2.086699237E0,-4.441535473E0,8.488135338E-1,9.538006783E-1,4.621412934E0
2.091703716E0,-3.750176907E0,-5.588264465E-1,6.374411583E-1,3.844794540E0
2.096708195E0,-2.845903873E0,-2.201228619E0,-2.060675621E-2,3.597916192E0
2.101712675E0,-1.996822357E0,-3.509887218E0,1.637289524E-1,4.041461986E0
2.106717154E0,-1.330131531E0,-4.668638706E0,1.270164013E0,5.017843549E0
2.111721633E0,-9.396023750E-1,-5.556316376E0,1.799091458E0,5.915423431E0
2.116726112E0,-6.164665222E-1,-6.738947392E0,1.846616268E0,7.014515989E0
2.121730591E0,-1.953644753E-1,-7.271022320E0,1.775793433E0,7.487280893E0
2.126735070E0,2.145156860E-1,-7.918322563E0,1.299764872E0,8.027156278E0
2.131739550E0,7.063961029E-1,-8.561824799E0,2.253469229E-1,8.593871105E0
2.136744029E0,1.439365864E0,-9.626760483E0,-7.507708073E-1,9.762681409E0
2.141748456E0,2.046452045E0,-9.889832497E0,1.205424905E0,1.017102758E1
2.146752883E0,2.404969692E0,-9.244909286E0,5.540608406E0,1.104312313E1
2.151757310E0,2.142300129E0,-8.592371941E0,8.501794815E0,1.227594479E1
2.156761737E0,1.908332825E0,-8.983940125E0,1.025298882E1,1.376505336E1
2.161766164E0,1.610949516E0,-8.385829926E0,1.005024338E1,1.318805118E1
2.166770591E0,1.323676109E-1,-7.246354103E0,8.904600143E0,1.148124874E1
2.171775018E0,-2.180958271E0,-6.024092674E0,6.968382835E0,9.465972262E0
2.176779445E0,-3.874895811E0,-4.514195442E0,4.801578522E0,7.645124874E0
2.181783872E0,-5.181200981E0,-2.890090942E0,2.533550978E0,6.451073540E0
2.186788300E0,-6.157273293E0,-1.355873585E0,7.863773704E-1,6.353644383E0
2.191792727E0,-5.861787796E0,4.129853249E-1,1.262223721E0,6.010351218E0
2.196797154E0,-4.885284424E0,2.178032398E0,2.485499382E0,5.898095982E0
2.201801581E0,-4.389661789E0,2.779534340E0,2.836692810E0,5.919608760E0
2.206806008E0,-3.867007971E0,2.812567234E0,3.051632404E0,5.672454973E0
2.211810435E0,-3.478181601E0,2.809949160E0,3.669658184E0,5.784457858E0
2.216814862E0,-3.164796114E0,2.849266529E0,3.672295570E0,5.623167164E0
2.221819289E0,-2.837380648E0,3.359576464E0,3.693387508E0,5.742699212E0
2.226823716E0,-3.037004709E0,3.560634136E0,3.690578461E0,5.960023694E0
2.231828143E0,-3.494107723E0,3.100737095E0,3.399085045E0,5.777295081E0
2.236832570E0,-3.983397961E0,2.278251171E0,2.915505409E0,5.436732429E0
2.241836997E0,-4.157256126E0,1.255478382E0,1.887741685E0,4.735247949E0
2.246841425E0,-3.445662260E0,4.475116730E-2,1.288849235E0,3.679092745E0
2.251845852E0,-1.987061501E0,-8.400807381E-1,1.215886712E0,2.476394466E0
2.256850279E0,-9.394583702E-1,-1.634366512E0,8.950009942E-1,2.086806820E0
2.261854706E0,-1.044893265E-1,-2.079532146E0,7.185479999E-1,2.202653671E0
2.266859133E0,5.912432671E-1,-1.893440247E0,6.141443849E-1,2.076501359E0
2.271863560E0,1.043363571E0,-1.574324131E0,2.590678930E-1,1.906363078E0
2.276867987E0,1.213431835E0,-1.199804783E0,9.628102183E-2,1.709157211E0
2.281872414E0,1.067604065E0,-9.476613998E-1,6.458234787E-2,1.428989660E0
2.286876841E0,9.445624352E-1,-5.127501488E-1,4.253585339E-1,1.155872308E0
2.291881268E0,7.177109718E-1,2.628278732E-2,8.402974010E-1,1.105395651E0
2.296885695E0,3.858127594E-1,7.779588699E-1,1.242196918E0,1.515626824E0
2.301890122E0,-7.926797867E-2,1.579707146E0,1.574980140E0,2.232111225E0
2.306894550E0,-7.188200951E-1,2.461342335E0,1.810868621E0,3.139132616E0
2.311898977E0,-1.300588608E0,3.224123001E0,1.959828734E0,3.990918255E0
2.316903404E0,-1.875662804E0,3.425247669E0,1.983947158E0,4.380237308E0
2.321907831E0,-2.509804726E0,3.410827160E0,2.012309551E0,4.688523372E0
2.326912258E0,-3.144063473E0,2.958031178E0,1.817457438E0,4.683826972E0
2.331916685E0,-3.553605080E0,2.545763969E0,1.910711527E0,4.770727595E0
2.336921112E0,-3.997900963E0,2.110882282E0,1.864838362E0,4.890466055E0
2.341925539E0,-4.534442902E0,1.529044628E0,1.594868898E0,5.044081354E0
2.346929966E0,-4.905033588E0,1.168503761E0,1.660913467E0,5.308802981E0
2.351934393E0,-5.014952183E0,7.270908356E-1,1.544273019E0,5.297469739E0
2.356938820E0,-5.199413776E0,3.148684502E-1,1.093740582E0,5.322528931E0
2.361943300E0,-5.257803917E0,4.241533279E-1,5.990822315E-1,5.308795305E0
2.366947779E0,-4.889938354E0,6.334204674E-1,-4.738128185E-2,4.931020542E0
2.371952258E0,-4.030457973E0,1.047881126E0,-9.331517220E-1,4.267718180E0
2.376956737E0,-2.632060289E0,1.295484543E0,-1.787961006E0,3.435524142E0
2.381961216E0,-1.089868546E0,1.679265022E0,-2.498905897E0,3.201917417E0
2.386965695E0,1.714277267E-1,1.821759701E0,-3.206620693E0,3.691965891E0
2.391970175E0,9.600205421E-1,1.713239193E0,-3.470924377E0,3.988000001E0
2.396974654E0,1.466175556E0,1.563302040E0,-3.397944927E0,4.017413815E0
2.401979133E0,1.861209393E0,1.394858837E0,-3.051887989E0,3.837154138E0
2.406983612E0,2.216374874E0,1.345818996E0,-2.473162651E0,3.583305716E0
2.411988091E0,2.483359337E0,1.439147472E0,-1.735563755E0,3.354161682E0
2.416992570E0,2.565975666E0,1.855173111E0,-8.322411180E-1,3.273915648E0
2.421997050E0,2.622222424E0,2.525660992E0,-1.392561197E-1,3.643405845E0
2.427001529E0,2.523026466E0,3.435421944E0,1.848258972E-1,4.266373998E0
2.432006008E0,2.092230320E0,4.474135399E0,2.931386232E-1,4.947852618E0
2.437010487E0,1.660394669E0,5.593963623E0,1.006160975E-1,5.836048584E0
2.442014966E0,8.789968491E-1,6.508442879E0,-2.573200464E-1,6.572570104E0
2.447019445E0,1.225161552E-1,7.180752277E0,-8.837964535E-1,7.235973303E0
2.452023925E0,-8.044626713E-1,7.932559013E0,-1.178253293E0,8.059834583E0
2.457028404E0,-1.705072165E0,8.836101532E0,-1.359767199E0,9.101259704E0
2.462032883E0,-2.745192528E0,9.241665840E0,-7.367655039E-1,9.668882713E0
2.467037362E0,-3.902818680E0,8.935988426E0,-6.126649380E-1,9.770324515E0
2.472041841E0,-4.834906578E0,9.179275513E0,-1.347117424E-1,1.037562373E1
2.477046320E0,-5.449687958E0,9.114914894E0,3.120810986E-1,1.062441372E1
2.482050800E0,-4.798735619E0,1.021821594E1,5.965607166E-1,1.130467537E1
2.487055279E0,-4.532492638E0,9.999351501E0,9.664566517E-1,1.102109606E1
2.492059758E0,-4.265770912E0,9.424647331E0,1.263253450E0,1.042192823E1
2.497064237E0,-3.750151157E0,7.839502335E0,1.132087469E0,8.763735082E0
2.502068716E0,-2.731251001E0,8.174227715E0,1.239549875E0,8.707135847E0
2.507073195E0,-2.186504364E0,6.156810284E0,1.451313257E0,6.692788983E0
2.512077675E0,-1.328973532E0,3.990831852E0,1.584802389E0,4.494942506E0
2.517082154E0,-1.815807819E-1,2.279142857E0,1.611323833E0,2.797110695E0
2.522086633E0,5.401201248E-1,1.253817081E0,1.890010357E0,2.331507275E0
2.527091112E0,1.317330837E0,-8.211469650E-1,2.136555195E0,2.640929945E0
2.532095591E0,1.852466965E1,-4.120701599E1,-2.259798813E1,5.051584524E1
2.537100070E0,2.827617407E0,-5.992300034E0,1.630786657E0,6.823675330E0
2.542104550E0,-4.558894634E-1,-1.799443245E0,5.784177780E0,6.074746397E0
2.547109029E0,7.356097698E-1,-4.418127060E0,5.503864288E0,7.096019346E0
2.552113508E0,1.881085205E1,-3.725678253E1,-2.015674973E1,4.634879242E1
2.557117987E0,2.253268719E0,-8.596745491E0,3.526294231E0,9.561171684E0
2.562122466E0,8.234449387E0,-1.803663254E1,-1.078298759E1,2.256987132E1
2.567126945E0,5.246188641E0,-4.591775894E0,-1.826303720E0,7.207099721E0
2.572131425E0,7.314201832E0,-9.849412918E0,-9.158500671E0,1.530969032E1
2.577135904E0,6.072695732E0,-6.343979836E0,-6.433866024E0,1.088661314E1
2.582140383E0,6.367755890E0,-5.084533691E0,-5.484707832E0,9.822566769E0
2.587144862E0,7.372045517E0,-4.972417831E0,-4.589445114E0,1.000674776E1
2.592149341E0,9.276859283E0,-5.316065788E0,-3.796622276E0,1.134614535E1
2.597153820E0,1.087400913E1,-5.452540398E0,-3.547099590E0,1.267107679E1
2.602158300E0,1.076362133E1,-4.956704140E0,-2.865227699E0,1.219155404E1
2.607162779E0,9.638364792E0,-5.563913345E0,-1.782576561E0,1.127088225E1
2.612167258E0,8.629008293E0,-5.885333061E0,-1.481426835E0,1.054948126E1
2.617171737E0,7.512553692E0,-6.436846733E0,-1.639158368E0,1.002787610E1
2.622176216E0,6.505986691E0,-6.500167847E0,-2.282294273E0,9.475701135E0
2.627180695E0,5.827748775E0,-5.763758659E0,-3.162720203E0,8.785577315E0
2.632185122E0,5.034658432E0,-4.695363045E0,-3.984315872E0,7.954180826E0
2.637189550E0,4.650931358E0,-3.776332855E0,-4.489733696E0,7.486625474E0
2.642193977E0,4.836238384E0,-2.665655136E0,-5.421955109E0,7.739025534E0
2.647198404E0,4.451512814E0,-1.903151512E0,-5.588113785E0,7.393576109E0
2.652202831E0,3.742573023E0,-1.539935112E0,-5.564951897E0,6.880911465E0
2.657207258E0,2.724709988E0,-2.086325645E0,-6.024346352E0,6.933220621E0
2.662211685E0,2.051073074E0,-2.341897011E0,-6.436539650E0,7.149854896E0
2.667216112E0,1.582124829E0,-2.169562340E0,-6.262457371E0,6.813845613E0
2.672220539E0,2.057123184E0,-2.469357491E0,-5.507267952E0,6.376478849E0
2.677224966E0,2.265508652E0,-2.978423119E0,-4.788430214E0,6.077219565E0
2.682229393E0,2.707161188E0,-4.041872025E0,-4.184804916E0,6.417012027E0
2.687233820E0,3.523857355E0,-5.148715019E0,-3.571368217E0,7.188985182E0
2.692238247E0,4.264033318E0,-6.433716774E0,-2.827579975E0,8.220091251E0
2.697242675E0,4.776167870E0,-6.588101387E0,-1.907038689E0,8.357730312E0
2.702247102E0,5.211867332E0,-6.699905396E0,-5.584810972E-1,8.506714673E0
2.707251529E0,5.298470497E0,-6.539953232E0,6.059104800E-1,8.438714677E0
2.712255956E0,6.803292751E0,-5.630544662E0,1.758505344E0,9.004452593E0
2.717260383E0,5.304945946E0,-5.837135315E0,2.501462936E0,8.274775948E0
2.722264810E0,4.694487572E0,-5.249549866E0,2.975668907E0,7.645298738E0
2.727269237E0,3.474400520E0,-5.092389107E0,3.375802517E0,7.028508264E0
2.732273664E0,2.403123379E0,-5.412056923E0,4.096401215E0,7.200407282E0
2.737278091E0,1.930690527E0,-5.590770721E0,4.542010784E0,7.457489198E0
2.742282518E0,1.019403458E0,-5.399240494E0,4.591963291E0,7.160803599E0
2.747286945E0,3.741669655E-1,-5.683976173E0,4.628210545E0,7.339476746E0
2.752291372E0,-2.474386692E-1,-6.238486290E0,4.840397835E0,7.899961284E0
2.757295800E0,-8.711941242E-1,-6.770442963E0,4.293279171E0,8.064125691E0
2.762300227E0,-9.322113991E-1,-7.375679970E0,4.083400726E0,8.481971151E0
2.767304654E0,-1.554091215E0,-7.939458847E0,3.591753483E0,8.851604339E0
2.772309081E0,-1.612538099E0,-8.223090172E0,3.706540108E0,9.162856032E0
2.777313508E0,-2.108538628E0,-8.017024994E0,3.687972546E0,9.073024104E0
2.782317935E0,-2.307440042E0,-7.198470116E0,3.539546490E0,8.346894088E0
2.787322362E0,-2.892237902E0,-6.132736206E0,3.106872082E0,7.458427957E0
2.792326789E0,-3.345503807E0,-4.801062584E0,2.743454933E0,6.462905123E0
2.797331216E0,-3.905769825E0,-3.982771873E0,2.519829273E0,6.121033351E0
2.802335643E0,-4.276493549E0,-3.179763794E0,2.310821533E0,5.808544656E0
2.807340070E0,-4.567481995E0,-2.382230759E0,2.244969130E0,5.619323941E0
2.812344497E0,-4.778701782E0,-1.776248932E0,2.622152328E0,5.732951581E0
2.817348925E0,-5.357162952E0,-1.996057510E0,-3.436923027E-2,5.717046591E0
2.822353352E0,-6.159824371E0,-2.459598541E0,3.589348555E0,7.541649973E0
2.827357779E0,-6.667848587E0,-2.075557709E0,1.567015171E0,7.157072106E0
2.832362206E0,-6.296958447E0,-1.469921112E0,2.134124279E0,6.809320098E0
2.837366633E0,-5.805902481E0,-9.883403778E-1,1.145392895E0,5.999770429E0
2.842371060E0,-5.243068218E0,-3.646249771E-1,1.267420530E0,5.406391635E0
2.847375487E0,-5.220191002E0,7.057805061E-1,1.830610514E0,5.576706472E0
2.852379914E0,-5.690527439E0,1.652284145E0,2.326382160E0,6.365862030E0
2.857384341E0,-6.746160507E0,2.468461037E0,2.907071114E0,7.749518949E0
2.862388768E0,-6.987504005E0,2.765637875E0,3.915196657E0,8.473649152E0
2.867393247E0,-6.574747086E0,2.415131092E0,4.849102974E0,8.519034985E0
2.872397727E0,-5.505166054E0,1.739854336E0,5.455269337E0,7.943167500E0
2.877402206E0,-3.841510773E0,1.181922913E0,5.772566795E0,7.033965752E0
2.882406685E0,-2.086673260E0,5.227341652E-1,6.212977409E0,6.574841792E0
2.887411164E0,-5.960140228E-1,1.550445557E-1,6.643604755E0,6.672087805E0
2.892415643E0,7.980127335E-1,-6.556987762E-2,7.008232594E0,7.053825049E0
2.897420122E0,1.910292149E0,1.123819351E-1,6.839545250E0,7.102198605E0
2.902424602E0,2.665239334E0,3.279671669E-1,6.841857910E0,7.349971621E0
2.907429081E0,3.025666952E0,4.653697014E-1,6.976022720E0,7.618144292E0
2.912433560E0,3.362001657E0,3.948855400E-1,7.026314735E0,7.799236405E0
2.917438039E0,3.610829830E0,4.464721680E-2,7.050332069E0,7.921317297E0
2.922442518E0,3.739670992E0,-1.599102020E-1,6.843705177E0,7.800449407E0
2.927446997E0,3.740658045E0,-3.438038826E-1,6.695036411E0,7.676863700E0
2.932451477E0,3.343805790E0,-6.408724785E-1,6.571693897E0,7.401277955E0
2.937455956E0,2.338814020E0,-1.141431808E0,6.523048878E0,7.023039531E0
2.942460435E0,1.214523315E0,-1.529025078E0,6.612885952E0,6.895160998E0
2.947464914E0,2.687592506E-1,-1.808183670E0,6.950848579E0,7.187214738E0
2.952469393E0,-5.192325115E-1,-1.916439056E0,7.424884796E0,7.685782673E0
2.957473872E0,-1.486753464E0,-1.910716534E0,7.879179001E0,8.242738335E0
2.962478352E0,-2.915913582E0,-1.943182945E0,8.192547798E0,8.910463030E0
2.967482831E0,-4.208572388E0,-1.893039703E0,8.377755165E0,9.564646489E0
2.972487310E0,-4.968391418E0,-1.506010056E0,8.524373055E0,9.980877494E0
2.977491789E0,-6.348229408E0,-1.006074905E0,8.468416214E0,1.063138168E1
2.982496268E0,-8.029985428E0,-1.720771790E-1,7.697906494E0,1.112510858E1
2.987500747E0,-1.116808796E1,1.928623199E0,6.712162971E0,1.317189842E1
2.992505227E0,-1.068577385E1,2.569892883E0,7.370767593E0,1.323322814E1
2.997509706E0,-1.018139648E1,3.130614281E0,7.179775238E0,1.284565112E1
3.002514185E0,-9.273494720E0,6.554543018E0,8.028831482E0,1.390761926E1
3.007518664E0,-1.096023178E1,6.950764656E0,8.020521164E0,1.525675489E1
3.012523143E0,-1.095446014E1,7.061422825E0,7.795017242E0,1.518638150E1
3.017527622E0,-1.110222626E1,8.215647697E0,7.241557598E0,1.559475718E1
3.022532102E0,-1.085525513E1,8.657245636E0,6.785119534E0,1.545387696E1
3.027536581E0,-1.030110168E1,9.128126144E0,6.482518196E0,1.521375775E1
3.032541060E0,-9.427212715E0,9.225797653E0,6.104149818E0,1.453438430E1
3.037545539E0,-8.312316895E0,9.571192741E0,5.473412991E0,1.380799017E1
3.042550018E0,-7.135176182E0,1.017589378E1,4.755208969E0,1.330682403E1
3.047554497E0,-6.180586815E0,1.090836239E1,4.070178986E0,1.318174421E1
3.052558977E0,-5.480234623E0,1.169536018E1,3.021122932E0,1.326429814E1
3.057563456E0,-4.563599586E0,1.220566368E1,1.919032812E0,1.317145983E1
3.062567935E0,-3.538176775E0,1.232903576E1,4.048256874E-1,1.283307062E1
3.067572414E0,-2.304512978E0,1.163525295E1,-1.946670532E0,1.201995913E1
3.072576893E0,-7.614250183E-1,9.895162582E0,-5.395796299E0,1.129639891E1
3.077581372E0,8.128776550E-1,7.075529099E0,-9.812345505E0,1.212460335E1
3.082585852E0,2.965762854E0,3.783447504E0,-1.341705704E1,1.425228557E1
3.087590331E0,6.188050270E0,1.036331654E0,-1.520990181E1,1.645317788E1
3.092594810E0,1.013642597E1,-1.606173038E0,-1.636774254E1,1.931915938E1
3.097599289E0,1.300673771E1,-1.078647518E1,-1.784520531E1,2.457589520E1
3.102603768E0,1.505903339E1,-1.450655651E1,-1.569950676E1,2.614745076E1
3.107608247E0,1.395686722E1,-1.876022339E1,-1.457054615E1,2.755069762E1
3.112612727E0,1.301397610E1,-2.175236130E1,-1.300799179E1,2.849099237E1
3.117617206E0,1.137411880E1,-2.387657166E1,-1.253486252E1,2.926745686E1
3.122621633E0,1.001454830E1,-2.527266121E1,-1.128803635E1,2.943498508E1
3.127626060E0,1.017543793E1,-2.347975540E1,-8.764450073E0,2.704910416E1
3.132630487E0,8.761704445E0,-1.932788467E1,-7.427615166E0,2.248341740E1
3.137634914E0,7.634464264E0,-1.359181404E1,-5.554067612E0,1.654902174E1
3.142639341E0,5.725504875E0,-8.170194626E0,-3.428042889E0,1.054916889E1
3.147643768E0,3.437515020E0,-4.248107910E0,-2.159584284E0,5.875945423E0
3.152648195E0,1.414539099E0,-1.959019661E0,-1.443625212E0,2.814734916E0
3.157652622E0,-2.837009430E-1,-8.062524796E-1,-1.173548698E0,1.451807781E0
3.162657050E0,-1.757100582E0,-4.560632706E-1,-1.015928507E0,2.080266063E0
3.167661477E0,-2.932600021E0,-5.788955688E-1,-5.919270515E-1,3.047234910E0
3.172665904E0,-4.142631531E0,-1.049778938E0,1.298511028E-1,4.275545945E0
3.177670331E0,-5.177417755E0,-1.537804604E0,4.540328979E-1,5.420022461E0
3.182674758E0,-5.946496964E0,-1.952265739E0,5.678849220E-1,6.284477778E0
3.187679185E0,-6.510336399E0,-2.489839554E0,4.558186531E-1,6.985094966E0
3.192683612E0,-6.822419167E0,-3.174356461E0,4.232785702E-1,7.536650912E0
3.197688039E0,-7.052454948E0,-3.742348671E0,1.470453739E-1,7.985231162E0
3.202692466E0,-7.648162842E0,-4.590297699E0,-4.054584503E-1,8.929144661E0
3.207696893E0,-8.434700012E0,-5.677927971E0,-6.904580593E-1,1.019116101E1
3.212701320E0,-9.091335297E0,-6.967381477E0,3.719584942E-1,1.146015424E1
3.217705747E0,-9.356491089E0,-8.094450951E0,2.239373207E0,1.257294134E1
3.222710175E0,-9.199539185E0,-8.349659920E0,4.367072582E0,1.316889004E1
3.227714602E0,-8.822014809E0,-7.798316956E0,6.423951626E0,1.341301037E1
3.232719029E0,-8.249604225E0,-6.229063034E0,7.889097214E0,1.300365529E1
3.237723456E0,-7.606301308E0,-3.908276558E0,8.663741112E0,1.217336664E1
3.242727883E0,-7.093811989E0,-1.588772774E0,8.975700378E0,1.155030583E1
3.247732310E0,-6.841120720E0,3.277120590E-1,9.089160919E0,1.138073698E1
3.252736737E0,-6.689425468E0,1.828097820E0,9.414731026E0,1.169305414E1
3.257741164E0,-6.543455601E0,3.009494781E0,9.991808891E0,1.231706600E1
3.262745591E0,-6.657076359E0,3.753873348E0,1.041888714E1,1.292135596E1
3.267750018E0,-6.819057465E0,4.268445015E0,1.070224380E1,1.338869635E1
3.272754445E0,-6.751777649E0,4.692540169E0,1.084918594E1,1.361290822E1
3.277758872E0,-6.537193298E0,4.805868149E0,1.058634949E1,1.333799312E1
3.282763300E0,-6.237904549E0,4.679440498E0,1.002566433E1,1.270128190E1
3.287767727E0,-5.792304993E0,4.398071289E0,9.361832619E0,1.185486137E1
3.292772154E0,-5.163467407E0,4.041491985E0,8.608057022E0,1.082098419E1
3.297776581E0,-4.420615196E0,3.583996773E0,7.768342972E0,9.629850679E0
3.302781008E0,-3.718976259E0,2.890241146E0,6.784824371E0,8.259426133E0
3.307785435E0,-3.022108316E0,2.026267529E0,5.800847054E0,6.847534251E0
3.312789862E0,-2.360442162E0,1.087101460E0,5.021552563E0,5.654154837E0
3.317794289E0,-1.912508965E0,1.539068222E-1,4.309734821E0,4.717540893E0
3.322798716E0,-1.387239933E0,-7.922649384E-1,3.790593147E0,4.113479643E0
3.327803143E0,-8.096971512E-1,-1.832407951E0,3.454064846E0,3.992980383E0
3.332807570E0,-2.000403404E-1,-2.875295639E0,2.845294476E0,4.050066889E0
3.337811997E0,2.270543575E-1,-4.058945656E0,2.078868389E0,4.565992477E0
3.342816425E0,8.938083649E-1,-4.952141762E0,1.350608230E0,5.210253738E0
3.347820852E0,1.937345743E0,-5.206355095E0,1.292192340E-1,5.556630230E0
3.352825279E0,2.593883991E0,-5.566489220E0,-7.415162325E-1,6.185780688E0
3.357829706E0,3.189681530E0,-5.368957520E0,-2.164237022E0,6.609364190E0
3.362834133E0,4.049803257E0,-4.306625366E0,-3.261013746E0,6.751454593E0
3.367838612E0,5.001734257E0,-3.118037224E0,-3.357813358E0,6.783392385E0
3.372843091E0,5.161588192E0,-1.704625130E0,-3.455954552E0,6.441378840E0
3.377847570E0,5.209445000E0,-6.853532791E-1,-3.226426840E0,6.165862184E0
3.382852050E0,5.505157471E0,-4.719543457E-2,-2.883291960E0,6.214688947E0
3.387856529E0,5.441764832E0,6.347579956E-1,-2.952722788E0,6.223688139E0
3.392861008E0,5.509005070E0,1.226247787E0,-2.725464106E0,6.267453636E0
3.397865487E0,5.736712456E0,1.899496078E0,-2.386025429E0,6.497004887E0
3.402869966E0,5.887578487E0,2.616282940E0,-1.958953857E0,6.733945135E0
3.407874445E0,5.812606335E0,3.176144600E0,-1.451353788E0,6.780908106E0
3.412878925E0,5.694058418E0,3.833143711E0,-8.959958553E-1,6.922290123E0
3.417883404E0,5.231700897E0,4.319710732E0,-3.933878541E-1,6.795980362E0
3.422887883E0,4.799857140E0,4.449768543E0,1.759774387E-1,6.547521417E0
3.427892362E0,4.203486443E0,4.496426105E0,4.061701596E-1,6.168640060E0
3.432896841E0,3.531064034E0,4.407469273E0,3.771827817E-1,5.660076453E0
3.437901320E0,2.990332842E0,4.054268837E0,2.520474792E-1,5.044077144E0
3.442905800E0,2.285844564E0,3.389577389E0,3.682321310E-2,4.088480915E0
3.447910279E0,1.433826447E0,2.572020054E0,-1.225922108E-1,2.947231631E0
3.452914758E0,9.428093433E-1,1.769624233E0,-1.184337735E-1,2.008602983E0
3.457919237E0,7.555037737E-1,9.778957367E-1,-1.592540741E-2,1.235847742E0
3.462923716E0,6.129455566E-1,3.356075287E-1,1.381853819E-1,7.123411181E-1
3.467928195E0,3.905980587E-1,-9.521389008E-2,2.485172749E-1,4.726450721E-1
3.472932675E0,1.172753572E-1,-3.387184143E-1,1.667213440E-1,3.953222485E-1
3.477937154E0,4.140281677E-2,-3.617868423E-1,-4.084205627E-2,3.664314207E-1
3.482941633E0,-2.010139227E-1,-2.748203278E-1,-4.226716757E-1,5.427560733E-1
3.487946112E0,-4.039239883E-1,-8.273983002E-2,-7.924526930E-1,8.932982360E-1
3.492950591E0,-6.004896760E-1,1.760816574E-1,-1.222403049E0,1.373266841E0
3.497955070E0,-8.954985738E-1,4.872999191E-1,-1.712394714E0,1.992906060E0
3.502959550E0,-1.044959545E0,9.034938812E-1,-2.104286671E0,2.517193683E0
3.507964029E0,-1.359619379E0,1.295463562E0,-2.441318035E0,3.080068903E0
3.512968508E0,-1.412998438E0,1.677652836E0,-2.417923927E0,3.264573439E0
3.517972987E0,-1.449111700E0,1.930411339E0,-2.312901974E0,3.343041758E0
3.522977466E0,-1.396132231E0,2.044274330E0,-2.059913874E0,3.220479453E0
3.527981945E0,-1.387941122E0,1.985832214E0,-1.793746948E0,3.014537818E0
3.532986425E0,-1.329269767E0,1.812513351E0,-1.467063069E0,2.684108197E0
3.537990904E0,-1.230595589E0,1.548102856E0,-1.128345966E0,2.276873421E0
3.542995383E0,-1.159594536E0,1.221270561E0,-1.074065566E0,1.997442893E0
3.547999862E0,-1.107263088E0,7.986898422E-1,-1.125969052E0,1.769673223E0
3.553004341E0,-9.733881354E-1,3.905897141E-1,-1.153971672E0,1.559389434E0
3.558008820E0,-8.871757984E-1,-7.693290710E-3,-1.219568491E0,1.508140374E0
3.563013300E0,-7.860663533E-1,-3.624544144E-1,-1.321779370E0,1.579991841E0
3.568017779E0,-6.600298882E-1,-6.543865204E-1,-1.483676672E0,1.750759161E0
3.573022258E0,-5.561022162E-1,-9.597549438E-1,-1.737679720E0,2.061530993E0
3.578026737E0,-4.976037741E-1,-1.335620880E0,-2.082685709E0,2.523702125E0
3.583031216E0,-3.879975080E-1,-1.724261284E0,-2.412768364E0,2.990831025E0
3.588035695E0,-2.841215730E-1,-2.178242683E0,-2.689863682E0,3.472870986E0
3.593040175E0,-4.680490494E-2,-2.673730850E0,-2.981761456E0,4.005237663E0
3.598044602E0,4.051339030E-1,-3.215596199E0,-3.298408270E0,4.624250156E0
3.603049029E0,1.028106689E0,-3.674880981E0,-3.530323744E0,5.198551657E0
3.608053456E0,1.878063917E0,-4.032840729E0,-3.721141338E0,5.799812176E0
3.613057883E0,2.871615887E0,-4.280244827E0,-3.880653620E0,6.451832771E0
3.618062310E0,4.025668144E0,-4.359999657E0,-4.018557549E0,7.166896524E0
3.623066737E0,5.294488907E0,-4.258036613E0,-4.206520557E0,7.991076510E0
3.628071164E0,6.431255341E0,-3.907576561E0,-4.544483662E0,8.791048378E0
3.633075591E0,7.390956402E0,-3.404308319E0,-4.892647266E0,9.494922271E0
3.638080018E0,8.019519806E0,-2.877260208E0,-4.944200516E0,9.850707739E0
3.643084445E0,8.441756248E0,-2.321702957E0,-4.542315483E0,9.863375848E0
3.648088872E0,8.744714737E0,-1.881538391E0,-3.823606253E0,9.727804856E0
3.653093300E0,9.053818703E0,-1.552285194E0,-3.144565105E0,9.709248793E0
3.658097727E0,9.326934814E0,-1.190641403E0,-2.745715618E0,9.795320017E0
3.663102154E0,9.536114693E0,-8.349885941E-1,-2.651058435E0,9.932914991E0
3.668106581E0,9.610033035E0,-5.377883911E-1,-2.811838150E0,1.002738177E1
3.673111008E0,9.338302612E0,-3.847322464E-1,-3.255072832E0,9.896838572E0
3.678115435E0,8.745453835E0,-6.238431931E-1,-3.892392635E0,9.592854816E0
3.683119862E0,7.956923962E0,-1.454974174E0,-4.568562031E0,9.289851872E0
3.688124289E0,7.121744156E0,-2.709720612E0,-5.229829788E0,9.241912423E0
3.693128716E0,6.350638866E0,-4.038368225E0,-5.851899147E0,9.533297203E0
3.698133143E0,5.620211124E0,-5.187338829E0,-6.544461250E0,1.006604343E1
3.703137570E0,4.920986652E0,-5.884119987E0,-7.268012047E0,1.056707040E1
3.708141997E0,4.128464699E0,-6.382390022E0,-8.068168640E0,1.108487566E1
3.713146425E0,3.338784695E0,-6.495655060E0,-8.871253967E0,1.149087311E1
3.718150852E0,2.466151714E0,-6.162115097E0,-9.637328148E0,1.170178023E1
3.723155279E0,1.611424923E0,-5.492308617E0,-1.033141899E1,1.181102716E1
3.728159706E0,1.066439152E0,-4.649271011E0,-1.087519932E1,1.187530941E1
3.733164133E0,6.920548081E-1,-3.738507271E0,-1.109905243E1,1.173219252E1
3.738168560E0,5.361004472E-1,-2.779519081E0,-1.078596020E1,1.115123614E1
3.743172987E0,6.899145246E-1,-1.973713875E0,-9.800666809E0,1.002120743E1
3.748177414E0,1.374193668E0,-1.580092430E0,-7.780682564E0,8.057550588E0
3.753181841E0,2.441309929E0,-1.551644325E0,-5.543268681E0,6.252633201E0
3.758186268E0,3.780970335E0,-1.784039497E0,-3.756966352E0,5.620794408E0
3.763190695E0,5.319345474E0,-2.039222717E0,-2.110008001E0,6.075030809E0
3.768195122E0,6.766235352E0,-2.127135277E0,-7.651872039E-1,7.133873897E0
3.773199550E0,7.837035179E0,-2.235338211E0,5.876386166E-1,8.170751279E0
3.778203977E0,8.674446106E0,-2.483567238E0,1.970367551E0,9.235608792E0
3.783208404E0,9.187266350E0,-2.746928215E0,3.156754255E0,1.009537394E1
3.788212831E0,9.171093941E0,-3.316166878E0,4.390964985E0,1.069516247E1
3.793217258E0,8.700984001E0,-3.979100227E0,5.412172318E0,1.099235964E1
3.798221685E0,7.933893681E0,-4.633735657E0,6.019722939E0,1.098431788E1
3.803226112E0,6.996456146E0,-5.260003090E0,6.025462627E0,1.062658134E1
3.808230539E0,6.008694172E0,-5.891195297E0,5.530979633E0,1.006987206E1
3.813234966E0,4.885065079E0,-6.541815758E0,4.658060074E0,9.399826482E0
3.818239393E0,3.788410664E0,-7.145546913E0,3.438563824E0,8.788322776E0
3.823243820E0,2.775882959E0,-7.918699265E0,2.267662525E0,8.692158396E0
3.828248247E0,1.780407906E0,-8.804723740E0,1.532944202E0,9.112789385E0
3.833252675E0,9.545640945E-1,-9.474400520E0,1.479096532E0,9.636554591E0
3.838257102E0,1.192505360E-1,-9.995737076E0,1.902085900E0,1.017580027E1
3.843261529E0,-6.847329140E-1,-1.032137394E1,2.657431126E0,1.067996064E1
3.848265956E0,-1.426113129E0,-1.027909279E1,3.628114462E0,1.099348724E1
3.853270383E0,-2.311849117E0,-1.010270023E1,4.405346870E0,1.126127344E1
3.858274810E0,-3.312981606E0,-9.633293152E0,4.587703228E0,1.117243058E1
3.863279289E0,-4.203909874E0,-9.147733688E0,4.461315155E0,1.101168574E1
3.868283768E0,-5.112415791E0,-8.229618073E0,4.004044533E0,1.048311888E1
3.873288247E0,-5.854143143E0,-6.917732239E0,3.463798523E0,9.701747856E0
3.878292727E0,-6.506739616E0,-5.905861855E0,2.653731108E0,9.179278483E0
3.883297206E0,-6.985613823E0,-5.136157036E0,2.223658323E0,8.951176790E0
3.888301685E0,-7.328184128E0,-4.321200371E0,2.197916031E0,8.786688235E0
3.893306164E0,-7.564180374E0,-3.628044128E0,2.449899673E0,8.739653159E0
3.898310643E0,-7.652177811E0,-2.864560127E0,2.756273746E0,8.623141825E0
3.903315122E0,-7.640555382E0,-2.049203873E0,2.976512671E0,8.452038259E0
3.908319602E0,-7.294816017E0,-1.444237709E0,3.468388319E0,8.205478707E0
3.913324081E0,-7.016937256E0,-9.244470596E-1,3.848511219E0,8.056242885E0
3.918328560E0,-6.437518120E0,-5.035381317E-1,4.246860504E0,7.728584239E0
3.923333039E0,-5.741621971E0,1.981735229E-2,4.674830437E0,7.404097190E0
3.928337518E0,-5.008639812E0,5.404648781E-1,5.072537422E0,7.149070636E0
3.933341997E0,-4.137082577E0,1.072622776E0,5.470622063E0,6.942166637E0
3.938346477E0,-3.113293886E0,1.625127792E0,5.808218479E0,6.787417850E0
3.943350956E0,-2.230521441E0,2.049043179E0,6.205137253E0,6.904891901E0
3.948355435E0,-1.316882372E0,2.386890888E0,6.547428131E0,7.092266381E0
3.953359914E0,-8.889806271E-1,2.796211720E0,6.835688591E0,7.438798629E0
3.958364393E0,-1.054434776E-1,3.233871937E0,7.126348495E0,7.826486371E0
3.963368872E0,6.087839603E-1,3.685012817E0,7.206470966E0,8.116844286E0
3.968373352E0,1.001558781E0,4.106476784E0,7.269518375E0,8.409052799E0
3.973377831E0,1.180579662E0,4.388362885E0,7.308545589E0,8.606180092E0
3.978382310E0,1.150012970E0,4.531137466E0,7.365703583E0,8.723951275E0
3.983386789E0,8.722212315E-1,4.597515106E0,7.374038696E0,8.733519435E0
3.988391268E0,3.868291378E-1,4.439523697E0,7.387063026E0,8.627149448E0
3.993395747E0,-2.949192524E-1,4.110154629E0,7.367717743E0,8.441777845E0
3.998400227E0,-1.152691364E0,3.638625145E0,7.483914375E0,8.401027598E0
4.003404706E0,-2.066074610E0,3.001515388E0,7.683103561E0,8.503401629E0
4.008409185E0,-3.039993525E0,2.285397053E0,7.964811802E0,8.826257834E0
4.013413664E0,-4.031787872E0,1.629421234E0,8.313945770E0,9.382538104E0
4.018418143E0,-5.028129578E0,1.134358406E0,8.667134285E0,1.008405041E1
4.023422622E0,-5.967332840E0,6.954255104E-1,8.989943504E0,1.081257426E1
4.028427102E0,-6.849300385E0,4.136862755E-1,9.262734413E0,1.152745856E1
4.033431581E0,-7.693119049E0,2.849121094E-1,9.417994499E0,1.216404028E1
4.038436060E0,-8.474466324E0,3.287963867E-1,9.536803246E0,1.276226088E1
4.043440539E0,-9.154754639E0,4.790625572E-1,9.556434631E0,1.324252530E1
4.048445018E0,-9.738231659E0,7.268691063E-1,9.471838951E0,1.360430916E1
4.053449497E0,-1.016706562E1,1.015480518E0,9.311439514E0,1.382401280E1
4.058453977E0,-1.050789165E1,1.560499191E0,8.946115494E0,1.388826581E1
4.063458456E0,-1.067978477E1,2.265770435E0,8.495727539E0,1.383361503E1
4.068462935E0,-1.059251118E1,3.078179836E0,7.902998924E0,1.356959381E1
4.073467414E0,-1.023634815E1,3.896693468E0,7.321956158E0,1.317490362E1
4.078471841E0,-9.754529953E0,4.759579659E0,6.939325333E0,1.288249546E1
4.083476268E0,-9.199119568E0,5.509321213E0,6.673381329E0,1.262974423E1
4.088480695E0,-8.598394394E0,6.041394234E0,6.475502491E0,1.234353932E1
4.093485122E0,-8.009263992E0,6.356761932E0,6.186834335E0,1.195130332E1
4.098489550E0,-7.292042732E0,6.427593231E0,5.759034157E0,1.129842097E1
4.103493977E0,-6.593828201E0,6.259313107E0,5.120339870E0,1.043434000E1
4.108498404E0,-5.929053307E0,6.119522095E0,4.108109951E0,9.459322975E0
4.113502831E0,-5.260848999E0,5.958961964E0,2.545674324E0,8.346629118E0
4.118507258E0,-4.575645924E0,5.575158596E0,1.359701157E-2,7.212427737E0
4.123511685E0,-3.553529739E0,5.229138374E0,-3.484756470E0,7.219071228E0
4.128516112E0,-2.113331795E0,4.674313068E0,-7.767403126E0,9.308486733E0
4.133520539E0,-1.794500351E-1,3.807075977E0,-1.271331406E1,1.327231646E1
4.138524966E0,2.192676306E0,2.369763851E0,-1.747812653E1,1.777381549E1
4.143529393E0,4.881241798E0,-2.287135124E-1,-1.918595123E1,1.979847358E1
4.148533820E0,8.081368446E0,-4.150284767E0,-1.830623245E1,2.043652432E1
4.153538247E0,1.046320152E1,-9.012831688E0,-1.507091904E1,2.044119179E1
4.158542675E0,1.208981323E1,-1.251780033E1,-1.152971172E1,2.087565955E1
4.163547102E0,1.367129135E1,-1.414817715E1,-8.629513741E0,2.148356654E1
4.168551529E0,1.286589336E1,-1.562452698E1,-7.914804459E0,2.173249146E1
4.173555956E0,1.206914520E1,-1.592997742E1,-8.247648239E0,2.162064171E1
4.178560383E0,1.218818378E1,-1.456192970E1,-8.228080750E0,2.069548099E1
4.183564810E0,1.209772873E1,-1.209869003E1,-7.936150551E0,1.886043018E1
4.188569237E0,1.167238045E1,-8.881977081E0,-7.304181099E0,1.638551323E1
4.193573664E0,1.045793056E1,-5.418927193E0,-6.291637421E0,1.335356825E1
4.198578091E0,8.467127800E0,-1.938109398E0,-4.746954918E0,9.898590921E0
4.203582518E0,6.095299244E0,9.695205688E-1,-3.452901363E0,7.072140470E0
4.208586945E0,4.405960560E0,3.033904076E0,-1.666112185E0,5.602944958E0
4.213591372E0,2.870704412E0,4.353680611E0,3.052203655E-1,5.223852808E0
4.218595800E0,1.434389114E0,5.314565659E0,1.908090830E0,5.826052771E0
4.223600227E0,-5.462861061E-2,5.875724792E0,2.633430004E0,6.439105505E0
4.228604654E0,-1.293609619E0,5.951931000E0,2.693197727E0,6.659746427E0
4.233609081E0,-2.161497593E0,5.064316750E0,2.350772381E0,5.987111722E0
4.238613508E0,-2.745261431E0,3.256082058E0,2.311025858E0,4.845551693E0
4.243617935E0,-2.917945385E0,1.241422176E0,2.392845631E0,3.972561453E0
4.248622362E0,-2.905172110E0,-5.196866989E-1,2.258633852E0,3.716386165E0
4.253626789E0,-2.788645744E0,-2.075933456E0,1.885455251E0,3.954868684E0
4.258631216E0,-2.719008923E0,-3.515467644E0,1.051219583E0,4.566901016E0
4.263635643E0,-2.456808805E0,-4.745633125E0,-1.134263515E0,5.462920189E0
4.268640070E0,-1.258667231E0,-6.182538033E0,-4.706191063E0,7.871229513E0
4.273644497E0,-8.215594292E-2,-8.667510033E0,-7.291304588E0,1.132676487E1
4.278648925E0,2.607336044E-1,-1.197658253E1,-5.457750320E0,1.316410079E1
4.283653352E0,1.711306572E-1,-1.468252373E1,-2.012284040E0,1.482076502E1
4.288657779E0,-2.531430721E-1,-1.543779659E1,-1.018192768E-1,1.544020765E1
4.293662206E0,-7.282400131E-1,-1.484759903E1,1.602182508E0,1.495153903E1
4.298666633E0,-1.251194477E0,-1.353948593E1,3.830676556E0,1.412647337E1
4.303671060E0,-1.317986012E0,-1.019899273E1,6.003068924E0,1.190770239E1
4.308675487E0,-2.043394566E0,-6.218507767E0,7.186913490E0,9.720958066E0
4.313679914E0,-2.866117477E0,-3.085788727E0,7.821054459E0,8.882883220E0
4.318684341E0,-3.619181156E0,-5.547571182E-1,7.853740692E0,8.665302681E0
4.323688768E0,-4.302443504E0,1.433713913E0,8.124315262E0,9.304356730E0
4.328693195E0,-5.011190891E0,2.872148991E0,8.379418373E0,1.017722586E1
4.333697622E0,-5.487215042E0,4.106506348E0,8.481396675E0,1.090444922E1
4.338702050E0,-5.708032608E0,4.883861542E0,8.690088272E0,1.148700892E1
4.343706477E0,-6.047524452E0,5.400986671E0,8.663647652E0,1.186600184E1
4.348710904E0,-6.490839958E0,5.576937675E0,8.745855331E0,1.223614411E1
4.353715331E0,-6.812693596E0,5.459918976E0,8.887760162E0,1.245856292E1
4.358719758E0,-6.918048859E0,5.107144833E0,8.657896996E0,1.220252059E1
4.363724185E0,-7.050747871E0,4.580177307E0,8.043942451E0,1.163598212E1
4.368728612E0,-6.966283798E0,3.839844227E0,7.130852222E0,1.068281644E1
4.373733091E0,-6.668721199E0,3.062175274E0,5.847599030E0,9.383132433E0
4.378737570E0,-6.234446049E0,2.370147705E0,4.498165607E0,8.044837569E0
4.383742050E0,-5.554334641E0,1.633280754E0,3.524132967E0,6.777739482E0
4.388746529E0,-4.993487358E0,6.546649933E-1,2.332182884E0,5.550007140E0
4.393751008E0,-4.466032982E0,-4.078817368E-1,1.076178193E0,4.611938596E0
4.398755487E0,-3.877192497E0,-1.458811760E0,8.110648394E-2,4.143347882E0
4.403759966E0,-3.127708435E0,-2.407267570E0,-5.647906065E-1,3.987039709E0
4.408764445E0,-2.567958832E0,-3.133714676E0,-1.114502072E0,4.201987042E0
4.413768925E0,-2.015486240E0,-3.676202774E0,-1.333379745E0,4.399380998E0
4.418773404E0,-1.283586025E0,-3.833535194E0,-6.753338575E-1,4.098738951E0
4.423777883E0,-5.773715973E-1,-3.810022354E0,-1.852771044E-1,3.857973031E0
4.428782362E0,-1.168107986E-1,-3.047626495E0,-2.901611924E-1,3.063635999E0
4.433786841E0,5.746781826E-1,-1.669451714E0,-7.890532613E-1,1.933889626E0
4.438791320E0,1.143271446E0,-2.218332291E-1,-1.380554199E0,1.806158763E0
4.443795800E0,1.506230593E0,1.078010559E0,-2.151734352E0,2.839154467E0
4.448800279E0,2.015105009E0,1.639727116E0,-2.434643745E0,3.560455502E0
4.453804758E0,2.603411198E0,1.973964691E0,-2.210299015E0,3.944579598E0
4.458809237E0,3.028550863E0,2.314258099E0,-1.544610500E0,4.112630846E0
4.463813716E0,3.259462595E0,2.521489620E0,-7.318962812E-1,4.185412582E0
4.468818195E0,3.496525049E0,2.667768002E0,1.087686568E-1,4.399375427E0
4.473822675E0,3.720284700E0,2.605232716E0,1.014724731E0,4.653753543E0
4.478827154E0,3.711689949E0,2.406436443E0,1.864069104E0,4.800242937E0
4.483831633E0,3.740730524E0,2.220475197E0,2.710488796E0,5.125458464E0
4.488836112E0,3.579915762E0,2.100536346E0,3.271429777E0,5.284912733E0
4.493840591E0,3.279729843E0,2.061382294E0,3.561397076E0,5.262078861E0
4.498845070E0,2.972093344E0,2.280229568E0,3.643924236E0,5.225989817E0
4.503849550E0,2.591238976E0,2.488861561E0,3.618126392E0,5.098998910E0
4.508854029E0,2.198137760E0,2.371018887E0,3.504279613E0,4.767967678E0
4.513858508E0,1.685229182E0,2.026820183E0,3.234285116E0,4.172361162E0
4.518862987E0,1.099080205E0,1.609282017E0,2.908469677E0,3.500994397E0
4.523867466E0,-2.391088009E-2,1.443963528E0,2.512612343E0,2.898072322E0
4.528871945E0,-4.567757845E-1,8.999128342E-1,2.312221289E0,2.522866329E0
4.533876425E0,-1.145946980E-1,4.608335495E-1,1.921161175E0,1.978979476E0
4.538880904E0,-2.762302160E-1,5.522098541E-1,1.176928163E0,1.329059350E0
4.543885383E0,-7.194218636E-1,9.587249756E-1,7.110357285E-2,1.200740236E0
4.548889862E0,-1.117437840E0,1.369740009E0,-1.393998265E0,2.251241031E0
4.553894341E0,-1.599366307E0,1.632606030E0,-3.058680058E0,3.818232409E0
4.558898820E0,-2.103140831E0,1.867426872E0,-4.548279285E0,5.347647047E0
4.563903300E0,-2.562251568E0,1.916470528E0,-5.653043747E0,6.495759847E0
4.568907727E0,-2.899967670E0,1.856307983E0,-6.026951790E0,6.941169908E0
4.573912154E0,-3.077708721E0,1.447587490E0,-5.951852798E0,6.855096808E0
4.578916581E0,-2.960372925E0,1.025194168E0,-5.307667255E0,6.163291542E0
4.583921008E0,-2.685563087E0,7.850704193E-1,-4.561108589E0,5.350915456E0
4.588925435E0,-2.195404291E0,6.646747589E-1,-3.703598976E0,4.356401946E0
4.593929862E0,-1.543018222E0,5.106887817E-1,-3.055490017E0,3.460885365E0
4.598934289E0,-2.136510611E-1,3.516588211E-1,-2.582169056E0,2.614748121E0
4.603938716E0,1.325442910E0,2.877721786E-1,-2.239510298E0,2.618208951E0
4.608943143E0,2.555519581E0,2.279081345E-1,-1.940588951E0,3.216909685E0
4.613947570E0,3.423527241E0,1.241970062E-1,-1.642133474E0,3.799021718E0
4.618951997E0,4.001949787E0,1.346387863E-1,-1.329497814E0,4.219157989E0
4.623956425E0,4.363395691E0,1.158246994E-1,-1.078592777E0,4.496220601E0
4.628960852E0,4.532511711E0,1.058292389E-2,-1.003604889E0,4.642305158E0
4.633965279E0,4.566965103E0,-2.189931870E-1,-1.093737841E0,4.701211624E0
4.638969706E0,4.357113838E0,-5.771770477E-1,-1.476543427E0,4.636567139E0
4.643974133E0,3.931925058E0,-1.144818306E0,-2.150565386E0,4.625535115E0
4.648978560E0,3.521437645E0,-1.777809143E0,-2.941973448E0,4.921009673E0
4.653982987E0,3.364540100E0,-2.432882309E0,-3.831065178E0,5.649434203E0
4.658987414E0,3.336573362E0,-3.114846230E0,-4.593449593E0,6.475705984E0
4.663991841E0,3.451881409E0,-3.699629784E0,-5.077833652E0,7.168482433E0
4.668996268E0,3.657713652E0,-4.006000519E0,-5.195480347E0,7.511319814E0
4.674000695E0,4.077291012E0,-4.058528900E0,-5.168049335E0,7.733349388E0
4.679005122E0,4.780656815E0,-3.618513107E0,-4.905141830E0,7.746530389E0
4.684009550E0,5.598156929E0,-2.748538017E0,-4.353393555E0,7.605646434E0
4.689013977E0,6.604564190E0,-1.817126274E0,-3.684214830E0,7.777895278E0
4.694018404E0,7.636298656E0,-9.486074448E-1,-2.907112122E0,8.225826046E0
4.699022831E0,8.693253517E0,-3.439073563E-1,-2.195278883E0,8.972746422E0
4.704027258E0,9.636885643E0,5.433273315E-2,-1.746496201E0,9.794016843E0
4.709031685E0,1.047682953E1,2.985916138E-1,-1.619637132E0,1.060548624E1
4.714036112E0,1.108350182E1,3.313283920E-1,-1.920961499E0,1.125361649E1
4.719040539E0,1.119811630E1,6.651496887E-2,-2.564585447E0,1.148822578E1
4.724044966E0,1.052380180E1,-3.949909210E-1,-3.343832493E0,1.104932749E1
4.729049393E0,9.162406921E0,-9.664278030E-1,-4.045962811E0,1.006247973E1
4.734053820E0,7.570816517E0,-1.670886040E0,-4.715880394E0,9.074615737E0
4.739058247E0,6.310775280E0,-2.760993004E0,-5.336389542E0,8.713553830E0
4.744062675E0,5.502849579E0,-4.183284760E0,-5.767250061E0,9.002355144E0
4.749067102E0,4.970223427E0,-5.597759247E0,-6.099257469E0,9.656032890E0
4.754071529E0,4.530960083E0,-6.416217804E0,-6.456627846E0,1.016786572E1
4.759075956E0,4.136717796E0,-6.978954315E0,-6.986896515E0,1.070677171E1
4.764080383E0,3.639317989E0,-7.161918640E0,-7.971159935E0,1.131711557E1
4.769084810E0,3.192273617E0,-6.621009827E0,-9.258574486E0,1.182157280E1
4.774089237E0,2.556727409E0,-5.696318626E0,-1.053476429E1,1.224606711E1
4.779093664E0,1.962977290E0,-4.541154861E0,-1.131367588E1,1.234806176E1
4.784098091E0,1.664968014E0,-3.246664047E0,-1.148290539E1,1.204865395E1
4.789102518E0,1.867780089E0,-2.014183998E0,-1.090135193E1,1.124210894E1
4.794106945E0,2.465512991E0,-1.466282845E0,-8.956849098E0,9.404992581E0
4.799111372E0,3.429692268E0,-1.565307617E0,-6.744037151E0,7.726254855E0
4.804115800E0,4.411548615E0,-1.953254700E0,-4.635239124E0,6.690471347E0
4.809120227E0,5.425217628E0,-2.358692169E0,-2.454215050E0,6.404653509E0
4.814124654E0,6.278355122E0,-2.754190445E0,-6.288229823E-1,6.884673295E0
4.819129081E0,6.687932491E0,-3.135734558E0,8.863549232E-1,7.439549535E0
4.824133508E0,6.687166691E0,-3.403004646E0,2.113296509E0,7.795169088E0
4.829137935E0,6.609539032E0,-3.531994820E0,2.975857735E0,8.063294790E0
4.834142362E0,6.353831768E0,-4.081882477E0,3.745859623E0,8.429970759E0
4.839146789E0,5.882942200E0,-4.979633331E0,4.572463989E0,8.961762325E0
4.844151216E0,5.065843582E0,-5.965566635E0,5.179614544E0,9.385049989E0
4.849155643E0,4.073323250E0,-6.966880798E0,5.421961308E0,9.722502496E0
4.854160070E0,3.046220064E0,-7.920796394E0,5.418077946E0,1.006846765E1
4.859164497E0,1.860977650E0,-8.679030418E0,5.273120403E0,1.032446636E1
4.864168925E0,7.189261913E-1,-9.744208336E0,4.814596653E0,1.089251082E1
4.869173352E0,-3.175833225E-1,-1.063813305E1,3.755173445E0,1.128592316E1
4.874177779E0,-1.052833557E0,-1.151011753E1,2.295999527E0,1.178400942E1
4.879182206E0,-1.856588602E0,-1.229435635E1,1.286489844E0,1.250012701E1
4.884186633E0,-2.505992413E0,-1.284352779E1,7.143988609E-1,1.310521155E1
4.889191060E0,-2.917290211E0,-1.314833832E1,7.639681101E-1,1.348973795E1
4.894195487E0,-3.466568947E0,-1.262506962E1,9.194267988E-1,1.312458871E1
4.899199914E0,-4.016432285E0,-1.154168701E1,1.079390049E0,1.226814372E1
4.904204341E0,-4.361693382E0,-9.525060654E0,1.116778374E0,1.053557514E1
4.909208820E0,-4.573520660E0,-7.341165543E0,1.147409558E0,8.725041630E0
4.914213300E0,-4.708864689E0,-5.459214211E0,1.183700562E0,7.305995721E0
4.919217779E0,-4.977597237E0,-4.113635063E0,1.295386553E0,6.586083358E0
4.924222258E0,-5.143179893E0,-3.165101051E0,1.685791731E0,6.269932842E0
4.929226737E0,-5.260581970E0,-2.856547356E0,2.413460970E0,6.454330276E0
4.934231216E0,-5.399307728E0,-2.440318108E0,3.267987490E0,6.766640129E0
4.939235695E0,-5.418452740E0,-2.116429329E0,4.053248405E0,7.089973613E0
4.944240175E0,-5.191981316E0,-1.807308197E0,4.788603783E0,7.290662459E0
4.949244654E0,-4.738169193E0,-1.473975182E0,5.216070175E0,7.199322066E0
4.954249133E0,-4.353599072E0,-1.254836082E0,5.589655399E0,7.195323895E0
4.959253612E0,-3.890182734E0,-1.106562614E0,5.804235935E0,7.074401551E0
4.964258091E0,-3.425671816E0,-9.145717621E-1,5.883872509E0,6.869616045E0
4.969262570E0,-3.256182194E0,-3.870668411E-1,5.762374878E0,6.630045811E0
4.974267050E0,-3.010787725E0,2.271990776E-1,5.556909084E0,6.324215423E0
4.979271529E0,-2.616718054E0,8.467283249E-1,5.403102875E0,6.062811469E0
4.984276008E0,-2.007890940E0,1.585643768E0,5.181953430E0,5.779146437E0
4.989280487E0,-1.368739128E0,2.165332794E0,5.447750092E0,6.019974582E0
4.994284966E0,-1.236845255E0,2.514091492E0,5.576349735E0,6.240682541E0
4.999289445E0,-1.123439550E0,2.747676849E0,5.882534027E0,6.589085754E0
5.004293925E0,-8.813519478E-1,3.058041096E0,6.196753502E0,6.966214938E0
5.009298404E0,-6.804363728E-1,3.239700317E0,6.535699368E0,7.326255389E0
5.014302883E0,-5.707905293E-1,3.336200237E0,6.810904026E0,7.605553728E0
5.019307362E0,-6.013238430E-1,3.343172073E0,7.007007122E0,7.786946686E0
5.024311841E0,-7.387721539E-1,3.279896259E0,7.205499649E0,7.951272160E0
5.029316320E0,-1.044835567E0,3.199218750E0,7.406900406E0,8.135653360E0
5.034320800E0,-1.485069752E0,3.110614777E0,7.593274593E0,8.339015260E0
5.039325279E0,-2.067987919E0,2.860861778E0,7.809010506E0,8.569816172E0
5.044329758E0,-2.835333347E0,2.550460339E0,8.069769859E0,8.925533525E0
5.049334237E0,-3.666880369E0,2.193792343E0,8.399990082E0,9.424360448E0
5.054338716E0,-4.471896172E0,1.843769550E0,8.703577042E0,9.957388957E0
5.059343195E0,-5.322414398E0,1.610830784E0,8.956008911E0,1.054196217E1
5.064347675E0,-6.089355469E0,1.471501827E0,9.223664284E0,1.114995742E1
5.069352154E0,-6.859150887E0,1.378578186E0,9.438671112E0,1.174891234E1
5.074356633E0,-7.536298752E0,1.395208836E0,9.633428574E0,1.231037581E1
5.079361112E0,-8.126001358E0,1.383455276E0,9.759103775E0,1.277442574E1
5.084365591E0,-8.614036560E0,1.420709133E0,9.805494308E0,1.312889024E1
5.089370070E0,-9.087034225E0,1.742037773E0,9.661718369E0,1.337750681E1
5.094374497E0,-9.478605270E0,2.094135284E0,9.360710144E0,1.348526065E1
5.099378925E0,-9.871065140E0,2.438905716E0,8.906713486E0,1.351723837E1
5.104383352E0,-1.011273193E1,2.886294365E0,8.351691246E0,1.342940017E1
5.109387779E0,-1.006566048E1,3.254171610E0,7.729184151E0,1.310142898E1
5.114392206E0,-9.906818390E0,3.786218166E0,7.068555832E0,1.274539055E1
5.119396633E0,-9.602079391E0,4.223528862E0,6.452157974E0,1.231537524E1
5.124401060E0,-9.141090393E0,4.700026512E0,5.842369080E0,1.182298859E1
5.129405487E0,-8.513465881E0,5.201131821E0,5.239963055E0,1.126889907E1
5.134409914E0,-7.732962132E0,5.520785332E0,4.597948074E0,1.055551517E1
5.139414341E0,-6.823203564E0,5.644717693E0,3.988404989E0,9.712173756E0
5.144418768E0,-5.822100163E0,5.558992386E0,3.186420441E0,8.657512453E0
5.149423195E0,-4.748508453E0,5.445516109E0,2.020147324E0,7.502197907E0
5.154427622E0,-3.697888851E0,5.194188118E0,5.378932953E-1,6.398695286E0
5.159432050E0,-2.661299944E0,4.685242176E0,-1.566484451E0,5.611406702E0
5.164436477E0,-1.572990417E0,3.975469351E0,-4.325931549E0,6.082132782E0
5.169440904E0,-1.329960823E-1,3.149158955E0,-7.857883453E0,8.466476389E0
5.174445331E0,1.900395393E0,2.279715538E0,-1.114944649E1,1.153771046E1
5.179449758E0,3.996033669E0,8.619918823E-1,-1.298090553E1,1.360937998E1
5.184454185E0,6.155884266E0,-1.720459461E0,-1.330857849E1,1.476391389E1
5.189458612E0,8.059471130E0,-4.613613605E0,-1.266761208E1,1.570696983E1
5.194463039E0,9.954710007E0,-7.068680763E0,-1.149528313E1,1.676913931E1
5.199467466E0,1.131072140E1,-8.764556885E0,-1.042636490E1,1.770477226E1
5.204471893E0,1.174758053E1,-9.907625198E0,-9.674429893E0,1.815933036E1
5.209476320E0,1.162298489E1,-1.006457901E1,-9.577590942E0,1.811407675E1
5.214480747E0,1.120352936E1,-9.388153076E0,-9.273212433E0,1.731037137E1
5.219485175E0,1.021971893E1,-8.140134811E0,-8.413084030E0,1.553976939E1
5.224489602E0,9.060684204E0,-6.317777157E0,-7.156079292E0,1.316129847E1
5.229494029E0,7.735914230E0,-4.104339123E0,-6.027488708E0,1.063111418E1
5.234498456E0,6.002679825E0,-1.911849976E0,-5.102437496E0,8.106923202E0
5.239502883E0,3.965339661E0,-2.126450539E-1,-3.872558117E0,5.546696577E0
5.244507310E0,1.939531803E0,8.291554451E-1,-2.549513578E0,3.308972930E0
5.249511737E0,2.117114067E-1,1.413385391E0,-1.111019135E0,1.810205375E0
5.254516164E0,-1.272748947E0,1.629751205E0,4.541831017E-1,2.117135131E0
5.259520591E0,-2.501978636E0,1.491204262E0,1.324965000E0,3.199862418E0
5.264525018E0,-3.373705626E0,7.937288284E-1,1.334370136E0,3.713817276E0
5.269529445E0,-3.784110785E0,-6.772532463E-1,7.931029797E-1,3.925197922E0
5.274533872E0,-3.498125076E0,-2.467075825E0,-3.342971802E-1,4.293611158E0
5.279538300E0,-2.905512094E0,-3.930675030E0,-1.568707228E0,5.133522094E0
5.284542727E0,-2.204523087E0,-4.888374805E0,-2.420698881E0,5.883528988E0
5.289547154E0,-1.398019075E0,-5.477596760E0,-2.844245911E0,6.328369332E0
5.294551581E0,-5.503294468E-1,-6.128741741E0,-3.708130360E0,7.184327985E0
5.299556008E0,8.598899841E-2,-6.947095871E0,-5.234827995E0,8.699020594E0
5.304560435E0,3.630371094E-1,-8.118000031E0,-6.578766823E0,1.045532847E1
5.309564862E0,-8.835029602E-2,-9.344927788E0,-7.979931831E0,1.228880764E1
5.314569289E0,-1.478575230E0,-1.050963688E1,-8.675766945E0,1.370793873E1
5.319573716E0,-3.518359900E0,-1.183299637E1,-7.516823769E0,1.445341825E1
5.324578143E0,-5.048257828E0,-1.244209766E1,-4.045033455E0,1.402330193E1
5.329582570E0,-5.871849537E0,-1.131756020E1,1.725853682E0,1.286640419E1
5.334586997E0,-6.145557404E0,-8.415939331E0,6.720816612E0,1.240021317E1
5.339591425E0,-6.530758858E0,-5.031302929E0,9.459371567E0,1.254769026E1
5.344595852E0,-6.565588951E0,-2.091029167E0,1.063842583E1,1.267499370E1
5.349600279E0,-6.457287788E0,9.814786911E-2,1.090672874E1,1.267528818E1
5.354604706E0,-6.580533981E0,1.819665909E0,1.075501442E1,1.273911091E1
5.359609133E0,-6.878444672E0,3.070215702E0,1.073497486E1,1.311407301E1
5.364613560E0,-7.164270878E0,4.076345444E0,1.064214134E1,1.346100077E1
5.369617987E0,-7.518763542E0,4.987369537E0,1.041252327E1,1.377774658E1
5.374622414E0,-7.916263580E0,5.393062115E0,1.063815784E1,1.431512314E1
5.379626841E0,-7.585467339E0,5.542570591E0,1.064244652E1,1.419581176E1
5.384631268E0,-7.302574158E0,5.105367661E0,1.040594101E1,1.369948819E1
5.389635695E0,-7.077036858E0,4.578397274E0,9.858154297E0,1.297032684E1
5.394640122E0,-6.722045898E0,4.069941521E0,9.131975174E0,1.204754314E1
5.399644550E0,-6.195160866E0,3.611288548E0,8.446924210E0,1.108025053E1
5.404648977E0,-5.775475502E0,2.951686859E0,7.729246140E0,1.009008516E1
5.409653404E0,-5.406307697E0,2.123433113E0,7.005819798E0,9.100474830E0
5.414657831E0,-5.040180206E0,1.168779373E0,6.356263638E0,8.195825106E0
5.419662258E0,-4.572338104E0,7.769203186E-2,5.816322327E0,7.398778088E0
5.424666685E0,-4.184561729E0,-1.331502914E0,5.358962536E0,6.928342972E0
5.429671112E0,-3.752146721E0,-2.795169830E0,5.004147053E0,6.850771279E0
5.434675539E0,-3.212933540E0,-4.174509048E0,4.538059711E0,6.952945683E0
5.439679966E0,-2.518810749E0,-5.684813499E0,3.944671631E0,7.363555282E0
5.444684393E0,-1.521686792E0,-6.938659668E0,3.505045414E0,7.921229200E0
5.449688820E0,-5.486152172E-1,-7.903272629E0,2.857678413E0,8.421936999E0
5.454693247E0,4.081089497E-1,-8.139344215E0,2.228513241E0,8.448772008E0
5.459697675E0,1.236119032E0,-7.729474068E0,1.053449631E0,7.898260299E0
5.464702102E0,2.004940033E0,-6.607892990E0,1.846626997E-1,6.907831398E0
5.469706581E0,2.578391552E0,-5.516472816E0,-2.978584766E-1,6.096580599E0
5.474711060E0,2.938375473E0,-4.514563560E0,-7.250592709E-1,5.435167477E0
5.479715539E0,3.309447765E0,-3.220068932E0,-1.691115379E0,4.917434256E0
5.484720018E0,3.852696657E0,-1.455056190E0,-2.447977543E0,4.790934575E0
5.489724497E0,3.770713806E0,-5.899429321E-3,-3.432085752E0,5.098777307E0
5.494728977E0,3.843380451E0,8.096618652E-1,-3.943351269E0,5.565711532E0
5.499733456E0,4.058166981E0,1.253209114E0,-4.015613079E0,5.845032141E0
5.504737935E0,4.120365620E0,1.658838749E0,-3.840551615E0,5.871881772E0
5.509742414E0,3.985937834E0,2.060040474E0,-3.585078478E0,5.743192045E0
5.514746893E0,4.160953522E0,2.648425579E0,-2.946383238E0,5.745334319E0
5.519751372E0,4.471500397E0,3.127560616E0,-2.050772905E0,5.829375671E0
5.524755852E0,4.672730446E0,3.569653034E0,-1.135719299E0,5.988880608E0
5.529760331E0,5.065648079E0,3.817208767E0,-6.339055300E-2,6.343176774E0
5.534764810E0,4.580317497E0,4.110105515E0,4.297128916E-1,6.169029817E0
5.539769289E0,4.415530205E0,4.415278912E0,9.191309810E-1,6.311608085E0
5.544773768E0,4.065810680E0,4.551274776E0,1.277733207E0,6.235184097E0
5.549778247E0,3.638338089E0,4.475462437E0,1.604841948E0,5.986884478E0
5.554782727E0,3.225851536E0,4.231362343E0,1.853377342E0,5.634319212E0
5.559787206E0,2.862306118E0,3.761796474E0,2.187828064E0,5.208694718E0
5.564791685E0,2.470390320E0,3.100373268E0,2.371444225E0,4.619403690E0
5.569796164E0,1.915595174E0,2.448195934E0,2.550789595E0,4.021156023E0
5.574800643E0,1.403974533E0,1.614238262E0,2.776332855E0,3.504986987E0
5.579805122E0,8.833781481E-1,8.573226929E-1,2.724407673E0,2.989608055E0
5.584809602E0,6.075888872E-1,3.593769073E-1,2.506227970E0,2.603746273E0
5.589814081E0,2.756472826E-1,1.538152695E-1,2.064412117E0,2.088405600E0
5.594818560E0,-6.675004959E-3,8.739471436E-2,1.336427569E0,1.339298712E0
5.599823039E0,-3.301935196E-1,1.696414948E-1,2.556493282E-1,4.507355945E-1
5.604827518E0,-7.908281088E-1,3.478841782E-1,-1.028587580E0,1.343288840E0
5.609831997E0,-1.159490585E0,4.355745316E-1,-2.209209919E0,2.532736081E0
5.614836477E0,-1.681075335E0,6.288309097E-1,-3.343883038E0,3.795127977E0
5.619840956E0,-2.073336124E0,7.743396759E-1,-4.085091114E0,4.646105254E0
5.624845435E0,-2.389432907E0,9.052715302E-1,-4.627039909E0,5.285679188E0
5.629849914E0,-2.666763783E0,1.117123604E0,-4.867270470E0,5.661264527E0
5.634854393E0,-2.664319038E0,1.247106552E0,-4.665397644E0,5.515415294E0
5.639858872E0,-2.652607441E0,1.324114799E0,-4.262828827E0,5.192428704E0
5.644863352E0,-2.538789272E0,1.410598278E0,-3.779462576E0,4.766505621E0
5.649867779E0,-2.398272514E0,1.377578259E0,-3.262588501E0,4.277138838E0
5.654872206E0,-2.130253077E0,1.187045097E0,-2.601027727E0,3.565445199E0
5.659876633E0,-1.812357426E0,9.969882965E-1,-2.247596264E0,3.054556280E0
5.664881060E0,-1.417550802E0,7.787866592E-1,-1.989027739E0,2.563628343E0
5.669885487E0,-8.230951428E-1,4.081115723E-1,-1.694638610E0,1.927651599E0
5.674889914E0,-1.358807087E-1,-1.454257965E-2,-1.430926442E0,1.437437142E0
5.679894341E0,4.614452124E-1,-3.312225342E-1,-1.240091801E0,1.363989635E0
5.684898768E0,9.733859301E-1,-9.340705872E-1,-1.173834443E0,1.788254828E0
5.689903195E0,1.486034989E0,-1.497388840E0,-1.150213242E0,2.402803327E0
5.694907622E0,2.090304375E0,-2.021116257E0,-1.168868303E0,3.133773510E0
5.699912050E0,2.752557039E0,-2.495739937E0,-1.258585453E0,3.922923072E0
5.704916477E0,3.587270737E0,-2.854468346E0,-1.371915221E0,4.785253624E0
5.709920904E0,4.574485779E0,-3.083248138E0,-1.504565477E0,5.718046563E0
5.714925331E0,5.708303928E0,-3.168099403E0,-1.666815400E0,6.737941907E0
5.719929758E0,6.924706936E0,-3.219412804E0,-1.926233172E0,7.875694203E0
5.724934185E0,8.149989128E0,-3.266177177E0,-2.240613937E0,9.061489224E0
5.729938612E0,9.138037682E0,-2.983450890E0,-2.754451036E0,9.999585611E0
5.734943039E0,9.905819893E0,-2.386100769E0,-3.434567451E0,1.075244150E1
5.739947466E0,1.021128273E1,-1.474473953E0,-4.027141571E0,1.107529854E1
5.744951893E0,1.009552097E1,-7.079772949E-1,-4.302497864E0,1.099692063E1
5.749956320E0,9.634956360E0,-2.682638168E-1,-4.099218369E0,1.047415585E1
5.754960747E0,8.927086830E0,-2.651748657E-1,-3.448094368E0,9.573533922E0
5.759965175E0,8.186475754E0,-5.357866287E-1,-2.700340748E0,8.636972429E0
5.764969602E0,7.551150322E0,-8.836822510E-1,-2.129234314E0,7.895214010E0
5.769974029E0,6.942733288E0,-1.294192314E0,-1.834412336E0,7.296680606E0
5.774978456E0,6.444063187E0,-1.824237823E0,-1.818870544E0,6.939890781E0
5.779982883E0,6.228153706E0,-2.702771187E0,-2.008770466E0,7.080256313E0
5.784987310E0,6.299264431E0,-3.866924286E0,-2.335799932E0,7.751760905E0
5.789991737E0,6.483762264E0,-4.905057907E0,-2.809146881E0,8.601748216E0
5.794996164E0,6.512093544E0,-5.549455643E0,-3.437549591E0,9.220659816E0
5.800000591E0,6.339528084E0,-5.585142136E0,-4.267031193E0,9.465251407E0
5.805005018E0,5.949770927E0,-5.170167923E0,-5.251354218E0,9.471384881E0
5.810009445E0,5.355960369E0,-4.691880226E0,-6.205395699E0,9.444945066E0
5.815013872E0,4.677896976E0,-4.370044708E0,-6.825974464E0,9.358094799E0
5.820018300E0,3.964921951E0,-4.371959686E0,-7.051337242E0,9.195433349E0
5.825022727E0,3.434014320E0,-4.530158997E0,-6.992913723E0,9.011971883E0
5.830027154E0,3.229523897E0,-4.749184608E0,-6.757281780E0,8.868226210E0
5.835031581E0,3.485088348E0,-5.158313751E0,-6.574089050E0,9.053876981E0
5.840036008E0,4.075643063E0,-5.503876686E0,-6.293632507E0,9.301254490E0
5.845040435E0,4.757199764E0,-5.675952911E0,-5.861634731E0,9.444900887E0
5.850044862E0,5.358386993E0,-5.497945786E0,-5.420535088E0,9.397974232E0
5.855049289E0,5.722688675E0,-4.898798943E0,-5.079518795E0,9.085642957E0
5.860053716E0,5.760552406E0,-4.128100395E0,-4.718333244E0,8.513979416E0
5.865058143E0,5.363254547E0,-3.440180779E0,-4.304220200E0,7.689320819E0
5.870062570E0,4.603794575E0,-2.840512276E0,-4.322046757E0,6.924126128E0
5.875066997E0,3.688550949E0,-2.348818779E0,-4.442309380E0,6.233495840E0
5.880071425E0,2.927965641E0,-2.056721687E0,-4.245585442E0,5.552304264E0
5.885075852E0,2.086748123E0,-2.065342903E0,-3.716025114E0,4.735926698E0
5.890080279E0,1.360980868E0,-2.504099846E0,-2.929892063E0,4.087426142E0
5.895084706E0,7.835824490E-1,-3.267641068E0,-2.249740124E0,4.043860807E0
5.900089133E0,3.739995956E-1,-4.149836540E0,-1.238536119E0,4.346836865E0
5.905093560E0,-3.442549706E-2,-5.245723724E0,2.715872526E-1,5.252862281E0
5.910097987E0,-1.921176910E-1,-5.942094803E0,1.974603891E0,6.264539918E0
5.915102414E0,-5.580427647E-1,-6.415529251E0,3.131942272E0,7.160969885E0
5.920106841E0,-9.159908295E-1,-6.612942696E0,3.717700958E0,7.641423343E0
5.925111268E0,-1.293999910E0,-6.983815193E0,3.913664103E0,8.109554681E0
5.930115695E0,-1.586825848E0,-7.370103836E0,3.771871090E0,8.429914492E0
5.935120122E0,-1.924312592E0,-7.671731949E0,3.492328167E0,8.646086171E0
5.940124550E0,-2.226071835E0,-7.827238083E0,3.010841131E0,8.676762999E0
5.945128977E0,-2.607939720E0,-7.780089378E0,2.506155014E0,8.579740863E0
5.950133404E0,-2.970428228E0,-7.521628380E0,1.868757248E0,8.300035602E0
5.955137831E0,-3.329342604E0,-7.004913330E0,1.384854078E0,7.878524846E0
5.960142258E0,-3.662884235E0,-6.340730667E0,1.099200249E0,7.404716571E0
5.965146685E0,-3.934453011E0,-5.361741066E0,7.728735209E-1,6.695186422E0
5.970151112E0,-4.269474983E0,-4.292698860E0,5.887967348E-1,6.082956660E0
5.975155539E0,-4.600166321E0,-3.367263794E0,4.588620663E-1,5.719313773E0
5.980159966E0,-4.667024612E0,-2.742344856E0,5.738859177E-1,5.443428983E0
5.985164393E0,-4.641239166E0,-2.412282944E0,9.103424549E-1,5.309325135E0
5.990168820E0,-4.440189362E0,-2.055776596E0,1.430547595E0,5.097839288E0
5.995173247E0,-4.124976158E0,-1.868529320E0,2.001374722E0,4.950992921E0
6.000177675E0,-3.785179615E0,-1.706429482E0,2.590411186E0,4.893844747E0
6.005182102E0,-3.385518789E0,-1.530581474E0,3.150972366E0,4.871657210E0
6.010186529E0,-2.839015722E0,-1.441157341E0,3.688938856E0,4.872906180E0
6.015190956E0,-2.374640465E0,-1.303955078E0,4.014083385E0,4.842734931E0
6.020195383E0,-2.034806013E0,-1.171492577E0,4.333088398E0,4.928334955E0
6.025199810E0,-1.623048544E0,-1.034268379E0,4.512966156E0,4.906206394E0
6.030204237E0,-1.219769716E0,-7.778120041E-1,4.565727234E0,4.789435755E0
6.035208664E0,-9.005036354E-1,-3.163118362E-1,4.407039165E0,4.509207711E0
6.040213091E0,-5.356609821E-1,1.153683662E-1,4.329916000E0,4.364449005E0
6.045217518E0,-1.592288017E-1,5.171165466E-1,4.448680401E0,4.481464118E0
6.050221945E0,3.096370697E-1,8.123240471E-1,4.657451630E0,4.737889948E0
6.055226425E0,7.791695595E-1,1.139499187E0,4.888714790E0,5.079871642E0
6.060230904E0,1.128618717E0,1.474534512E0,5.122087002E0,5.448284821E0
6.065235383E0,1.389809608E0,1.831735611E0,5.432064056E0,5.898656288E0
6.070239862E0,1.364653587E0,2.182850838E0,5.648104191E0,6.207108678E0
6.075244341E0,9.711041451E-1,2.542978287E0,5.902040958E0,6.499528391E0
6.080248820E0,2.530617714E-1,2.831927776E0,6.068397522E0,6.701440418E0
6.085253300E0,-5.874173641E-1,3.036667824E0,6.151361465E0,6.885176723E0
6.090257779E0,-1.257704735E0,3.023725033E0,6.285717010E0,7.087663410E0
6.095262258E0,-1.881809235E0,2.802066326E0,6.516756058E0,7.338997970E0
6.100266737E0,-2.468694925E0,2.318492889E0,6.880005360E0,7.668398637E0
6.105271216E0,-3.103829384E0,1.893393517E0,7.309619427E0,8.163898090E0
6.110275695E0,-3.686797619E0,1.478745937E0,7.748300552E0,8.707199761E0
6.115280175E0,-4.275173187E0,1.160717964E0,8.128887177E0,9.257601131E0
6.120284654E0,-4.849941254E0,8.869519234E-1,8.398303986E0,9.738589411E0
6.125289133E0,-5.501404762E0,8.825278282E-1,8.528108597E0,1.018690070E1
6.130293612E0,-6.001452923E0,7.651247978E-1,8.789082527E0,1.067009020E1
6.135298091E0,-6.456691742E0,6.123948097E-1,8.930357933E0,1.103699182E1
6.140302570E0,-6.968450546E0,5.784530640E-1,9.012639999E0,1.140708511E1
6.145307050E0,-7.499269485E0,6.832256317E-1,8.967619896E0,1.170999772E1
6.150311529E0,-8.054475784E0,8.320350647E-1,8.985402107E0,1.209563200E1
6.155316008E0,-8.586524963E0,1.093178749E0,8.901922226E0,1.241642743E1
6.160320487E0,-9.033894539E0,1.491396427E0,8.763990402E0,1.267450360E1
6.165324966E0,-9.334913254E0,1.840568542E0,8.508935928E0,1.276441494E1
6.170329445E0,-9.504274368E0,2.222099304E0,8.108308792E0,1.268911455E1
6.175333925E0,-9.541870117E0,2.601920128E0,7.587171078E0,1.246524924E1
6.180338404E0,-9.423879623E0,2.964822531E0,7.023241997E0,1.212128739E1
6.185342883E0,-9.092383385E0,3.257482529E0,6.441829681E0,1.160947017E1
6.190347362E0,-8.565937042E0,3.618047714E0,5.825088501E0,1.097256591E1
6.195351841E0,-7.872805595E0,3.888013601E0,5.145443439E0,1.017709713E1
6.200356320E0,-6.993055344E0,4.052598000E0,4.260783195E0,9.136774432E0
6.205360800E0,-6.036108971E0,4.034777641E0,3.234768152E0,7.948444321E0
6.210365279E0,-5.054102421E0,3.910803080E0,2.049351454E0,6.711048606E0
6.215369758E0,-3.984814167E0,3.756839752E0,6.909098625E-1,5.519958814E0
6.220374237E0,-2.895477057E0,3.615611315E0,-8.162450790E-1,4.703476224E0
6.225378716E0,-1.758798122E0,3.415012836E0,-2.592291355E0,4.634183637E0
6.230383195E0,-5.049474239E-1,3.145374537E0,-4.475715637E0,5.493667567E0
6.235387622E0,7.005963326E-1,2.563177347E0,-5.732699394E0,6.318588108E0
6.240392050E0,1.973987103E0,1.679391384E0,-6.459406853E0,6.959950962E0
6.245396477E0,3.316786289E0,4.273400307E-1,-6.951416492E0,7.714005577E0
6.250400904E0,4.660632133E0,-1.064348221E0,-7.597280979E0,8.976246838E0
6.255405331E0,5.629495621E0,-3.174422264E0,-8.447353363E0,1.063606866E1
6.260409758E0,6.337498665E0,-5.133056164E0,-9.105710983E0,1.222399801E1
6.265414185E0,6.819068909E0,-6.519793510E0,-9.324037552E0,1.326442929E1
6.270418612E0,7.113188267E0,-7.240236759E0,-9.293281555E0,1.376166987E1
6.275423039E0,6.967216969E0,-7.224421501E0,-9.020757675E0,1.349475629E1
6.280427466E0,6.586713791E0,-6.531845570E0,-8.461152077E0,1.255551272E1
6.285431893E0,6.155257225E0,-5.451430321E0,-7.542883873E0,1.115797388E1
6.290436320E0,5.552693367E0,-4.027641773E0,-6.598953247E0,9.518428748E0
6.295440747E0,4.777296543E0,-2.433415890E0,-5.696931839E0,7.822985845E0
6.300445175E0,3.893408775E0,-8.788723946E-1,-4.821157455E0,6.258962197E0
6.305449602E0,2.883175373E0,4.409651756E-1,-4.264209747E0,5.166298025E0
6.310454029E0,1.915071487E0,1.341180801E0,-3.840978622E0,4.496596660E0
6.315458456E0,1.162359715E0,1.522738934E0,-3.362306595E0,3.869744126E0
6.320462883E0,5.404582024E-1,8.498578072E-1,-2.878160477E0,3.049288620E0
6.325467310E0,1.953749657E-1,-7.897114754E-1,-2.627844810E0,2.750887846E0
6.330471737E0,2.602758408E-1,-3.016791344E0,-2.760306835E0,4.097324413E0
6.335476164E0,6.075325012E-1,-5.052039146E0,-2.664194584E0,5.743703340E0
6.340480591E0,1.154023647E0,-6.528325558E0,-1.961815357E0,6.913720031E0
6.345485018E0,1.345561028E0,-7.323254108E0,-1.153075218E0,7.534598043E0
6.350489445E0,1.087425709E0,-7.459001541E0,-1.079875708E0,7.614809926E0
6.355493872E0,8.714528084E-1,-7.269842625E0,-1.659233570E0,7.507536069E0
6.360498300E0,4.509649277E-1,-7.204219818E0,-2.355540752E0,7.592939140E0
6.365502727E0,-3.186321259E-1,-7.210500717E0,-2.655605078E0,7.690584201E0
6.370507154E0,-1.460118055E0,-7.010126114E0,-2.761701584E0,7.674686216E0
6.375511581E0,-3.133670807E0,-6.476567268E0,-2.843901396E0,7.736510289E0
6.380516008E0,-5.187084198E0,-5.807738781E0,-2.249976397E0,8.105434350E0
6.385520435E0,-6.880306244E0,-4.903826714E0,4.215049744E-2,8.449136471E0
6.390524862E0,-7.802059174E0,-3.675139904E0,3.295780897E0,9.232602687E0
6.395529289E0,-8.225955963E0,-2.229916096E0,6.189775467E0,1.053338491E1
6.400533716E0,-8.344499588E0,-8.878970146E-1,8.209726334E0,1.173961843E1
6.405538143E0,-8.263493538E0,2.986831665E-1,9.206959724E0,1.237508159E1
6.410542570E0,-7.929587364E0,1.109850407E0,9.503711700E0,1.242701331E1
6.415546997E0,-7.590460777E0,1.774739742E0,9.418839455E0,1.222617408E1
6.420551425E0,-7.197141647E0,2.330776691E0,9.361759186E0,1.203635754E1
6.425555852E0,-6.811920166E0,2.748187065E0,9.362573624E0,1.190010812E1
6.430560279E0,-6.354071617E0,3.083513737E0,9.455037117E0,1.180169522E1
6.435564706E0,-5.910894394E0,3.331081867E0,9.514259338E0,1.168571391E1
6.440569133E0,-5.406065941E0,3.461478710E0,9.569345474E0,1.152300988E1
6.445573560E0,-4.844911575E0,3.321013927E0,9.452869415E0,1.112919772E1
6.450577987E0,-4.518087387E0,3.071715355E0,8.952638626E0,1.048800683E1
6.455582414E0,-4.166910648E0,2.669469357E0,8.339793205E0,9.697492547E0
6.460586841E0,-3.821122169E0,2.156247139E0,7.516003132E0,8.702912124E0
6.465591268E0,-3.424318790E0,1.421018600E0,6.704017639E0,7.660881512E0
6.470595695E0,-3.001250982E0,5.397377014E-1,5.954148293E0,6.689596859E0
6.475600122E0,-2.594910860E0,-6.312389374E-1,5.211721897E0,5.856113908E0
6.480604550E0,-2.042364120E0,-1.938558578E0,4.464889526E0,5.278683458E0
6.485608977E0,-1.304848433E0,-3.252951622E0,3.607397556E0,5.029676015E0
6.490613404E0,-3.636338711E-1,-4.359488487E0,2.605279446E0,5.091645162E0
6.495617831E0,7.320713997E-1,-5.192073822E0,1.324763536E0,5.408193556E0
6.500622258E0,1.740418911E0,-5.541326523E0,3.954512477E-1,5.821661215E0
6.505626685E0,2.443918705E0,-5.700022697E0,-5.071378946E-1,6.222554639E0
6.510631112E0,3.103438854E0,-5.415271759E0,-9.819568396E-1,6.318286174E0
6.515635539E0,3.955372334E0,-5.122400284E0,-9.124400616E-1,6.535786244E0
6.520639966E0,4.550246239E0,-5.104706764E0,-1.034787536E0,6.916180827E0
6.525644393E0,5.068764210E0,-4.548253059E0,-1.745372653E0,7.030313094E0
6.530648820E0,5.373488903E0,-2.888292313E0,-2.452138424E0,6.574921925E0
6.535653247E0,4.567756653E0,-8.210916519E-1,-3.804900408E0,6.001321476E0
6.540657675E0,4.368790627E0,6.836662292E-1,-4.446506023E0,6.270976548E0
6.545662102E0,4.016427994E0,1.303640366E0,-4.484965324E0,6.160039447E0
6.550666529E0,3.786126852E0,1.952344894E0,-4.177458763E0,5.966369821E0
6.555670956E0,3.724727869E0,2.548367023E0,-3.679789782E0,5.823111284E0
6.560675383E0,3.722593307E0,3.173610687E0,-3.064303637E0,5.772301318E0
6.565679810E0,3.737442732E0,3.565681934E0,-2.319178581E0,5.662257070E0
6.570684237E0,3.698521614E0,3.854648590E0,-1.553042293E0,5.563211145E0
6.575688664E0,3.583550453E0,4.103462219E0,-6.352023482E-1,5.484862629E0
6.580693091E0,3.327062845E0,4.250464439E0,1.541600823E-1,5.399959301E0
6.585697518E0,3.026104927E0,4.291292191E0,7.560461164E-1,5.305101830E0
6.590701945E0,2.767498732E0,4.101783752E0,1.265973449E0,5.107481567E0
6.595706372E0,2.632487297E0,3.715546131E0,1.818801999E0,4.903398121E0
6.600710800E0,2.529482841E0,3.180382729E0,2.363293648E0,4.700880195E0
6.605715227E0,2.334071398E0,2.577681065E0,2.748171329E0,4.432242617E0
6.610719654E0,2.012902975E0,1.969678879E0,3.042808294E0,4.146094016E0
6.615724081E0,1.581139326E0,1.370924950E0,3.071851254E0,3.716948602E0
6.620728508E0,1.269248247E0,9.347066879E-1,3.037304401E0,3.421971030E0
6.625732935E0,1.101473331E0,7.040386200E-1,3.019885540E0,3.290687246E0
6.630737414E0,9.819469452E-1,6.691007614E-1,2.826788425E0,3.066373825E0
6.635741893E0,6.812535524E-1,8.918199539E-1,2.370609283E0,2.622830076E0
6.640746372E0,2.865211964E-1,1.185505867E0,1.656096458E0,2.056738689E0
6.645750852E0,-2.110632658E-1,1.511959553E0,7.366596460E-1,1.695062484E0
6.650755331E0,-6.819486618E-1,1.770853519E0,-1.423943043E-1,1.902958828E0
6.655759810E0,-1.145678997E0,1.852313995E0,-1.013471127E0,2.402242957E0
6.660764289E0,-1.583527803E0,1.837943554E0,-1.770163417E0,3.003177540E0
6.665768768E0,-2.044165850E0,1.703910351E0,-2.263869762E0,3.493856151E0
6.670773247E0,-2.460503817E0,1.431302547E0,-2.619578123E0,3.868448727E0
6.675777727E0,-2.908578157E0,1.192560196E0,-2.742475986E0,4.171714426E0
6.680782206E0,-3.147872448E0,8.681955338E-1,-2.615337849E0,4.183641535E0
6.685786685E0,-3.420986652E0,7.549257278E-1,-2.359608650E0,4.223838954E0
6.690791164E0,-3.516248703E0,8.812170029E-1,-2.062545061E0,4.170688250E0
6.695795643E0,-3.638727665E0,1.218111992E0,-1.781681418E0,4.230664785E0
6.700800122E0,-3.415140629E0,1.373209476E0,-1.434995532E0,3.950709045E0
6.705804602E0,-3.128334045E0,1.418406963E0,-1.002837658E0,3.578272709E0
6.710809081E0,-2.358367920E0,1.305850029E0,-6.808480024E-1,2.780413197E0
6.715813560E0,-1.695333719E0,1.069046021E0,-5.303589106E-1,2.073233317E0
6.720818039E0,-1.168373585E0,6.841897964E-1,-5.601838827E-1,1.465270792E0
6.725822518E0,-7.252863050E-1,2.231588364E-1,-6.883891225E-1,1.024558283E0
6.730826997E0,-2.083945274E-1,-1.704397202E-1,-1.105659008E0,1.137963013E0
6.735831477E0,3.243799210E-1,-3.865756989E-1,-1.691139936E0,1.764827864E0
6.740835956E0,8.820066452E-1,-5.305728912E-1,-2.276428223E0,2.498313185E0
6.745840435E0,1.497145534E0,-7.077312469E-1,-2.913893938E0,3.351582633E0
6.750844914E0,2.068297386E0,-8.511142731E-1,-3.522228718E0,4.172330850E0
6.755849393E0,2.614086628E0,-1.037317276E0,-4.034759521E0,4.918207034E0
6.760853872E0,3.244304180E0,-1.338034630E0,-4.380177975E0,5.612646913E0
6.765858352E0,3.953246117E0,-1.781859398E0,-4.601952553E0,6.323064532E0
6.770862831E0,4.596688271E0,-2.373444557E0,-4.509305954E0,6.862697889E0
6.775867310E0,5.227104187E0,-2.954889297E0,-4.203852654E0,7.329827152E0
6.780871789E0,5.858572006E0,-3.521453857E0,-3.887115002E0,7.863406784E0
6.785876268E0,6.547672749E0,-4.010956764E0,-3.649985075E0,8.501892944E0
6.790880747E0,7.274219513E0,-4.279971123E0,-3.482733011E0,9.130271166E0
6.795885227E0,7.927393436E0,-4.209084511E0,-3.351487637E0,9.580836524E0
6.800889706E0,8.372819901E0,-3.769915581E0,-3.346884727E0,9.773331773E0
6.805894185E0,8.538637161E0,-2.996276855E0,-3.382447243E0,9.660587400E0
6.810898612E0,8.481912613E0,-2.113286018E0,-3.343228817E0,9.358739140E0
6.815903039E0,8.154984474E0,-1.254967690E0,-3.224695444E0,8.858745757E0
6.820907466E0,7.912932873E0,-6.750011444E-1,-2.760473251E0,8.407755097E0
6.825911893E0,7.628220558E0,-4.212675095E-1,-2.273511887E0,7.970951731E0
6.830916320E0,7.484229565E0,-3.215456009E-1,-1.818256855E0,7.708640719E0
6.835920747E0,7.391097069E0,-3.375587463E-1,-1.720791459E0,7.596274418E0
6.840925175E0,7.253307819E0,-4.021568298E-1,-2.004344225E0,7.535887487E0
6.845929602E0,7.046189785E0,-4.767417908E-1,-2.638380051E0,7.539039893E0
6.850934029E0,6.811960220E0,-6.517124176E-1,-3.414705753E0,7.647728192E0
6.855938456E0,6.621616364E0,-1.156007767E0,-4.101363659E0,7.874220030E0
6.860942883E0,6.560401440E0,-2.079779625E0,-4.515299797E0,8.231177473E0
6.865947310E0,6.575400352E0,-3.312413216E0,-4.708964348E0,8.739697726E0
6.870951737E0,6.571210384E0,-4.657479286E0,-4.787906647E0,9.370003697E0
6.875956164E0,6.514362812E0,-5.617530823E0,-4.919730186E0,9.909456115E0
6.880960591E0,6.289809704E0,-6.011226654E0,-5.318840027E0,1.019738257E1
6.885965018E0,5.925584793E0,-5.853359222E0,-6.074039459E0,1.030865290E1
6.890969445E0,5.382601738E0,-5.230271339E0,-7.057771683E0,1.030244053E1
6.895973872E0,4.660910130E0,-4.467391014E0,-8.109270096E0,1.036541978E1
6.900978300E0,3.875788689E0,-3.526340485E0,-8.890919685E0,1.032013895E1
6.905982727E0,3.061621428E0,-2.574662209E0,-9.166587830E0,1.000143708E1
6.910987154E0,2.716739178E0,-1.756107330E0,-8.816201210E0,9.390952480E0
6.915991581E0,2.841302633E0,-1.358135223E0,-7.850483894E0,8.458583174E0
6.920996008E0,3.478116989E0,-1.261481285E0,-6.753877163E0,7.700875895E0
6.926000435E0,4.421062946E0,-1.370944023E0,-5.636716843E0,7.293686438E0
6.931004862E0,5.493565083E0,-1.715886116E0,-4.337400436E0,7.206702785E0
6.936009289E0,6.448019981E0,-2.124958992E0,-3.003049374E0,7.423659336E0
6.941013716E0,7.285111427E0,-2.426988602E0,-1.891743779E0,7.908338429E0
6.946018143E0,7.851131916E0,-2.756983757E0,-9.316213131E-1,8.373120689E0
6.951022570E0,7.843878746E0,-3.048645020E0,-1.703203619E-1,8.417225152E0
6.956026997E0,7.498215199E0,-3.450425148E0,5.566010475E-1,8.272754656E0
6.961031425E0,6.825158596E0,-4.062297821E0,1.314396739E0,8.050633033E0
6.966035852E0,5.875048637E0,-5.017219543E0,2.207412481E0,8.035008295E0
6.971040279E0,4.751113415E0,-5.988646507E0,3.353549480E0,8.347649956E0
6.976044706E0,3.752042770E0,-6.702980995E0,4.273102760E0,8.790175560E0
6.981049133E0,2.620313406E0,-7.260251045E0,4.656819344E0,9.014613357E0
6.986053560E0,1.734179258E0,-8.090707779E0,4.867897987E0,9.600175044E0
6.991057987E0,8.441398144E-1,-9.069710732E0,4.828847885E0,1.030970401E1
6.996062414E0,1.647992134E-1,-9.781328201E0,4.376583576E0,1.071709027E1
7.001066841E0,-4.872918129E-1,-1.037974358E1,3.501245975E0,1.096518369E1
7.006071268E0,-1.170551777E0,-1.077042007E1,2.498866558E0,1.111829457E1
7.011075695E0,-1.939007282E0,-1.103608131E1,1.787513494E0,1.134680768E1
7.016080122E0,-2.607319593E0,-1.112029552E1,1.508547187E0,1.152105909E1
7.021084550E0,-3.488540173E0,-1.085149097E1,1.579406261E0,1.150735821E1
7.026088977E0,-4.197192192E0,-1.003361034E1,1.609007835E0,1.099448339E1
7.031093404E0,-5.060070038E0,-8.723743439E0,1.647710204E0,1.021875517E1
7.036097831E0,-5.704337120E0,-7.050688744E0,1.481539488E0,9.189484914E0
7.041102258E0,-6.109326363E0,-5.592732430E0,1.312302113E0,8.385980054E0
7.046106685E0,-6.483135223E0,-4.612057686E0,1.243187428E0,8.052802829E0
7.051111112E0,-6.708228588E0,-3.911576271E0,1.353938103E0,7.882506461E0
7.056115539E0,-6.782619476E0,-3.409432411E0,1.599513531E0,7.758002311E0
7.061119966E0,-6.690588474E0,-2.899646759E0,1.962995291E0,7.551508192E0
7.066124393E0,-6.431996346E0,-2.258028984E0,2.392957449E0,7.224646513E0
7.071128820E0,-5.921033382E0,-1.896134377E0,2.928048372E0,6.872221559E0
7.076133247E0,-5.435470581E0,-1.545529366E0,3.490943432E0,6.642265239E0
7.081137675E0,-4.983972073E0,-1.224710464E0,3.999913931E0,6.506858289E0
7.086142102E0,-4.455724716E0,-9.711866379E-1,4.373176575E0,6.318335191E0
7.091146529E0,-3.936017036E0,-8.176603317E-1,4.792433739E0,6.255255364E0
7.096150956E0,-3.520375252E0,-6.534700394E-1,5.056154251E0,6.195543626E0
7.101155383E0,-2.936445951E0,-2.919855118E-1,5.178741455E0,5.960480972E0
7.106159810E0,-2.428116798E0,1.947398186E-1,5.304782867E0,5.837327818E0
7.111164237E0,-1.870178699E0,6.053838730E-1,5.460093498E0,5.803161122E0
7.116168664E0,-1.396701336E0,1.006549835E0,5.554796696E0,5.815469330E0
7.121173091E0,-9.702000618E-1,1.412222862E0,5.641448498E0,5.895897109E0
7.126177518E0,-6.634981632E-1,1.736131668E0,5.819653511E0,6.109234811E0
7.131181945E0,-3.769905567E-1,2.007177353E0,6.073789120E0,6.407947961E0
7.136186372E0,-5.925798416E-2,2.239917278E0,6.364128113E0,6.747063625E0
7.141190800E0,2.114877701E-1,2.453694344E0,6.693681240E0,7.132370682E0
7.146195227E0,3.044795990E-1,2.682260036E0,6.950628281E0,7.456437502E0
7.151199654E0,2.520370483E-1,3.016837597E0,7.186109543E0,7.797756224E0
7.156204081E0,3.015089035E-2,3.242441177E0,7.351922035E0,8.035240599E0
7.161208508E0,-4.941442013E-1,3.326079845E0,7.448705196E0,8.172526827E0
7.166212935E0,-1.150179863E0,3.272894621E0,7.445833683E0,8.214328466E0
7.171217362E0,-1.661366940E0,3.106745243E0,7.677494049E0,8.447243396E0
7.176221789E0,-2.286041498E0,2.674335003E0,7.952875137E0,8.696336952E0
7.181226216E0,-2.970579147E0,2.215129852E0,8.277510643E0,9.069086127E0
7.186230643E0,-3.758813620E0,1.733644009E0,8.536212921E0,9.486892664E0
7.191235070E0,-4.483934402E0,1.153693199E0,8.909751892E0,1.004093395E1
7.196239497E0,-5.247614861E0,7.052798271E-1,9.167038918E0,1.058628754E1
7.201243977E0,-5.964259148E0,3.316125870E-1,9.402518272E0,1.113955582E1
7.206248456E0,-6.624981880E0,1.099715233E-1,9.609989166E0,1.167280474E1
7.211252935E0,-7.345308304E0,1.173496246E-1,9.711809158E0,1.217729700E1
7.216257414E0,-7.991834641E0,1.819705963E-1,9.730983734E0,1.259343395E1
7.221261893E0,-8.632149696E0,5.053515434E-1,9.714410782E0,1.300535141E1
7.226266372E0,-9.161569595E0,8.772497177E-1,9.589670181E0,1.329156495E1
7.231270852E0,-9.595376968E0,1.297945976E0,9.303550720E0,1.342802960E1
7.236275331E0,-9.896245003E0,1.862949371E0,8.889450073E0,1.343237016E1
7.241279810E0,-1.009376049E1,2.456933498E0,8.409788132E0,1.336581683E1
7.246284289E0,-1.019775867E1,3.089303255E0,7.936565399E0,1.328635190E1
7.251288768E0,-1.010311031E1,3.802917719E0,7.465259075E0,1.312498054E1
7.256293247E0,-9.810022354E0,4.492574215E0,7.000585556E0,1.286188010E1
7.261297727E0,-9.275510788E0,5.234954357E0,6.494675636E0,1.247480097E1
7.266302206E0,-8.514301300E0,5.867547989E0,5.870746613E0,1.189063126E1
7.271306685E0,-7.483332634E0,6.223523140E0,5.114193916E0,1.099488458E1
7.276311164E0,-6.364525795E0,6.323096275E0,4.233754158E0,9.920353289E0
7.281315643E0,-5.133491993E0,6.325521946E0,3.089642763E0,8.712683877E0
7.286320122E0,-4.019166470E0,6.025534153E0,1.586324930E0,7.414660324E0
7.291324602E0,-3.045809269E0,5.619165421E0,-2.139992714E-1,6.395136419E0
7.296329081E0,-2.138278008E0,4.990597725E0,-2.641313553E0,6.037784012E0
7.301333560E0,-1.063828230E0,4.286261559E0,-6.057588100E0,7.496542019E0
7.306338039E0,4.344034195E-1,3.364096165E0,-9.678983688E0,1.025614814E1
7.311342518E0,2.420704842E0,2.020307541E0,-1.217824364E1,1.257978826E1
7.316346997E0,4.762817383E0,1.391530037E-1,-1.290192413E1,1.375367003E1
7.321351477E0,7.047989368E0,-2.182938576E0,-1.220776272E1,1.426425061E1
7.326355956E0,9.039714813E0,-4.662231922E0,-1.112593842E1,1.507446039E1
7.331360435E0,1.055736160E1,-6.733536720E0,-9.802059174E0,1.590216227E1
7.336364914E0,1.154053974E1,-8.139393806E0,-8.618015289E0,1.654400123E1
7.341369393E0,1.165671444E1,-8.680494308E0,-7.842981815E0,1.651491256E1
7.346373872E0,1.128957558E1,-8.464834213E0,-7.500522614E0,1.598016816E1
7.351378352E0,1.066082096E1,-8.045042038E0,-7.067245960E0,1.511032000E1
7.356382831E0,9.802791595E0,-7.245548725E0,-6.555181503E0,1.384063235E1
7.361387310E0,8.645341873E0,-6.052682400E0,-5.856554031E0,1.206963651E1
7.366391789E0,7.323072433E0,-4.342132568E0,-5.148939610E0,9.949526833E0
7.371396268E0,5.750938416E0,-2.434233665E0,-4.509675026E0,7.702983515E0
7.376400747E0,3.789139271E0,-8.730602264E-1,-3.899798155E0,5.507107791E0
7.381405175E0,1.692675114E0,1.245961189E-1,-2.826075315E0,3.296570176E0
7.386409602E0,-2.322077751E-1,7.683100700E-1,-1.386182308E0,1.601787191E0
7.391414029E0,-1.781991720E0,1.204892635E0,2.348408699E-1,2.163887933E0
7.396418456E0,-3.089211464E0,1.374380589E0,1.451148987E0,3.679399795E0
7.401422883E0,-4.118989468E0,1.138890743E0,1.909662247E0,4.680807223E0
7.406427310E0,-4.839880466E0,4.171557426E-1,1.782003880E0,5.174359832E0
7.411431737E0,-5.069642067E0,-4.800515175E-1,1.132481813E0,5.216726484E0
7.416436164E0,-5.050374985E0,-1.333281040E0,5.147767067E-1,5.248706591E0
7.421440591E0,-4.917294502E0,-1.903821945E0,2.052934170E-1,5.276975328E0
7.426445018E0,-4.859184742E0,-1.973303318E0,-2.745947838E-1,5.251762051E0
7.431449445E0,-4.510860443E0,-2.204412460E0,-8.086650372E-1,5.085394319E0
7.436453872E0,-3.767343044E0,-2.523475170E0,-1.437376976E0,4.756769189E0
7.441458300E0,-2.960287094E0,-3.168243408E0,-2.659661055E0,5.086734011E0
7.446462727E0,-2.301338911E0,-4.260906219E0,-4.227970600E0,6.428624891E0
7.451467154E0,-1.691371679E0,-5.621610641E0,-6.647483826E0,8.868612382E0
7.456471581E0,-1.399732113E0,-7.423255920E0,-7.629104614E0,1.073625706E1
7.461476008E0,-1.548781872E0,-9.861632347E0,-5.573910236E0,1.143324071E1
7.466480435E0,-2.085273266E0,-1.208833599E1,-2.536637068E0,1.252640249E1
7.471484862E0,-2.513111115E0,-1.304200363E1,8.831410408E-1,1.331125555E1
7.476489289E0,-2.635580301E0,-1.282354259E1,3.661920547E0,1.359408659E1
7.481493716E0,-2.791559219E0,-1.215135574E1,5.388999939E0,1.358269375E1
7.486498143E0,-2.465099812E0,-1.026137638E1,6.280307770E0,1.228066887E1
7.491502570E0,-2.142074823E0,-7.308391571E0,6.915215969E0,1.028694725E1
7.496506997E0,-2.632497311E0,-4.080199242E0,7.353342056E0,8.811907134E0
7.501511425E0,-2.995649099E0,-1.623950958E0,7.719142914E0,8.437789851E0
7.506515852E0,-3.424037933E0,4.214820862E-1,8.035367966E0,8.744645291E0
7.511520279E0,-3.864328384E0,1.962579250E0,8.178318024E0,9.255789371E0
7.516524706E0,-3.990274906E0,3.316864967E0,8.298452377E0,9.787144573E0
7.521529133E0,-3.970456600E0,4.312792778E0,8.369056702E0,1.021791648E1
7.526533560E0,-4.001996994E0,5.228280067E0,8.349918365E0,1.063353324E1
7.531537987E0,-4.109426022E0,5.800211906E0,8.163691521E0,1.082477250E1
7.536542414E0,-4.034717560E0,6.167391300E0,8.078395844E0,1.093508759E1
7.541546841E0,-3.931907415E0,6.147860050E0,8.132061005E0,1.092641274E1
7.546551268E0,-3.863691568E0,5.698598862E0,8.195613861E0,1.070374832E1
7.551555695E0,-3.715198517E0,4.925042152E0,8.149923325E0,1.022154540E1
7.556560122E0,-3.333342075E0,4.018409252E0,7.900741577E0,9.469978869E0
7.561564550E0,-2.847060680E0,2.968665600E0,7.465322018E0,8.523483020E0
7.566568977E0,-2.289689779E0,2.000065327E0,7.000031948E0,7.631735574E0
7.571573404E0,-1.704281807E0,1.059399128E0,6.579153061E0,6.878383385E0
7.576577831E0,-1.028613567E0,5.070590973E-2,6.151939392E0,6.237545611E0
7.581582258E0,-3.394625187E-1,-1.040412903E0,5.686127663E0,5.790487165E0
7.586586685E0,3.197147846E-1,-2.123091698E0,5.201704502E0,5.627385328E0
7.591591112E0,9.909842014E-1,-3.030170441E0,4.742385387E0,5.714385509E0
7.596595539E0,1.529782534E0,-3.924542427E0,4.164482117E0,5.923274362E0
7.601599966E0,1.930776358E0,-4.403761864E0,2.688229799E0,5.508865160E0
7.606604393E0,3.206721783E0,-4.194864273E0,1.496913433E0,5.488232929E0
7.611608820E0,3.850556850E0,-4.073170662E0,5.630782843E-1,5.633343985E0
7.616613247E0,3.619853020E0,-3.345182419E0,-9.007666111E-1,5.010485185E0
7.621617675E0,3.277992249E0,-1.395682335E0,-2.781987190E0,4.520245025E0
7.626622102E0,2.951180935E0,1.847944260E-1,-4.334546566E0,5.247086032E0
7.631626529E0,2.454566479E0,1.052018166E0,-5.240972519E0,5.882128166E0
7.636630956E0,2.100889444E0,1.475169659E0,-5.571299076E0,6.134267305E0
7.641635383E0,1.976601124E0,1.728025913E0,-5.385455132E0,5.991339795E0
7.646639810E0,2.109819651E0,1.969165802E0,-4.904889584E0,5.690948492E0
7.651644237E0,2.360891104E0,2.060300827E0,-3.980502367E0,5.065870645E0
7.656648664E0,2.151610613E0,2.255622864E0,-3.062823772E0,4.370143269E0
7.661653091E0,2.210453510E0,2.196756363E0,-2.041808844E0,3.725698135E0
7.666657518E0,2.111302137E0,2.147097588E0,-1.140853763E0,3.220119885E0
7.671661945E0,2.040667295E0,2.163981438E0,-2.802225947E-1,2.987584873E0
7.676666372E0,1.830434561E0,2.247138977E0,4.865209162E-1,2.938847881E0
7.681670800E0,1.489473104E0,2.300587654E0,1.072238803E0,2.942945758E0
7.686675227E0,1.036631346E0,2.290717125E0,1.538680792E0,2.947800548E0
7.691679654E0,5.964405537E-1,2.298845291E0,1.929115653E0,3.059725185E0
7.696684081E0,6.463313103E-2,2.219878197E0,2.153123856E0,3.093214992E0
7.701688508E0,-4.566781521E-1,2.121161461E0,2.460061073E0,3.280210567E0
7.706692935E0,-8.416266441E-1,1.912130356E0,2.764200449E0,3.464878357E0
7.711697362E0,-1.327924013E0,1.770172596E0,2.908398628E0,3.654541802E0
7.716701789E0,-1.460050225E0,1.561531544E0,2.750486135E0,3.483575951E0
7.721706216E0,-1.324664831E0,1.367609024E0,2.239391327E0,2.939381716E0
7.726710643E0,-1.415323615E0,1.264857292E0,1.252266645E0,2.274022132E0
7.731715070E0,-1.517364979E0,1.305780411E0,1.404537559E-1,2.006785045E0
7.736719497E0,-1.632232189E0,1.361014366E0,-9.269903898E-1,2.318588624E0
7.741723925E0,-1.751849055E0,1.277422905E0,-1.858366013E0,2.855575008E0
7.746728352E0,-1.953543425E0,1.136466980E0,-2.634623051E0,3.471185349E0
7.751732779E0,-1.983640194E0,9.048004150E-1,-3.194432259E0,3.867543104E0
7.756737206E0,-1.893365026E0,6.257810593E-1,-3.625532150E0,4.137742915E0
7.761741633E0,-1.622276902E0,3.189516068E-1,-3.810376167E0,4.153610359E0
7.766746060E0,-8.139414191E-1,2.714071274E-1,-3.675077915E0,3.773905158E0
7.771750487E0,1.300235987E-1,5.113153458E-1,-3.532391548E0,3.571573822E0
7.776754914E0,8.784574270E-1,7.798023224E-1,-3.386797428E0,3.584714205E0
7.781759341E0,1.443857193E0,1.043129921E0,-3.236812830E0,3.694563698E0
7.786763768E0,1.847811460E0,1.291554451E0,-2.980382681E0,3.737004284E0
7.791768247E0,2.064427853E0,1.534496784E0,-2.655004025E0,3.696699759E0
7.796772727E0,2.168970823E0,1.719228268E0,-2.179344177E0,3.522743435E0
7.801777206E0,2.204060078E0,1.807514668E0,-1.836019993E0,3.390569202E0
7.806781685E0,2.226975441E0,1.847299576E0,-1.505590439E0,3.261707821E0
7.811786164E0,2.333310127E0,1.771687031E0,-1.260124445E0,3.189220077E0
7.816790643E0,2.422226906E0,1.542541981E0,-1.138058066E0,3.088979622E0
7.821795122E0,2.522363186E0,1.002307892E0,-1.139153838E0,2.943570726E0
7.826799602E0,2.639129162E0,1.898012161E-1,-1.263059378E0,2.931952630E0
7.831804081E0,2.797862768E0,-7.891416550E-1,-1.451772928E0,3.249373056E0
7.836808560E0,3.014316082E0,-1.814480782E0,-1.771660686E0,3.939190721E0
7.841813039E0,3.342074394E0,-2.838109016E0,-2.054638863E0,4.842093029E0
7.846817518E0,3.728897095E0,-3.730859756E0,-2.238608599E0,5.730214352E0
7.851821997E0,4.126514912E0,-4.421266556E0,-2.443593502E0,6.522796369E0
7.856826477E0,4.610364914E0,-4.790205956E0,-2.703552008E0,7.177097686E0
7.861830956E0,4.987174511E0,-4.704393387E0,-3.148053408E0,7.544101471E0
7.866835435E0,5.192536831E0,-4.197940826E0,-3.752785206E0,7.659539328E0
7.871839914E0,5.343995571E0,-3.429022789E0,-4.363511086E0,7.704330921E0
7.876844393E0,5.392387867E0,-2.646396637E0,-4.692211151E0,7.622211461E0
7.881848872E0,5.524213791E0,-2.060415268E0,-4.476143837E0,7.402574737E0
7.886853352E0,5.802871227E0,-1.718856812E0,-3.803530216E0,7.148050456E0
7.891857831E0,6.168179989E0,-1.559630394E0,-2.997673988E0,7.033131641E0
7.896862310E0,6.636175632E0,-1.463307381E0,-2.381176949E0,7.200701297E0
7.901866789E0,7.202274799E0,-1.382236481E0,-2.074551344E0,7.621489569E0
7.906871268E0,7.673470974E0,-1.340351105E0,-2.029446840E0,8.049680264E0
7.911875747E0,7.861344337E0,-1.294379234E0,-2.182160139E0,8.260628019E0
7.916880227E0,7.760622501E0,-1.301342010E0,-2.396737099E0,8.225879975E0
7.921884706E0,7.390978813E0,-1.336833954E0,-2.628196955E0,7.957456382E0
7.926889185E0,6.772818089E0,-1.395602226E0,-2.965671539E0,7.524226081E0
7.931893664E0,6.084432602E0,-1.639875412E0,-3.355105877E0,7.139064848E0
7.936898143E0,5.479501247E0,-2.203185081E0,-3.771949053E0,7.007607158E0
7.941902622E0,5.010763645E0,-3.042119026E0,-4.235350132E0,7.231903706E0
7.946907102E0,4.712015629E0,-4.079868317E0,-4.783692360E0,7.856979659E0
7.951911581E0,4.549798012E0,-5.000611305E0,-5.483953476E0,8.705200808E0
7.956916060E0,4.370631218E0,-5.680003166E0,-6.315802574E0,9.552707227E0
7.961920539E0,4.063664436E0,-5.855013847E0,-7.257895470E0,1.017209922E1
7.966924966E0,3.498871088E0,-5.626373291E0,-8.226209641E0,1.056260860E1
7.971929393E0,2.833651066E0,-5.104449272E0,-9.094301224E0,1.080700215E1
7.976933820E0,2.106458664E0,-4.562254906E0,-9.827385902E0,1.103761077E1
7.981938247E0,1.466709614E0,-4.157804489E0,-1.039599323E1,1.129226508E1
7.986942675E0,1.102055788E0,-3.757317543E0,-1.061797333E1,1.131694834E1
7.991947102E0,8.650589585E-1,-3.265514374E0,-1.046914864E1,1.100068108E1
7.996951529E0,9.718432426E-1,-2.725920677E0,-9.833806038E0,1.025079821E1
8.001955956E0,1.423326135E0,-2.287374496E0,-8.434117317E0,8.853941173E0
8.006960383E0,2.220566034E0,-2.055811882E0,-6.664099693E0,7.318982219E0
8.011964810E0,3.239437819E0,-2.079903603E0,-4.847440243E0,6.190123850E0
8.016969237E0,4.431099892E0,-2.212251663E0,-3.078668833E0,5.831544003E0
8.021973664E0,5.544441223E0,-2.243472099E0,-1.481826305E0,6.161964357E0
8.026978091E0,6.309617519E0,-2.164972305E0,-2.284253091E-1,6.674620322E0
8.031982518E0,6.897783279E0,-2.106448174E0,1.069498539E0,7.291115498E0
8.036986945E0,7.356024742E0,-2.106140137E0,2.210988522E0,7.964634111E0
8.041991372E0,7.578140736E0,-2.192386627E0,3.345040321E0,8.568784679E0
8.046995800E0,7.296931267E0,-2.660868645E0,4.353929043E0,8.904051099E0
8.052000227E0,6.568203926E0,-3.256433487E0,5.150167465E0,8.959346337E0
8.057004654E0,5.768569946E0,-3.910732269E0,5.720132351E0,9.016104492E0
8.062009081E0,5.014770508E0,-4.680279732E0,5.899296284E0,9.047355318E0
8.067013508E0,4.144413948E0,-5.646111488E0,5.768951416E0,9.073893451E0
8.072017935E0,3.219650984E0,-6.554862022E0,5.306046486E0,9.026987200E0
8.077022362E0,2.350183487E0,-7.330768585E0,4.621525764E0,8.978977161E0
8.082026789E0,1.497919559E0,-8.113417625E0,3.782405376E0,9.076227135E0
8.087031216E0,8.486721516E-1,-8.913209915E0,3.245476484E0,9.523585093E0
8.092035643E0,2.286329269E-1,-9.635334015E0,2.848077536E0,1.005004877E1
8.097040070E0,-2.496094704E-1,-9.893181801E0,2.664417267E0,1.024873018E1
8.102044497E0,-8.226428032E-1,-9.921834946E0,2.656556368E0,1.030421475E1
8.107048925E0,-1.448863983E0,-9.601587296E0,2.565607548E0,1.004350673E1
8.112053352E0,-2.095573902E0,-8.941357613E0,2.362010479E0,9.482531278E0
8.117057779E0,-2.676727533E0,-7.940422058E0,1.932031751E0,8.599297613E0
8.122062206E0,-3.262424946E0,-6.928238869E0,1.294574976E0,7.766584495E0
8.127066633E0,-3.898211718E0,-5.885457039E0,8.017150164E-1,7.104745324E0
8.132071060E0,-4.414523125E0,-5.075517654E0,7.109069824E-1,6.764191202E0
8.137075487E0,-4.661187172E0,-4.431600571E0,8.246576786E-1,6.484274035E0
8.142079914E0,-4.604490757E0,-3.997028351E0,1.403048158E0,6.256685616E0
8.147084341E0,-4.736291409E0,-3.689931870E0,2.292682648E0,6.426853603E0
8.152088768E0,-4.868819237E0,-3.442316055E0,3.185884476E0,6.760532559E0
8.157093195E0,-4.776730061E0,-3.171905518E0,3.875599623E0,6.920867512E0
8.162097622E0,-4.555350304E0,-2.877647400E0,4.465780258E0,6.998232938E0
8.167102050E0,-4.329518318E0,-2.573101997E0,4.883233547E0,7.015094628E0
8.172106477E0,-4.061791420E0,-2.085763931E0,5.065139771E0,6.819398919E0
8.177110904E0,-3.890484571E0,-1.491971970E0,5.079031467E0,6.569506162E0
8.182115331E0,-3.497940063E0,-7.534589767E-1,4.917870522E0,6.081836531E0
8.187119758E0,-3.040373325E0,-9.310722351E-3,4.890843391E0,5.758845868E0
8.192124185E0,-2.531519651E0,6.587524414E-1,4.913590431E0,5.566499569E0
8.197128612E0,-2.086523771E0,1.331563950E0,5.010958195E0,5.588948562E0
8.202133039E0,-1.744336128E0,1.855793953E0,5.378781319E0,5.951299707E0
8.207137466E0,-1.447681904E0,2.222176075E0,5.772393703E0,6.352509620E0
8.212141893E0,-1.259036064E0,2.531621933E0,6.147898674E0,6.766900290E0
8.217146320E0,-1.064521074E0,2.913680077E0,6.513384342E0,7.214354600E0
8.222150747E0,-1.029548407E0,3.287436485E0,6.860903263E0,7.677187125E0
8.227155175E0,-1.272416830E0,3.768627644E0,7.023396015E0,8.071535820E0
8.232159602E0,-1.727621317E0,4.233370304E0,6.994369030E0,8.356272954E0
8.237164029E0,-2.016929150E0,4.183521271E0,7.282893181E0,8.637730402E0
8.242168456E0,-2.345009327E0,4.015748024E0,7.523101807E0,8.844340661E0
8.247172883E0,-2.614598989E0,3.767474413E0,7.808909416E0,9.055885247E0
8.252177310E0,-2.948957920E0,3.404615164E0,8.199722290E0,9.355383630E0
8.257181737E0,-3.337596893E0,3.003616810E0,8.576858521E0,9.681103710E0
8.262186164E0,-3.703622341E0,2.578974724E0,8.940418243E0,1.001493921E1
8.267190591E0,-4.090232849E0,2.169150829E0,9.251791000E0,1.034557184E1
8.272195018E0,-4.617659092E0,1.798480988E0,9.495543480E0,1.071086623E1
8.277199445E0,-5.133308887E0,1.453454018E0,9.732346535E0,1.109873677E1
8.282203872E0,-5.652070999E0,1.159086227E0,9.984401703E0,1.153159420E1
8.287208300E0,-6.236852169E0,1.016875267E0,1.012558365E1,1.193565266E1
8.292212727E0,-6.893019199E0,1.003920078E0,1.018780327E1,1.234151144E1
8.297217154E0,-7.640450478E0,1.236055851E0,1.009284973E1,1.271888098E1
8.302221581E0,-8.340969086E0,1.560980797E0,9.987782478E0,1.310588513E1
8.307226008E0,-9.100471497E0,1.931504250E0,9.756763458E0,1.348123597E1
8.312230435E0,-9.694631577E0,2.319462776E0,9.475605965E0,1.375328678E1
8.317234862E0,-1.028174400E1,2.705754042E0,9.053359032E0,1.396419258E1
8.322239289E0,-1.072348213E1,3.085227728E0,8.495145798E0,1.402423621E1
8.327243716E0,-1.104876709E1,3.361557961E0,7.930920601E0,1.400981184E1
8.332248143E0,-1.118559647E1,3.687491655E0,7.452153206E0,1.393735091E1
8.337252570E0,-1.104745007E1,3.952676296E0,7.030621529E0,1.367842981E1
