"Time (s)","Linear Acceleration x (m/s^2)","Linear Acceleration y (m/s^2)","Linear Acceleration z (m/s^2)","Absolute acceleration (m/s^2)"
2.001797300E-2,0.000000000E0,0.000000000E0,0.000000000E0,0.000000000E0
2.501812900E-2,5.885028839E-2,5.552339554E-2,2.349948883E-2,8.425218022E-2
3.001859800E-2,3.123393059E-1,2.098655701E-1,3.343114853E-1,5.033523306E-1
3.501948300E-2,7.600626945E-1,3.677651882E-1,7.038249969E-1,1.099234352E0
4.002089000E-2,1.258419037E0,4.751019478E-1,9.775333405E-1,1.662802383E0
4.502292100E-2,1.620225668E0,5.070762634E-1,1.337347984E0,2.161193463E0
5.002562900E-2,1.904397726E0,4.895725250E-1,1.730186462E0,2.619151991E0
5.502906700E-2,2.293040991E0,4.725661278E-1,2.413634300E0,3.362586247E0
6.003323300E-2,2.654953957E0,3.828830719E-1,2.866445541E0,3.925798008E0
6.503807700E-2,2.692512989E0,-4.107809067E-2,3.016272545E0,4.043416089E0
7.004354600E-2,2.523777962E0,-6.146459579E-1,2.917449951E0,3.906246161E0
7.504958800E-2,2.286897898E0,-1.230149269E0,2.552104950E0,3.640935168E0
8.005609800E-2,2.035111666E0,-1.777179122E0,1.987592697E0,3.354186914E0
8.506297300E-2,1.605767012E0,-2.216576338E0,1.280345917E0,3.021751814E0
9.007005600E-2,9.468017817E-1,-2.588572264E0,6.975812912E-1,2.843195321E0
9.507724400E-2,8.098062277E-1,-2.974166870E0,-1.752109528E-1,3.087418594E0
1.000844310E-1,-1.330919266E-1,-2.831932783E0,-4.413309097E-1,2.869203674E0
1.050888060E-1,-1.149611592E0,-2.566119671E0,-7.696647644E-1,2.915297725E0
1.100929730E-1,-1.893314600E0,-2.201196671E0,-1.177705765E0,3.133192912E0
1.150971400E-1,-2.355161667E0,-1.728303909E0,-1.350859642E0,3.218484527E0
1.201013060E-1,-2.353460550E0,-1.448556423E0,-1.366166115E0,3.082775069E0
1.251054730E-1,-2.078451157E0,-1.380703926E0,-1.438024521E0,2.879968240E0
1.301096400E-1,-2.450106382E0,-9.426643848E-1,-1.344757080E0,2.949577772E0
1.351138060E-1,-2.743602037E0,-6.881781220E-1,-1.215217590E0,3.078586536E0
1.401179730E-1,-2.909419537E0,-4.370763302E-1,-9.198398590E-1,3.082509225E0
1.451221400E-1,-2.835186481E0,-2.210599780E-1,-5.455980301E-1,2.895656594E0
1.501263060E-1,-2.418943405E0,-1.446155310E-1,-3.285217285E-1,2.445429896E0
1.551304730E-1,-1.786989570E0,-2.209259272E-1,-3.029870987E-1,1.825908314E0
1.601346400E-1,-1.501129150E0,-2.728186250E-1,1.029262543E-1,1.529186889E0
1.651388060E-1,-1.125087142E0,-4.381896257E-1,2.861814499E-1,1.240858996E0
1.701429730E-1,-6.125798225E-1,-8.833870888E-1,-1.763830185E-1,1.089374939E0
1.751471400E-1,-1.508271694E-1,-1.394179821E0,-9.232177734E-1,1.678933371E0
1.801513060E-1,1.556224823E-1,-1.860839248E0,-1.692701340E0,2.520352929E0
1.851554730E-1,3.284192085E-1,-2.120722294E0,-2.262990952E0,3.118725745E0
1.901596400E-1,3.609761596E-1,-2.234762430E0,-2.515421867E0,3.384052907E0
1.951638060E-1,2.720707655E-1,-2.272954226E0,-2.687596321E0,3.530370717E0
2.001679730E-1,1.405021548E-1,-2.266832113E0,-2.949796677E0,3.722844224E0
2.051721400E-1,-3.080832958E-2,-2.252018452E0,-3.300060272E0,3.995364071E0
2.101763060E-1,-2.991293073E-1,-2.272870779E0,-3.699261665E0,4.352006065E0
2.151804730E-1,-6.287022829E-1,-2.391056061E0,-3.973752975E0,4.680077815E0
2.201846400E-1,-1.005403757E0,-2.320513487E0,-4.229336739E0,4.927769151E0
2.251888060E-1,-1.145185351E0,-2.195801497E0,-4.480204582E0,5.119104101E0
2.301929730E-1,-9.091839790E-1,-2.095184803E0,-4.538895607E0,5.081140443E0
2.351971400E-1,1.201171875E-1,-3.381017447E0,-1.688786507E0,3.781230881E0
2.402013060E-1,5.075201988E-1,-3.466509104E0,-2.945538521E0,4.577167169E0
2.452054730E-1,1.533438444E0,-3.306470871E0,-3.889228821E0,5.330129820E0
2.502096400E-1,1.974236250E0,-3.360699415E0,-3.636816978E0,5.330886143E0
2.552138060E-1,1.848140717E0,-3.068523645E0,-3.886599541E0,5.285557441E0
2.602179730E-1,1.602697372E0,-2.742660522E0,-4.492651939E0,5.502249273E0
2.652221400E-1,1.205149055E0,-2.337728977E0,-5.073127270E0,5.714366221E0
2.702263060E-1,9.004535675E-1,-1.964275599E0,-5.728144169E0,6.122159004E0
2.752304730E-1,1.123344898E-1,-1.792297363E0,-6.379038811E0,6.626996682E0
2.802346400E-1,-1.276462317E0,-2.166259527E0,-6.892366409E0,7.336671664E0
2.852388060E-1,-3.202585459E0,-2.910850763E0,-7.212561131E0,8.411340193E0
2.902429730E-1,-4.751284122E0,-3.411583662E0,-7.186129570E0,9.265746710E0
2.952471400E-1,-5.543394566E0,-3.219849825E0,-6.864187717E0,9.392216417E0
3.002513060E-1,-5.387638092E0,-2.596306324E0,-6.743561745E0,9.013494092E0
3.052554730E-1,-4.735406399E0,-1.747208714E0,-6.749949455E0,8.428441713E0
3.102596400E-1,-3.656970024E0,-9.884679914E-1,-6.842792034E0,7.821400229E0
3.152638060E-1,-2.639442682E0,-4.086081386E-1,-6.678047657E0,7.192352800E0
3.202679730E-1,-1.698902607E0,1.139422655E-1,-6.026536942E0,6.262459614E0
3.252721400E-1,-1.055167913E0,4.449307919E-2,-2.119189262E0,2.367767322E0
3.302763060E-1,-6.755750179E-1,-7.333727479E-1,1.866710281E1,1.869371458E1
3.352804730E-1,1.409102678E0,-5.409219265E-1,-2.742427349E0,3.130347369E0
3.402846400E-1,5.546456337E0,-6.003890634E-1,-1.189300537E0,5.704216045E0
3.452888060E-1,4.816245079E0,-1.290169954E-1,-6.495800018E-1,4.861565203E0
3.502929730E-1,2.927328825E0,1.456529796E-1,-4.454622269E-1,2.964608817E0
3.552971400E-1,1.690234184E0,5.783206820E-1,-1.745202065E0,2.497413993E0
3.603013060E-1,1.560813189E0,1.140623450E0,-2.782466412E0,3.388108469E0
3.653054730E-1,1.310133457E0,1.324743629E0,-3.512366295E0,3.975941693E0
3.703096400E-1,8.312768936E-1,1.115224957E0,-4.544998646E0,4.753079073E0
3.753138060E-1,1.025464058E0,7.769595385E-1,-5.272917747E0,5.427605755E0
3.803179730E-1,1.323084116E0,4.000386596E-1,-5.813118458E0,5.975192776E0
3.853221400E-1,1.462643743E0,1.452051401E-1,-6.276580811E0,6.446384872E0
3.903263060E-1,1.546488881E0,-1.216487586E-1,-6.748788357E0,6.924779460E0
3.953304730E-1,1.348732352E0,-3.623152375E-1,-7.337903976E0,7.469617531E0
4.003346400E-1,-4.505795479E0,1.495957375E-2,-8.410100937E0,9.541080361E0
4.053388060E-1,-1.398645496E1,2.879297972E0,-8.843205452E0,1.679623654E1
4.103429730E-1,-1.301408386E1,2.499850750E0,-8.084877014E0,1.552355851E1
4.153471400E-1,-8.169199944E0,-7.094907761E-2,-7.024453163E0,1.077421940E1
4.203513060E-1,-2.956480980E0,-1.802287340E0,-6.469078064E0,7.337437594E0
4.253554730E-1,-4.518550634E-1,-1.390988588E0,-5.565537453E0,5.754496450E0
4.303596400E-1,4.088469744E-1,3.342617750E-1,-4.292789459E0,4.325150648E0
4.353638060E-1,1.116431952E0,1.796164274E0,-3.169716358E0,3.810476111E0
4.403679730E-1,2.226634979E0,2.678302526E0,-8.120832443E-1,3.576406989E0
4.453721400E-1,3.430752516E0,3.318976402E0,2.005940437E0,5.177785648E0
4.503763060E-1,3.044136763E0,3.443796158E0,1.510269165E0,4.838120870E0
4.553804730E-1,2.272641182E0,3.165784597E0,1.160247803E0,4.066111782E0
4.603846400E-1,1.267785430E0,2.738149881E0,-7.085247040E-1,3.099476073E0
4.653888060E-1,9.855111837E-1,2.649615765E0,-1.840681076E0,3.373396333E0
4.703929730E-1,1.136531472E0,2.757008553E0,-3.121187687E0,4.316782659E0
4.753971400E-1,1.369227409E0,3.017127037E0,-3.525922775E0,4.838385131E0
4.804013060E-1,1.593527198E0,3.426167727E0,-3.756139278E0,5.327901698E0
4.854054730E-1,1.956751585E0,3.799870491E0,-3.780542850E0,5.706171813E0
4.904096400E-1,2.494214535E0,3.987528801E0,-3.861375332E0,6.085368644E0
4.954138060E-1,2.867162466E0,4.156433105E0,-3.897676945E0,6.378749277E0
5.004179730E-1,3.507534981E0,4.140310764E0,-4.092695236E0,6.796699873E0
5.054221400E-1,3.997530937E0,4.055040359E0,-4.292504311E0,7.130862442E0
5.104263060E-1,3.996917963E0,4.014956474E0,-4.344942093E0,7.139590358E0
5.154304730E-1,4.129785061E0,3.849742651E0,-4.597490788E0,7.280972783E0
5.204346400E-1,4.534536362E0,3.419992924E0,-5.233342648E0,7.723098270E0
5.254388060E-1,4.715199947E0,3.044295788E0,-5.741850376E0,8.029302157E0
5.304429730E-1,4.862357140E0,2.544345617E0,-6.091230392E0,8.198737663E0
5.354471400E-1,4.849602699E0,1.969825387E0,-6.149575233E0,8.075650683E0
5.404513060E-1,4.758010864E0,1.307559729E0,-5.974837303E0,7.749003847E0
5.454554730E-1,4.843184948E0,6.419583559E-1,-5.305358410E0,7.212168802E0
5.504596400E-1,4.930589199E0,4.487705231E-2,-4.164784908E0,6.454313064E0
5.554638060E-1,4.636255741E0,-6.851809025E-1,-2.575562477E0,5.347696910E0
5.604679730E-1,4.289942741E0,-1.582738638E0,-1.067600250E0,4.695576707E0
5.654721400E-1,4.062637806E0,-2.653107166E0,1.928882599E-1,4.856048750E0
5.704763060E-1,3.747313261E0,-3.862668276E0,1.110509872E0,5.495070069E0
5.754804730E-1,3.021050930E0,-5.266137123E0,1.878623009E0,6.355169025E0
5.804846400E-1,2.154633522E0,-6.934338093E0,2.406131744E0,7.649637924E0
5.854888060E-1,9.475679398E-1,-8.649368286E0,2.368818283E0,9.017802216E0
5.904929730E-1,-2.325468063E-1,-1.020498562E1,1.851587772E0,1.037420777E1
5.954971400E-1,-1.468523502E0,-1.159300518E1,1.118602276E0,1.173906306E1
6.005013060E-1,-2.827219725E0,-1.273212814E1,2.352457047E-1,1.304437039E1
6.055054730E-1,-4.089100838E0,-1.358876514E1,-7.738232613E-1,1.421175873E1
6.105096400E-1,-4.961238384E0,-1.387858582E1,-1.875160217E0,1.485749832E1
6.155138060E-1,-5.554485321E0,-1.354405117E1,-2.790894747E0,1.490244016E1
6.205179730E-1,-4.992469788E0,-1.316536522E1,-3.736446381E0,1.456751961E1
6.255221400E-1,-3.685503960E0,-1.267544270E1,-4.493549824E0,1.394423813E1
6.305263060E-1,-1.946787357E0,-1.223044300E1,-4.255004883E0,1.309499078E1
6.355304730E-1,2.937793732E-2,-1.182304192E1,-3.550545454E0,1.234469749E1
6.405346400E-1,2.335424423E0,-1.129118347E1,-2.412659168E0,1.177989625E1
6.455388060E-1,4.970718384E0,-1.061332226E1,-8.444983959E-1,1.175005652E1
6.505429730E-1,7.441025734E0,-9.773733139E0,1.256748199E0,1.234804193E1
6.555471400E-1,9.128203392E0,-8.548769951E0,3.647174358E0,1.302718103E1
6.605513060E-1,1.034256077E1,-6.944468498E0,6.116068363E0,1.387805816E1
6.655554730E-1,1.068198776E1,-5.508108139E0,9.221140862E0,1.514838462E1
6.705596400E-1,9.743754387E0,-3.683894396E0,1.325570393E1,1.685898912E1
6.755638060E-1,1.068246460E1,-2.360899448E0,1.202184772E1,1.625465222E1
6.805679730E-1,1.131296825E1,-1.381374121E0,1.114175320E1,1.593832204E1
6.855721400E-1,1.112665749E1,-5.420086384E-1,1.056489372E1,1.535295605E1
6.905763060E-1,1.080127716E1,1.755349636E-1,1.030950737E1,1.493266028E1
6.955804730E-1,1.079829025E1,1.638655424E0,1.030853081E1,1.501845769E1
7.005846400E-1,1.154706478E1,4.733029366E0,1.006594944E1,1.603307862E1
7.055888060E-1,1.365959930E1,5.207555294E0,9.609420776E0,1.749412053E1
7.105929730E-1,1.455851078E1,5.749131680E0,8.730451584E0,1.792271006E1
7.155971400E-1,1.404876137E1,7.338986397E0,7.660721779E0,1.760440500E1
7.206013060E-1,1.386921501E1,8.545415878E0,6.645667076E0,1.759386679E1
7.256054730E-1,1.410145760E1,8.864130020E0,5.511682510E0,1.754430253E1
7.306096400E-1,1.442267799E1,8.811788559E0,4.586061001E0,1.751265867E1
7.356138060E-1,1.428987980E1,8.710863113E0,3.944263220E0,1.719409821E1
7.406179730E-1,1.342187691E1,8.572639465E0,3.359726906E0,1.627650736E1
7.456221400E-1,1.203448391E1,8.327869415E0,2.607685089E0,1.486547118E1
7.506263060E-1,1.051268864E1,7.832121849E0,1.571869850E0,1.320339085E1
7.556304730E-1,9.247658730E0,7.103369713E0,5.327863693E-1,1.167308505E1
7.606346400E-1,8.223157883E0,6.411213875E0,-2.874672413E-1,1.043104148E1
7.656388060E-1,7.394243240E0,5.817540169E0,-9.833097458E-1,9.459677836E0
7.706429730E-1,6.635099411E0,5.473768234E0,-1.752917290E0,8.778348472E0
7.756471400E-1,5.931375504E0,5.294673443E0,-2.550639629E0,8.349882918E0
7.806513060E-1,5.507692337E0,4.882870674E0,-3.346302748E0,8.085471104E0
7.856554730E-1,2.928544044E0,5.467610359E0,-1.522318172E1,1.643826010E1
7.906596400E-1,-3.244075775E-1,6.741152763E0,-2.032027435E1,2.141172414E1
7.956638060E-1,7.190155029E0,1.651440144E0,8.344030380E-2,7.377841566E0
8.006679730E-1,3.517139435E0,2.557559490E0,-2.510881186E0,5.021544053E0
8.056721400E-1,7.713193893E-1,3.458800316E0,-5.001452446E0,6.129662290E0
8.106763060E-1,6.772441864E-1,3.951769829E0,-5.780130863E0,7.034561626E0
8.156804730E-1,5.706777573E-1,4.148013115E0,-7.217694283E0,8.344267293E0
8.206846400E-1,3.923215866E-1,3.885492563E0,-8.092256546E0,8.985298253E0
8.256888060E-1,9.927873611E-1,3.464631081E0,-7.608613014E0,8.419043133E0
8.306929730E-1,4.832391739E-1,3.572723866E0,-6.508131027E0,7.440003050E0
8.356971400E-1,-4.563694000E-1,3.867132425E0,-6.480584145E0,7.560486564E0
8.407013060E-1,-1.035843849E0,4.422407150E0,-5.113409042E0,6.839415875E0
8.457054730E-1,-1.648684025E0,4.661635399E0,-5.402678967E0,7.323792980E0
8.507096400E-1,-2.984073162E0,4.566316605E0,-5.794425011E0,7.958096580E0
8.557138060E-1,-1.210957527E0,4.474826336E0,-5.054690361E0,6.858599239E0
8.607179730E-1,-3.255330086E0,3.475975275E0,-5.610288620E0,7.359002411E0
8.657221400E-1,-2.630513191E0,2.598675489E0,-4.615438461E0,5.913965348E0
8.707263060E-1,-1.731739521E0,1.568858624E0,-4.552885532E0,5.117519499E0
8.757304730E-1,-3.561091423E0,3.903207779E-1,-5.906524658E0,6.908021133E0
8.807346400E-1,-1.906711102E0,3.010082245E-2,-5.181379318E0,5.521154311E0
8.857388060E-1,-2.008553982E0,2.933025360E-1,-3.885533571E0,4.383798194E0
8.907429730E-1,-2.747729301E0,3.585858345E-1,-3.907514095E0,4.790330523E0
8.957471400E-1,-2.722355843E0,3.126307726E-1,-3.046794415E0,4.097793984E0
9.007513060E-1,-4.894714832E0,-1.936043143E0,-5.744938850E0,7.791714749E0
9.057554730E-1,-1.660311222E0,-5.518794060E-3,-3.290122271E0,3.685317946E0
9.107596400E-1,-2.083315372E0,3.654994965E-1,-2.463782787E0,3.247155439E0
9.157638060E-1,-2.477632999E0,-2.219259739E-2,-1.861650825E0,3.099177566E0
9.207679730E-1,-2.327045918E0,-8.853720427E-1,-1.706335664E0,3.018378332E0
9.257721400E-1,-1.939006329E0,-1.638693571E0,-9.575630426E-1,2.713298572E0
9.307763060E-1,-1.962481022E0,-2.309031248E0,4.861950874E-2,3.030729437E0
9.357804730E-1,-2.342614651E0,-2.726772785E0,1.029145479E0,3.739287852E0
9.407846400E-1,-3.452910900E0,-3.075522900E0,1.890164375E0,4.995413512E0
9.457888060E-1,-4.740842819E0,-3.318567276E0,1.722638130E0,6.037877237E0
9.507929730E-1,-5.502139091E0,-4.102215290E0,1.402331352E0,7.004872453E0
9.557971400E-1,-6.069828987E0,-5.012700558E0,1.085927963E0,7.946649002E0
9.608013060E-1,-6.764467239E0,-6.181251526E0,5.250210762E-1,9.178318723E0
9.658054730E-1,-8.451513290E0,-6.916228771E0,1.681859493E-1,1.092202288E1
9.708096400E-1,-9.875318527E0,-6.021996975E0,-3.653526306E-3,1.156660611E1
9.758138060E-1,-1.021515083E1,-5.278830051E0,-1.472954750E-1,1.149943691E1
9.808179730E-1,-9.972264290E0,-4.594720840E0,-9.053537846E-1,1.101713121E1
9.858221400E-1,-9.608232498E0,-3.110113621E0,-2.151356697E0,1.032566095E1
9.908263060E-1,-9.143482208E0,-1.062310576E0,-2.422062159E0,9.518306349E0
9.958304730E-1,-8.114876747E0,-1.231659055E0,-2.112451077E0,8.475296939E0
1.000834640E0,-7.482933044E0,-3.654537916E0,-2.574315548E0,8.716480647E0
1.005838806E0,-8.639393806E0,-2.857853651E0,-3.277784824E0,9.672141758E0
1.010842973E0,-7.495017052E0,-1.425522804E0,-3.916365623E0,8.575856550E0
1.015847140E0,-6.393500328E0,-1.784348488E0,-3.448790073E0,7.480300725E0
1.020851306E0,-5.459828377E0,-1.271533489E0,-3.826190472E0,6.787212745E0
1.025855473E0,-3.989705086E0,-5.654678941E-1,-2.895848274E0,4.962200907E0
1.030859640E0,-3.551263332E0,-1.593366385E0,-2.734565496E0,4.756904050E0
1.035863806E0,-3.013171196E0,-4.062026024E0,-4.968371391E0,7.089708764E0
1.040867973E0,-1.836513996E0,-8.087134361E0,-5.015268803E0,9.691617357E0
1.045872140E0,-1.687374115E-1,-9.021545410E0,-4.666154861E0,1.015823583E1
1.050876306E0,1.787158012E0,-4.635455132E0,-4.237387657E0,6.529688522E0
1.055880473E0,2.770164490E0,-2.042839527E0,-3.624926090E0,4.998709213E0
1.060884640E0,4.121490479E0,-1.857841730E0,-3.465286970E0,5.696180601E0
1.065888806E0,6.002323151E0,-2.912421703E0,-3.544424534E0,7.554669328E0
1.070892973E0,6.833139420E0,-4.159227371E0,-3.033593893E0,8.555329249E0
1.075897140E0,6.929638863E0,-5.561531067E0,-3.060267448E0,9.397646484E0
1.080901306E0,6.836775780E0,-6.634186745E0,-2.605224848E0,9.876291477E0
1.085905473E0,5.940176010E0,-7.705030441E0,-2.012652636E0,9.934986450E0
1.090909640E0,5.006685257E0,-9.699805260E0,-3.159284353E0,1.136372285E1
1.095913806E0,3.316823006E0,-8.682576180E0,-5.052006721E0,1.057880976E1
1.100917973E0,1.819135666E0,-6.907831669E0,-3.471737862E0,7.942314317E0
1.105922140E0,1.997493744E0,-4.714573860E0,-2.285435915E0,5.607174445E0
1.110926306E0,2.170797348E0,-4.338469505E0,-2.274967909E0,5.358186051E0
1.115930473E0,1.660966873E0,-4.303480148E0,-2.013449192E0,5.033163020E0
1.120934640E0,1.791765213E0,-4.248267174E0,-1.583285213E0,4.874934730E0
1.125938806E0,1.487652779E0,-4.198897839E0,-1.751752138E0,4.786699218E0
1.130942973E0,1.608270645E0,-3.286148548E0,-1.990765333E0,4.165147460E0
1.135947140E0,1.560919762E0,-2.725058079E0,-2.067930698E0,3.760152844E0
1.140951306E0,1.275594711E0,-2.137978077E0,-2.296638012E0,3.387128324E0
1.145955473E0,7.254056931E-1,-1.315202475E0,-2.506886244E0,2.922404765E0
1.150959640E0,4.268913269E-1,-3.043197393E-1,-3.072190523E0,3.116600924E0
1.155963806E0,4.370126724E-1,1.056318045E0,-3.612103224E0,3.788677551E0
1.160967973E0,1.302696228E0,1.872905016E0,-4.312482357E0,4.878759549E0
1.165972140E0,7.505645752E-1,2.280314207E0,-4.423107147E0,5.032599418E0
1.170976306E0,-9.183692932E-2,2.821391582E0,-4.659480095E0,5.447883923E0
1.175980473E0,1.203861237E-1,2.688440800E0,-5.147830963E0,5.808818329E0
1.180984640E0,-5.311975479E-1,2.430425167E0,-5.328398705E0,5.880558654E0
1.185988806E0,-2.579441071E-1,1.792167306E0,-5.365940571E0,5.663189651E0
1.190992973E0,-9.120674133E-1,1.431867838E0,-5.372716904E0,5.634554055E0
1.195997140E0,-3.794116974E-1,1.320704460E0,-5.401162148E0,5.573218644E0
1.201001306E0,-9.517860413E-2,1.233689308E0,-5.118491173E0,5.265928234E0
1.206005473E0,1.041474342E0,9.137356281E-1,-4.501485348E0,4.709878124E0
1.211009640E0,2.372396469E0,6.810402870E-1,-3.456079960E0,4.246948265E0
1.216013858E0,4.213320732E0,8.358603716E-1,-1.917155504E0,4.703851547E0
1.221018077E0,5.741658211E0,8.856209517E-1,-2.658066750E-1,5.815635534E0
1.226022296E0,7.729689598E0,7.509163618E-1,1.455259562E0,7.901250348E0
1.231026515E0,9.100586891E0,6.046834588E-1,3.835952759E0,9.894486213E0
1.236030733E0,9.809506416E0,-1.614523292E0,6.610473633E0,1.193865416E1
1.241034952E0,9.810144424E0,-1.819692492E0,9.685793877E0,1.390556786E1
1.246039171E0,9.678078651E0,-8.307337165E-1,1.274447060E1,1.602425835E1
1.251043390E0,9.627854347E0,4.822244048E-1,1.613664818E1,1.879679585E1
1.256047608E0,8.869408607E0,5.181356072E-1,1.824398804E1,2.029231315E1
1.261051827E0,7.856569290E0,2.019404322E-1,1.903560638E1,2.059419266E1
1.266056046E0,7.678111076E0,1.239731550E0,1.819516373E1,1.978773123E1
1.271060265E0,6.964909554E0,8.552525043E-1,1.657308960E1,1.799746429E1
1.276064483E0,5.699975014E0,-8.677208424E-1,1.469656181E1,1.578707014E1
1.281068702E0,4.489465714E0,-1.874804497E0,1.281399155E1,1.370651574E1
1.286072921E0,2.964431763E0,-1.953198910E0,1.096300125E1,1.152346467E1
1.291077140E0,1.412194252E0,-8.673399091E-1,9.368731499E0,9.514184201E0
1.296081358E0,-5.005121231E-1,-4.658427835E-1,7.209416389E0,7.241768193E0
1.301085577E0,-2.538912773E0,-6.208175421E-2,5.232477188E0,5.816248769E0
1.306089796E0,-4.267241001E0,8.187294006E-3,3.485504627E0,5.509823527E0
1.311094015E0,-4.751008987E0,7.761827707E-1,1.656066656E0,5.090884291E0
1.316098233E0,-5.015797138E0,2.346368551E0,-3.079030514E-1,5.546031969E0
1.321102452E0,-6.011805534E0,1.773979068E0,-2.340292215E0,6.690723068E0
1.326106671E0,-6.486943245E0,8.202317953E-1,-3.723805666E0,7.524622349E0
1.331110890E0,-7.066917419E0,-1.269135714E0,-3.452854395E0,7.967071654E0
1.336115108E0,-9.423006058E0,-4.118221283E0,-1.002561092E0,1.033237235E1
1.341119327E0,-9.567834854E0,-7.525667667E0,-3.180368662E0,1.258148968E1
1.346123546E0,-9.337443352E0,-1.035691261E1,-4.435467720E0,1.463307422E1
1.351127765E0,-1.011680126E1,-1.095847702E1,-4.924891472E0,1.570644589E1
1.356131983E0,-1.101521492E1,-1.020369339E1,-5.672567368E0,1.605080494E1
1.361136202E0,-1.151363373E1,-8.899831772E0,-6.073689461E0,1.576897178E1
1.366140369E0,-1.130829239E1,-7.604010582E0,-6.147095203E0,1.494942250E1
1.371144535E0,-1.096790123E1,-6.499672890E0,-6.366961479E0,1.425057204E1
1.376148702E0,-9.273283005E0,-6.018478870E0,-6.077113152E0,1.261535453E1
1.381152869E0,-8.294734955E0,-5.452650070E0,-5.505031109E0,1.135074395E1
1.386157035E0,-7.953620911E0,-4.827514648E0,-5.150311947E0,1.063441096E1
1.391161202E0,-7.557199955E0,-4.662204742E0,-4.961787224E0,1.017186102E1
1.396165369E0,-6.768965721E0,-4.730587959E0,-4.768401146E0,9.535984945E0
1.401169535E0,-6.213498116E0,-4.955944061E0,-4.512713909E0,9.139667784E0
1.406173702E0,-5.875667572E0,-4.978015423E0,-4.367661476E0,8.853280394E0
1.411177869E0,-5.569029808E0,-5.033502579E0,-4.256630421E0,8.629550611E0
1.416182035E0,-5.288792610E0,-5.220911980E0,-3.874752522E0,8.381107103E0
1.421186202E0,-5.139485359E0,-5.457414627E0,-3.449757576E0,8.252182227E0
1.426190369E0,-4.914960861E0,-5.637922287E0,-2.808484077E0,7.989404909E0
1.431194535E0,-4.581951618E0,-5.772115707E0,-2.278685093E0,7.713883984E0
1.436198702E0,-4.054850578E0,-5.970411301E0,-1.752888203E0,7.426994100E0
1.441202869E0,-3.663589954E0,-6.004498482E0,-1.276383877E0,7.148779558E0
1.446207035E0,-3.808999538E0,-5.931553364E0,-7.162448168E-1,7.085535225E0
1.451211202E0,-3.711793423E0,-5.899255753E0,-2.601357698E-1,6.974689919E0
1.456215369E0,-3.425596237E0,-5.874194622E0,2.157568932E-1,6.803486097E0
1.461219535E0,-2.201756477E0,-6.034981728E0,9.093598127E-1,6.488117701E0
1.466223702E0,-6.201200485E-1,-6.160584927E0,2.145816565E0,6.553005741E0
1.471227869E0,1.366277695E0,-5.964035988E0,3.402112484E0,7.000772054E0
1.476232035E0,3.574701309E0,-5.446925163E0,4.431291580E0,7.879329175E0
1.481236202E0,4.648679733E0,-4.136548519E0,3.217004061E0,7.005024771E0
1.486240369E0,3.860605240E0,-3.280379057E0,3.286964178E0,6.038981130E0
1.491244535E0,3.321196556E0,-2.476261616E0,3.663993597E0,5.530557588E0
1.496248702E0,3.492356300E0,-1.555284858E0,3.619503975E0,5.264624634E0
1.501252869E0,3.803944588E0,-5.279737115E-1,3.790008545E0,5.395638557E0
1.506257035E0,3.811736107E0,1.611187905E-1,3.803577900E0,5.387253127E0
1.511261202E0,3.674439430E0,4.037131369E-1,3.579792976E0,5.145814530E0
1.516265369E0,3.449962616E0,6.117008328E-1,3.487488031E0,4.943580962E0
1.521269535E0,3.381760597E0,9.705150723E-1,3.695738792E0,5.102615943E0
1.526273702E0,3.253663063E0,1.330440044E0,4.046228886E0,5.359884536E0
1.531277869E0,2.444451332E0,1.339227915E0,3.211235523E0,4.252165014E0
1.536282035E0,1.680343628E0,1.078943253E0,2.020823240E0,2.841020911E0
1.541286202E0,2.644804955E0,1.304658890E0,9.715867043E-2,2.950689390E0
1.546290369E0,1.375021935E0,1.104763031E0,-8.149800301E-1,1.943033485E0
1.551294535E0,8.802061081E-1,1.553288698E0,-2.485563755E0,3.060309748E0
1.556298702E0,1.231932640E0,2.701851130E0,-4.824118614E0,5.664784017E0
1.561302869E0,1.341799736E0,3.606667519E0,-5.764925957E0,6.931294858E0
1.566307035E0,1.035155296E0,3.794929981E0,-6.071459293E0,7.234338809E0
1.571311202E0,6.243362427E-1,3.436599255E0,-5.776997089E0,6.750829990E0
1.576315369E0,4.500617981E-1,3.221562386E0,-5.322709084E0,6.237968565E0
1.581319535E0,3.368358612E-1,3.101883173E0,-4.810853958E0,5.734060814E0
1.586323702E0,3.416872025E-1,3.008903265E0,-3.811547756E0,4.868074085E0
1.591327869E0,7.790813446E-1,2.788981199E0,-3.337125301E0,4.418346880E0
1.596332035E0,1.361598969E0,2.617486954E0,-3.095678806E0,4.276495876E0
1.601336202E0,2.156481743E0,2.326966286E0,-3.032177210E0,4.388540103E0
1.606340369E0,2.816301346E0,2.063365221E0,-3.014699936E0,4.612748097E0
1.611344535E0,3.141395569E0,1.897149563E0,-2.606120110E0,4.501044835E0
1.616348702E0,3.157080650E0,1.646358609E0,-2.368505955E0,4.276385782E0
1.621352869E0,3.165782928E0,1.322169185E0,-2.109322548E0,4.027350806E0
1.626357035E0,3.048276901E0,1.342273235E0,-1.767220855E0,3.770511776E0
1.631361202E0,2.999822617E0,1.712175727E0,-1.209715843E0,3.659766915E0
1.636365369E0,3.129058838E0,2.111622095E0,-9.390887022E-1,3.889967182E0
1.641369535E0,3.678353310E0,2.292315483E0,-9.614466429E-1,4.439523960E0
1.646373702E0,4.679339409E0,2.287052393E0,-8.441438675E-1,5.276305982E0
1.651377869E0,5.533747673E0,2.151799202E0,-7.303541899E-1,5.982141787E0
1.656382035E0,5.845995903E0,1.785941482E0,-7.022697926E-1,6.152921090E0
1.661386202E0,5.751386642E0,1.247851253E0,-8.358542919E-1,5.944260548E0
1.666390369E0,5.685516357E0,7.201752067E-1,-1.044218779E0,5.825301832E0
1.671394535E0,5.891710281E0,1.883288920E-1,-1.551278830E0,6.095423186E0
1.676398702E0,5.729162216E0,-2.391149998E-1,-2.020932674E0,6.079855636E0
1.681402869E0,5.327859879E0,-4.386019111E-1,-2.080884933E0,5.736596955E0
1.686407035E0,5.218478203E0,-7.590231299E-1,-2.224206448E0,5.723261761E0
1.691411202E0,5.429075241E0,-1.018618345E0,-2.241995573E0,5.961458333E0
1.696415369E0,5.577047348E0,-1.293790579E0,-2.479775906E0,6.239121711E0
1.701419535E0,5.457319260E0,-1.555558443E0,-2.860576630E0,6.354918900E0
1.706423702E0,5.390676498E0,-1.446202517E0,-2.740257978E0,6.217709274E0
1.711427869E0,5.214643478E0,-1.287149668E0,-2.712612867E0,6.017269268E0
1.716432035E0,5.292251587E0,-1.155693054E0,-2.399794340E0,5.924741865E0
1.721436202E0,4.758118629E0,-1.105684400E0,-2.454607964E0,5.466930687E0
1.726440369E0,4.186771393E0,-8.539180160E-1,-2.645220041E0,5.025477066E0
1.731444535E0,3.860095978E0,-7.390621305E-1,-2.871022701E0,4.867168082E0
1.736448702E0,3.877849579E0,-7.506239414E-1,-3.342859507E0,5.174539916E0
1.741452869E0,3.627743721E0,-2.950927615E-1,-3.275525808E0,4.896598162E0
1.746457035E0,3.301896095E0,1.669394970E-2,-2.356894970E0,4.056815304E0
1.751461202E0,2.953737259E0,2.930742502E-2,-2.660574913E0,3.975434767E0
1.756465369E0,2.831122398E0,-2.400535941E-1,-2.350629330E0,3.687592441E0
1.761469535E0,2.719031334E0,-4.027225971E-1,-2.090538502E0,3.453356065E0
1.766473702E0,2.192047119E0,-7.891153097E-1,-1.614945173E0,2.834752451E0
1.771477869E0,2.210467339E0,-1.004042745E0,-1.622728586E0,2.920191047E0
1.776482035E0,2.533987045E0,-9.536204338E-1,-1.458299875E0,3.075243210E0
1.781486202E0,2.713278770E0,-8.962496519E-1,-1.181589007E0,3.092134814E0
1.786490369E0,2.807139397E0,-7.889127135E-1,-4.714803696E-1,2.953761771E0
1.791494535E0,2.926027298E0,-7.432145476E-1,-5.933761597E-2,3.019523897E0
1.796498702E0,3.093442917E0,-8.670598269E-1,3.615140915E-1,3.232935858E0
1.801502869E0,2.855097771E0,-9.713132381E-1,6.789830923E-1,3.091286258E0
1.806507035E0,2.503293037E0,-1.099956512E0,1.222945929E0,2.995325876E0
1.811511202E0,2.233916283E0,-1.276491642E0,1.325965047E0,2.894476840E0
1.816515369E0,1.612217903E0,-1.289996862E0,1.734485030E0,2.696623220E0
1.821519535E0,1.126336098E0,-1.340407729E0,1.697887421E0,2.438882445E0
1.826523702E0,6.514005661E-1,-1.326473236E0,1.201530099E0,1.904607183E0
1.831527869E0,6.262779236E-2,-1.241919398E0,5.959206820E-1,1.378915332E0
1.836532035E0,-4.728527069E-1,-1.362087011E0,3.572204113E-1,1.485421533E0
1.841536202E0,-8.405990601E-1,-1.130597353E0,2.704346180E-1,1.434570332E0
1.846540369E0,-1.060099602E0,-7.775272131E-1,5.877041817E-1,1.440054144E0
1.851544535E0,-1.303558350E0,-5.951328874E-1,1.211397529E0,1.876414532E0
1.856548702E0,-1.790343761E0,-4.924767613E-1,1.871461987E0,2.636329667E0
1.861552869E0,-2.089801311E0,-3.939133286E-1,2.570566654E0,3.336202955E0
1.866557035E0,-2.646313667E0,-4.812802672E-1,3.005645990E0,4.033424667E0
1.871561202E0,-2.804850578E0,-5.869408846E-1,3.286389351E0,4.360279961E0
1.876565369E0,-2.757574081E0,-7.970485687E-1,3.470945358E0,4.504105118E0
1.881569535E0,-2.729297638E0,-1.230621338E0,3.500681162E0,4.606328589E0
1.886573702E0,-2.762818336E0,-1.542954803E0,3.546877623E0,4.753337307E0
1.891577869E0,-3.001219749E0,-1.810328722E0,3.418411016E0,4.895931366E0
1.896582035E0,-3.148040295E0,-2.108881950E0,3.403939486E0,5.093559148E0
1.901586202E0,-3.356386662E0,-2.343379498E0,3.512847900E0,5.394150467E0
1.906590369E0,-3.568789482E0,-2.438131332E0,3.754035950E0,5.724816912E0
1.911594535E0,-3.708730698E0,-2.556359768E0,4.049566269E0,6.057115288E0
1.916598702E0,-3.757348061E0,-2.779879332E0,4.227326870E0,6.302038243E0
1.921602921E0,-3.662356377E0,-2.942189217E0,4.554573059E0,6.543200086E0
1.926607140E0,-3.428930759E0,-3.054387331E0,4.810539246E0,6.650423742E0
1.931611358E0,-3.291537762E0,-3.046103001E0,4.966840267E0,6.691970305E0
1.936615577E0,-3.235621929E0,-2.936724186E0,4.957163334E0,6.608106123E0
1.941619796E0,-3.275269032E0,-2.773380280E0,4.839655399E0,6.468484350E0
1.946624015E0,-3.376760006E0,-2.564566612E0,4.533890724E0,6.207710942E0
1.951628233E0,-3.449220657E0,-2.314272881E0,4.323015213E0,5.995118234E0
1.956632452E0,-3.578693390E0,-2.022052526E0,4.059086800E0,5.776844160E0
1.961636671E0,-3.741152763E0,-1.730376005E0,3.747409821E0,5.570772431E0
1.966640890E0,-3.884109497E0,-1.448425055E0,3.456188202E0,5.397173206E0
1.971645108E0,-3.959731579E0,-1.170679808E0,3.070108414E0,5.145437888E0
1.976649327E0,-3.805691719E0,-1.011876583E0,2.516873837E0,4.673525178E0
1.981653546E0,-3.522962570E0,-9.336017370E-1,2.002902508E0,4.158665162E0
1.986657765E0,-3.446233749E0,-8.874632120E-1,1.581021070E0,3.894065438E0
1.991661983E0,-3.383970261E0,-8.012103438E-1,1.284892082E0,3.707309051E0
1.996666202E0,-3.503394127E0,-6.744530201E-1,9.430797100E-1,3.690265116E0
2.001670421E0,-3.407865524E0,-4.496358037E-1,5.480170250E-1,3.480810602E0
2.006674640E0,-3.384843826E0,-1.837114692E-1,7.378435135E-2,3.390628520E0
2.011678858E0,-3.085898876E0,2.055716217E-1,-4.233080149E-1,3.121573520E0
2.016683077E0,-2.994249821E0,5.479311943E-1,-9.125225544E-1,3.177807105E0
2.021687296E0,-2.756120682E0,1.021243095E0,-1.749321342E0,3.420418663E0
2.026691515E0,-2.797049522E0,1.485558748E0,-2.186100006E0,3.848298853E0
2.031695733E0,-3.067950726E0,1.648506165E0,-2.776273489E0,4.453940807E0
2.036699952E0,-3.414967537E0,1.764173031E0,-3.185973167E0,4.992467805E0
2.041704171E0,-3.684340477E0,1.914774656E0,-3.681074619E0,5.548967209E0
2.046708390E0,-3.655936241E0,2.129307508E0,-3.752633095E0,5.655269703E0
2.051712608E0,-3.396781921E0,2.354181051E0,-3.687706709E0,5.538905724E0
2.056716827E0,-3.136441708E0,2.612661123E0,-3.316839218E0,5.259723104E0
2.061721046E0,-3.070549488E0,2.693885803E0,-2.734361410E0,4.915488501E0
2.066725265E0,-2.945586681E0,2.587403774E0,-2.179789066E0,4.485824290E0
2.071729483E0,-3.239527225E0,2.235109806E0,-1.681686878E0,4.279991033E0
2.076733702E0,-3.531016350E0,1.828386545E0,-1.460932970E0,4.236201006E0
2.081737869E0,-3.700771332E0,1.695710421E0,-8.804843426E-1,4.164900354E0
2.086742035E0,-3.778180599E0,1.457173586E0,-8.875032663E-1,4.145559739E0
2.091746202E0,-4.246133804E0,1.151310682E0,-7.278742194E-1,4.459256603E0
2.096750369E0,-4.430061340E0,6.125022769E-1,-5.387696624E-1,4.504539407E0
2.101754535E0,-4.459555626E0,3.053339720E-1,-1.963781416E-1,4.474307722E0
2.106758702E0,-4.163073540E0,1.479796171E-1,7.802532613E-2,4.166433393E0
2.111762869E0,-4.172209740E0,5.146265030E-3,-7.314854860E-2,4.172854096E0
2.116767035E0,-3.827138424E0,-1.380687952E-1,-2.171678096E-1,3.835780672E0
2.121771202E0,-3.081329346E0,-3.264129162E-1,-1.008477807E-1,3.100210671E0
2.126775369E0,-2.686120510E0,-5.134490728E-1,-3.364155293E-1,2.755367263E0
2.131779535E0,-2.368594170E0,-6.663739681E-1,-4.724380076E-1,2.505492023E0
2.136783702E0,-2.033264160E0,-8.862867355E-1,-4.271148443E-1,2.258781621E0
2.141787869E0,-1.384237766E0,-1.297877550E0,-3.440319896E-1,1.928460095E0
2.146792035E0,-6.281461716E-1,-1.476896286E0,3.357806802E-2,1.605278088E0
2.151796202E0,3.382968903E-2,-1.706551075E0,1.804746389E-1,1.716400919E0
2.156800369E0,5.825119019E-1,-2.278705359E0,-1.184636652E-1,2.354963241E0
2.161804535E0,9.225664139E-1,-2.810020685E0,-3.518668413E-1,2.978448474E0
2.166808702E0,1.164447784E0,-3.347658396E0,-6.727475524E-1,3.607678568E0
2.171812869E0,1.189041138E0,-3.771664143E0,-9.897566438E-1,4.076626969E0
2.176817035E0,1.083230019E0,-3.980697632E0,-1.425398827E0,4.364756892E0
2.181821202E0,1.129401207E0,-4.008432388E0,-1.747534037E0,4.516298541E0
2.186825369E0,1.078955650E0,-3.472839355E0,-1.625548720E0,3.983361285E0
2.191829535E0,1.175786018E0,-2.781438112E0,-1.538037300E0,3.388868465E0
2.196833702E0,1.281424522E0,-2.277611017E0,-1.712875366E0,3.124660425E0
2.201837869E0,1.664310455E0,-1.662457228E0,-2.285027027E0,3.279488045E0
2.206842035E0,2.334228516E0,-1.020581007E0,-3.174051523E0,4.069989119E0
2.211846202E0,2.794617653E0,-5.607402325E-1,-4.185061932E0,5.063502820E0
2.216850369E0,3.376801491E0,-4.095785618E-1,-4.990026474E0,6.039114763E0
2.221854535E0,4.186073303E0,-2.312073708E-1,-5.677888393E0,7.057980105E0
2.226858702E0,4.533942223E0,-3.841495514E-1,-6.501340389E0,7.935466578E0
2.231862869E0,5.133077621E0,-2.605741024E-1,-7.513024807E0,9.102852656E0
2.236867035E0,5.938611984E0,3.054219484E-1,-7.985178947E0,9.956077425E0
2.241871202E0,6.026519775E0,-1.812648773E-1,-8.367734909E0,1.031362134E1
2.246875369E0,5.817281723E0,-6.810688972E-1,-8.461630821E0,1.029095805E1
2.251879535E0,5.205356598E0,-1.056001425E0,-8.054156303E0,9.647813746E0
2.256883702E0,4.625901222E0,-1.182932377E0,-6.605449200E0,8.150475462E0
2.261887869E0,3.497995377E0,-1.769617796E0,-3.389984846E0,5.182616719E0
2.266892035E0,5.109110832E0,-1.328655005E0,-5.662623405E0,7.741682081E0
2.271896202E0,4.734050751E0,-1.372265577E0,-6.917830467E0,8.494158446E0
2.276900369E0,3.955237389E0,-1.879396677E0,-7.099650383E0,8.341526852E0
2.281904535E0,3.258159637E0,-2.012161493E0,-6.426836014E0,7.481217765E0
2.286908702E0,2.749068260E0,-1.847382545E0,-5.383546352E0,6.320820350E0
2.291912869E0,2.433239937E0,-1.886800289E0,-4.722506523E0,5.637618272E0
2.296917035E0,2.392210007E0,-1.961389065E0,-4.379523277E0,5.361897045E0
2.301921202E0,2.505828857E0,-1.769833565E0,-4.159081459E0,5.168118390E0
2.306925369E0,2.667873383E0,-1.475169897E0,-3.868387699E0,4.925251060E0
2.311929535E0,2.710046768E0,-9.391307831E-1,-3.740676403E0,4.713701313E0
2.316933702E0,2.617332458E0,-7.793879509E-1,-3.477307796E0,4.421486660E0
2.321937869E0,2.661479950E0,-5.366427898E-1,-2.594048977E0,3.755070053E0
2.326942035E0,2.635795593E0,-3.842165470E-1,-1.686764717E0,3.152810806E0
2.331946202E0,2.444572449E0,-4.230399132E-1,-7.173995972E-1,2.582549014E0
2.336950369E0,1.954581261E0,-7.625377178E-1,1.665556431E-1,2.104659701E0
2.341954535E0,1.467901230E0,-1.191511869E0,8.852484226E-1,2.087606123E0
2.346958702E0,1.099618912E0,-1.642077684E0,1.439764619E0,2.445097755E0
2.351962869E0,7.974348068E-1,-1.998380423E0,1.783452511E0,2.794660882E0
2.356967035E0,6.094245911E-1,-2.278408051E0,2.041383982E0,3.119261153E0
2.361971202E0,5.069675446E-1,-2.476418734E0,2.242513895E0,3.379132197E0
2.366975369E0,3.854484558E-1,-2.553160906E0,2.407529831E0,3.530354233E0
2.371979535E0,2.552585602E-1,-2.664980888E0,2.724497080E0,3.819707372E0
2.376983702E0,2.462902069E-1,-2.714970350E0,3.013729811E0,4.063777829E0
2.381987869E0,1.724472046E-1,-2.783666611E0,3.161992073E0,4.216246163E0
2.386992035E0,-4.478454590E-3,-2.698881149E0,3.494168758E0,4.415109832E0
2.391996202E0,3.511047363E-2,-2.719895363E0,3.625699043E0,4.532632467E0
2.397000369E0,-6.827354431E-2,-2.575515270E0,3.603526115E0,4.429823997E0
2.402004535E0,-3.952102661E-1,-1.999877691E0,3.478055954E0,4.031448270E0
2.407008702E0,-6.481990814E-1,-1.515944242E0,3.310512066E0,3.698342755E0
2.412012869E0,-9.319972992E-1,-8.283743858E-1,3.132307768E0,3.371375838E0
2.417017035E0,-1.117456436E0,-3.015042543E-1,2.944110155E0,3.163447219E0
2.422021202E0,-1.247943401E0,6.006360054E-2,2.831283331E0,3.094694762E0
2.427025369E0,-1.128034592E0,2.806638479E-1,2.844542980E0,3.072890984E0
2.432029535E0,-8.402156830E-1,2.362499237E-1,2.966571331E0,3.092300419E0
2.437033702E0,-5.720195770E-1,4.714500904E-2,3.299107552E0,3.348662373E0
2.442037869E0,-9.967327118E-2,-2.095999718E-1,3.771739483E0,3.778873594E0
2.447042035E0,4.275217056E-1,-4.858618975E-1,4.214454651E0,4.263855602E0
2.452046202E0,9.325237274E-1,-6.764998436E-1,4.692848206E0,4.832191720E0
2.457050369E0,1.324625969E0,-8.436222076E-1,5.087541580E0,5.324416561E0
2.462054535E0,1.465782166E0,-9.676599503E-1,5.327802658E0,5.609845301E0
2.467058702E0,1.342804909E0,-1.004552007E0,5.415395737E0,5.669105815E0
2.472062869E0,1.124075890E0,-9.015024900E-1,5.347581387E0,5.538310214E0
2.477067035E0,9.153985977E-1,-8.354408741E-1,5.236080647E0,5.380748701E0
2.482071202E0,6.452569962E-1,-6.440178156E-1,5.148633003E0,5.228722343E0
2.487075369E0,2.467126846E-1,-4.568639994E-1,5.051437855E0,5.078052408E0
2.492079535E0,-2.039375305E-1,-2.833524942E-1,4.990860939E0,5.003056272E0
2.497083702E0,-7.112407684E-1,-2.562479973E-1,4.665672302E0,4.726523511E0
2.502087869E0,-1.073923111E0,-4.910576344E-2,4.579058170E0,4.703562049E0
2.507092035E0,-1.349653721E0,1.664406061E-1,4.424232006E0,4.628509100E0
2.512096202E0,-1.562350750E0,3.665993214E-1,4.302149773E0,4.591712926E0
2.517100369E0,-1.907925129E0,4.938780069E-1,4.179900169E0,4.621218368E0
2.522104535E0,-2.347728729E0,5.959951282E-1,4.005537033E0,4.680957947E0
2.527108702E0,-2.900443554E0,6.632759571E-1,3.803961754E0,4.829351181E0
2.532112869E0,-3.279159546E0,8.341379166E-1,3.536958933E0,4.894767807E0
2.537117035E0,-3.565356731E0,9.499392509E-1,3.205376625E0,4.887595780E0
2.542121202E0,-3.955247879E0,9.961425662E-1,2.976427794E0,5.049297793E0
2.547125369E0,-4.205139160E0,1.087480068E0,2.844363451E0,5.191937181E0
2.552129535E0,-4.339593887E0,1.204355359E0,2.783995628E0,5.294636777E0
2.557133702E0,-4.512274265E0,1.283955932E0,2.774732113E0,5.450532100E0
2.562137869E0,-4.623045444E0,1.383582711E0,2.739078760E0,5.548819943E0
2.567142035E0,-4.634068966E0,1.416764617E0,2.590410233E0,5.494728595E0
2.572146202E0,-4.641304493E0,1.411775589E0,2.400316477E0,5.412609066E0
2.577150421E0,-4.630402088E0,1.392254591E0,2.269485235E0,5.341306917E0
2.582154640E0,-4.687530041E0,1.391159892E0,2.169064522E0,5.349121856E0
2.587158858E0,-4.826778412E0,1.374842167E0,2.003864288E0,5.404021920E0
2.592163077E0,-4.923539162E0,1.319386959E0,1.789001703E0,5.402087274E0
2.597167296E0,-4.930089951E0,1.215262890E0,1.601089239E0,5.324109086E0
2.602171515E0,-4.708202839E0,1.114852667E0,1.387012482E0,5.033276673E0
2.607175733E0,-4.573752880E0,1.209755540E0,1.184686303E0,4.877110365E0
2.612179952E0,-4.473891735E0,1.228051424E0,9.794745445E-1,4.741644012E0
2.617184171E0,-4.394097805E0,1.183566451E0,7.721352577E-1,4.615746735E0
2.622188390E0,-4.109689713E0,1.133788347E0,5.100843906E-1,4.293624534E0
2.627192608E0,-3.731165409E0,1.135246396E0,8.811974525E-2,3.901044063E0
2.632196827E0,-3.406915188E0,1.148965120E0,-2.782082558E-1,3.606187984E0
2.637201046E0,-3.074637413E0,1.155711889E0,-6.939237118E-1,3.357170730E0
2.642205265E0,-2.824878693E0,1.107990623E0,-1.100869656E0,3.227924542E0
2.647209483E0,-2.552234173E0,1.091998816E0,-1.417534828E0,3.117012299E0
2.652213702E0,-2.443018436E0,1.026706815E0,-1.801605940E0,3.204411011E0
2.657217921E0,-2.314810276E0,9.273101687E-1,-2.127397299E0,3.277814825E0
2.662222140E0,-2.320687771E0,1.066718817E0,-2.108991385E0,3.312299114E0
2.667226358E0,-2.187993050E0,1.091354132E0,-2.125166893E0,3.239552708E0
2.672230577E0,-1.883301735E0,1.140122056E0,-2.141580343E0,3.071330346E0
2.677234796E0,-1.526018620E0,1.189083815E0,-2.060945034E0,2.826684910E0
2.682239015E0,-1.010983467E0,1.218740702E0,-1.935138941E0,2.500435800E0
2.687243233E0,-6.300601959E-1,1.190684080E0,-1.826166868E0,2.269270777E0
2.692247452E0,-3.495101929E-1,1.138646126E0,-1.662195444E0,2.044887789E0
2.697251671E0,2.195644379E-2,1.101256371E0,-1.606381893E0,1.947744969E0
2.702255890E0,2.404212952E-1,1.078513145E0,-1.634526730E0,1.972985209E0
2.707260108E0,4.446525574E-1,1.141911268E0,-1.651207924E0,2.056250191E0
2.712264327E0,6.441411972E-1,1.209426403E0,-1.747042656E0,2.220312624E0
2.717268546E0,8.196706772E-1,1.227833509E0,-1.893012047E0,2.400610288E0
2.722272765E0,1.009416580E0,1.273226976E0,-1.912158847E0,2.509258899E0
2.727276983E0,1.222689629E0,1.398277760E0,-1.868019462E0,2.634321038E0
2.732281202E0,1.478356361E0,1.474259496E0,-1.853013277E0,2.791529473E0
2.737285421E0,1.828679085E0,1.539788485E0,-1.916387439E0,3.063911975E0
2.742289588E0,2.196882248E0,1.475839734E0,-2.188228846E0,3.434055913E0
2.747293754E0,2.664198875E0,1.325852394E0,-2.697128296E0,4.016259611E0
2.752297921E0,3.058528900E0,1.170987844E0,-3.255378723E0,4.617716123E0
2.757302088E0,3.227389336E0,1.068030953E0,-3.817601204E0,5.111830493E0
2.762306254E0,3.252926826E0,7.677869797E-1,-4.404500961E0,5.529073928E0
2.767310421E0,3.140646935E0,6.389856339E-1,-4.612179279E0,5.616419100E0
2.772314588E0,3.096356392E0,4.757436514E-1,-4.894999504E0,5.811606927E0
2.777318754E0,3.272961617E0,3.026670218E-1,-5.248148441E0,6.192491189E0
2.782322921E0,3.860997200E0,1.770931482E-1,-5.529440880E0,6.746360338E0
2.787327088E0,4.514891624E0,-2.409126759E-1,-5.551119804E0,7.159414528E0
2.792331254E0,5.004716873E0,-6.832731962E-1,-5.468671799E0,7.444489538E0
2.797335421E0,4.852903366E0,-1.168229818E0,-5.277764320E0,7.264311957E0
2.802339588E0,4.620284081E0,-1.426745653E0,-5.163836002E0,7.074449124E0
2.807343754E0,4.417148590E0,-1.621820927E0,-4.958185196E0,6.835576437E0
2.812347921E0,4.095334053E0,-1.825134754E0,-4.608124733E0,6.429439434E0
2.817352088E0,3.750713348E0,-1.931428790E0,-4.304788589E0,6.027393516E0
2.822356254E0,3.536597252E0,-1.902336001E0,-4.099177361E0,5.738436844E0
2.827360421E0,3.543934822E0,-1.589078426E0,-3.817831516E0,5.446143751E0
2.832364588E0,3.557485580E0,-1.134940982E0,-3.498378038E0,5.116878305E0
2.837368754E0,3.414821625E0,-6.405004263E-1,-3.307756424E0,4.797134570E0
2.842372921E0,3.900805473E0,-9.233008623E-1,-3.744039059E0,5.485125003E0
2.847377088E0,4.263518333E0,-1.034813285E0,-3.982189417E0,5.925053558E0
2.852381254E0,4.225441933E0,-8.747301102E-1,-3.762863159E0,5.725264312E0
2.857385421E0,3.791559219E0,-7.886134386E-1,-3.566772938E0,5.264950300E0
2.862389588E0,3.445064545E0,-7.626839876E-1,-3.552491426E0,5.007030249E0
2.867393754E0,3.285861015E0,-5.735901594E-1,-3.777432203E0,5.039333521E0
2.872397921E0,3.041121483E0,-3.325825930E-1,-3.967985153E0,5.010382943E0
2.877402088E0,2.863972664E0,-1.170893908E-1,-3.860495329E0,4.808271366E0
2.882406254E0,2.682876587E0,-5.142688751E-2,-3.425494432E0,4.351377209E0
2.887410421E0,2.474271774E0,5.132222176E-2,-2.772323847E0,3.716239268E0
2.892414588E0,2.319489479E0,5.278801918E-2,-2.131188393E0,3.150362199E0
2.897418754E0,2.328486443E0,1.443446875E-1,-1.597391367E0,2.827427043E0
2.902422921E0,2.496136665E0,2.827064991E-1,-1.032523632E0,2.716012936E0
2.907427088E0,2.664256096E0,2.571822405E-1,-4.946472645E-1,2.721962374E0
2.912431254E0,2.684357643E0,2.401189804E-1,1.966009140E-1,2.702237036E0
2.917435421E0,2.489539146E0,2.074940205E-1,8.106281757E-1,2.626400002E0
2.922439588E0,2.204512596E0,2.120107412E-1,1.390730858E0,2.615139893E0
2.927443754E0,1.977550507E0,2.873481512E-1,1.903050661E0,2.759506620E0
2.932447921E0,1.674652100E0,2.377192974E-1,2.361632824E0,2.904871721E0
2.937452088E0,1.496509552E0,2.456471920E-1,2.751066923E0,3.141377500E0
2.942456254E0,1.466565132E0,2.727952003E-1,3.065947056E0,3.409583825E0
2.947460421E0,1.374043465E0,2.760994434E-1,3.458861828E0,3.732017081E0
2.952464588E0,1.156633377E0,1.790697575E-1,3.823782921E0,3.998897670E0
2.957468754E0,7.952823639E-1,-3.630042076E-3,4.102997780E0,4.179363348E0
2.962472921E0,3.046941757E-1,-1.516170502E-1,4.339753628E0,4.353077971E0
2.967477088E0,-9.490871429E-2,-2.692192793E-1,4.610763550E0,4.619591670E0
2.972481254E0,-3.511972427E-1,-2.989839315E-1,4.853549004E0,4.875414734E0
2.977485421E0,-5.121517181E-1,-3.460603952E-1,5.183073997E0,5.219800115E0
2.982489588E0,-6.018838882E-1,-4.393140078E-1,5.427174568E0,5.478091347E0
2.987493754E0,-6.490411758E-1,-5.454291105E-1,5.696631908E0,5.759371707E0
2.992497921E0,-7.732410431E-1,-7.365114689E-1,5.977258205E0,6.071899745E0
2.997502088E0,-7.785453796E-1,-9.028912783E-1,6.240081310E0,6.352948947E0
3.002506254E0,-9.426393509E-1,-1.121429563E0,6.527714729E0,6.690084663E0
3.007510421E0,-9.308090210E-1,-1.205923438E0,6.677264214E0,6.848833050E0
3.012514588E0,-1.101928234E0,-1.353388786E0,6.756300926E0,6.978073462E0
3.017518754E0,-1.202517986E0,-1.435486794E0,6.726692200E0,6.982482352E0
3.022522921E0,-1.385839939E0,-1.467535496E0,6.612601280E0,6.913805642E0
3.027527088E0,-1.561072826E0,-1.459820986E0,6.481100559E0,6.824418667E0
3.032531254E0,-1.776069164E0,-1.398508549E0,6.303719521E0,6.696799805E0
3.037535421E0,-1.954141617E0,-1.254876137E0,6.028255939E0,6.460127959E0
3.042539588E0,-2.171704292E0,-1.062526941E0,5.693488598E0,6.185553771E0
3.047543754E0,-2.414177418E0,-8.496558666E-1,5.304380417E0,5.889534727E0
3.052547921E0,-2.709887028E0,-6.488647461E-1,5.019072533E0,5.740697018E0
3.057552088E0,-2.919616699E0,-5.020128489E-1,4.747285843E0,5.595793192E0
3.062556254E0,-3.024055481E0,-3.747974634E-1,4.403461456E0,5.354984359E0
3.067560421E0,-3.085297585E0,-2.237619162E-1,4.040742874E0,5.088883331E0
3.072564588E0,-3.155772209E0,-1.346397400E-1,3.769624710E0,4.918037876E0
3.077568754E0,-3.254471779E0,-1.356420517E-1,3.499267340E0,4.780675396E0
3.082572921E0,-3.324000835E0,-1.925015450E-1,3.205234528E0,4.621641134E0
3.087577088E0,-3.460028172E0,-1.469768286E-1,2.978085041E0,4.567536278E0
3.092581254E0,-3.614673138E0,-1.807584763E-1,2.602359533E0,4.457668747E0
3.097585421E0,-3.883291245E0,-1.356796026E-1,2.227109194E0,4.478657746E0
3.102589588E0,-4.217773438E0,-2.086877823E-3,1.933870196E0,4.639986106E0
3.107593754E0,-4.278489113E0,1.148146391E-1,1.517238140E0,4.540998025E0
3.112597921E0,-4.199728966E0,2.340220213E-1,1.116219997E0,4.351831428E0
3.117602088E0,-4.043903351E0,3.603324890E-1,8.406021595E-1,4.146034950E0
3.122606254E0,-3.945095062E0,4.412244558E-1,6.562653780E-1,4.023572830E0
3.127610421E0,-3.821907997E0,6.107721329E-1,5.295724869E-1,3.906465200E0
3.132614588E0,-3.688613415E0,6.826263666E-1,3.793352842E-1,3.770377029E0
3.137618754E0,-3.535254002E0,8.199454546E-1,-3.603696823E-3,3.629096911E0
3.142622921E0,-3.379580021E0,1.120669484E0,-2.378809452E-1,3.568479866E0
3.147627088E0,-3.551948071E0,1.418164015E0,-6.038589478E-1,3.871972352E0
3.152631254E0,-3.789507866E0,1.487246513E0,-1.007934570E0,4.193829295E0
3.157635421E0,-3.929558754E0,1.317063808E0,-1.276517868E0,4.336540896E0
3.162639588E0,-4.000769615E0,1.207578301E0,-1.632563829E0,4.486609803E0
3.167643754E0,-3.936298370E0,1.123313189E0,-2.012018204E0,4.561194430E0
3.172647921E0,-3.650419712E0,1.067603469E0,-2.203632116E0,4.395604139E0
3.177652088E0,-3.167729378E0,8.242702484E-1,-2.408877611E0,4.064064738E0
3.182656254E0,-2.684853554E0,7.230840921E-1,-2.336879969E0,3.632120207E0
3.187660421E0,-2.336607456E0,5.720663071E-1,-2.120292425E0,3.206654679E0
3.192664588E0,-2.185504436E0,3.327138424E-1,-2.052728415E0,3.016756882E0
3.197668754E0,-2.202785969E0,-3.293275833E-2,-1.938851595E0,2.934705453E0
3.202672921E0,-2.359862804E0,-2.280292511E-1,-1.636776924E0,2.880970061E0
3.207677088E0,-2.350844860E0,-3.339917660E-1,-1.434786320E0,2.774280779E0
3.212681254E0,-2.171406269E0,-5.566649437E-1,-1.232778072E0,2.558246044E0
3.217685421E0,-1.888845444E0,-7.288291454E-1,-1.064167738E0,2.287221460E0
3.222689588E0,-1.689677238E0,-8.509159088E-1,-8.419916630E-1,2.070752765E0
3.227693754E0,-1.516098499E0,-1.013497353E0,-7.185184956E-1,1.960102133E0
3.232697973E0,-1.344020367E0,-1.106481791E0,-6.500511169E-1,1.858294690E0
3.237702192E0,-1.073011875E0,-1.374301672E0,-7.027311325E-1,1.879864520E0
3.242706410E0,-8.994889259E-1,-1.587868452E0,-7.760775089E-1,1.983104346E0
3.247710629E0,-7.803750038E-1,-1.800042152E0,-8.367366791E-1,2.132900646E0
3.252714848E0,-6.726074219E-1,-2.130678892E0,-1.013604164E0,2.453484601E0
3.257719067E0,-5.810632706E-1,-2.297650576E0,-1.220729589E0,2.665898239E0
3.262723285E0,-4.720706940E-1,-2.315228462E0,-1.524730206E0,2.812105221E0
3.267727504E0,-3.693675995E-1,-2.254843235E0,-1.882348061E0,2.960402787E0
3.272731723E0,-2.773599625E-1,-2.230545521E0,-2.164010048E0,3.120128420E0
3.277735942E0,1.475811005E-2,-2.026401997E0,-2.641611338E0,3.329359295E0
3.282740160E0,4.593114853E-1,-1.833941460E0,-3.140924454E0,3.666021651E0
3.287744379E0,9.515419006E-1,-1.681519747E0,-3.616502285E0,4.100247483E0
3.292748598E0,1.420361519E0,-1.568422079E0,-4.085311890E0,4.600776880E0
3.297752817E0,1.765887260E0,-1.388671875E0,-4.493551731E0,5.023820713E0
3.302757035E0,2.103507996E0,-1.231986046E0,-4.788324356E0,5.373135550E0
3.307761254E0,2.419274330E0,-8.865809441E-1,-5.017746449E0,5.640628819E0
3.312765473E0,2.713277817E0,-4.859941006E-1,-5.412024498E0,6.073555461E0
3.317769692E0,2.971002579E0,-3.026857376E-1,-5.718701363E0,6.451513020E0
3.322773910E0,3.321740150E0,-6.770253181E-2,-5.847739220E0,6.725666899E0
3.327778129E0,3.807688713E0,1.513376236E-1,-5.992890358E0,7.101839991E0
3.332782348E0,4.174640656E0,4.017419815E-1,-5.763981342E0,7.128288865E0
3.337786567E0,4.470085144E0,8.455803394E-1,-5.526413918E0,7.158066645E0
3.342790785E0,4.540245056E0,1.290266633E0,-5.282370090E0,7.083928778E0
3.347795004E0,4.571161270E0,1.658258915E0,-5.119490623E0,7.060773487E0
3.352799223E0,4.500417709E0,1.781321645E0,-5.123617172E0,7.048284847E0
3.357803442E0,4.442708015E0,1.931410313E0,-5.074148178E0,7.015338911E0
3.362807660E0,4.077684402E0,1.710895538E0,-5.257053852E0,6.869591606E0
3.367811879E0,3.511312485E0,1.445132494E0,-5.182721138E0,6.424820751E0
3.372816098E0,2.801535606E0,1.425278425E0,-4.993351460E0,5.900303309E0
3.377820317E0,2.861802101E0,9.238591194E-1,-5.482389450E0,6.253000961E0
3.382824535E0,2.897786140E0,3.666298389E-1,-5.819354057E0,6.511256684E0
3.387828754E0,2.704036713E0,-2.159881592E-2,-5.698206902E0,6.307284911E0
3.392832973E0,2.425042152E0,-2.884020805E-1,-5.505103111E0,6.022471707E0
3.397837140E0,2.343702316E0,-5.331959724E-1,-5.086245537E0,5.625578384E0
3.402841306E0,2.455148697E0,-6.165068150E-1,-4.657547951E0,5.300998839E0
3.407845473E0,2.662838936E0,-7.343246937E-1,-4.173836708E0,5.005083098E0
3.412849640E0,2.774499893E0,-8.288767338E-1,-3.638511658E0,4.650124018E0
3.417853806E0,2.789225578E0,-4.084608555E-1,-3.044734478E0,4.149340627E0
3.422857973E0,2.658779144E0,-6.839983463E-1,-2.446444273E0,3.677233995E0
3.427862140E0,2.517310143E0,-8.703131676E-1,-1.652108192E0,3.134287294E0
3.432866306E0,2.407630920E0,-7.343986034E-1,-8.816010952E-1,2.667067387E0
3.437870473E0,2.310262680E0,-9.614982605E-1,-2.449235916E-1,2.514315040E0
3.442874640E0,2.301942825E0,-1.306755781E0,4.018800259E-1,2.677323103E0
3.447878806E0,2.253815651E0,-1.707016706E0,1.001792073E0,2.999529694E0
3.452882973E0,2.300196648E0,-2.069816113E0,1.578614473E0,3.473768417E0
3.457887140E0,2.369479179E0,-2.365411997E0,2.007922649E0,3.904018297E0
3.462891306E0,2.318611145E0,-2.616928816E0,2.328791618E0,4.200898055E0
3.467895473E0,2.081275940E0,-2.890889883E0,2.547194958E0,4.379172982E0
3.472899640E0,1.720382690E0,-3.181571245E0,2.644985199E0,4.480854706E0
3.477903806E0,1.241393089E0,-3.369295835E0,2.791229486E0,4.547985628E0
3.482907973E0,6.061964035E-1,-3.287141085E0,2.909568787E0,4.431519053E0
3.487912140E0,-4.163360596E-2,-3.418192148E0,3.085701227E0,4.605140930E0
3.492916306E0,-4.147920609E-1,-2.948743343E0,3.263080359E0,4.417559641E0
3.497920473E0,-5.182294846E-1,-2.415934801E0,3.390411854E0,4.195258669E0
3.502924640E0,-5.486621857E-1,-1.997657299E0,3.491452217E0,4.059791061E0
3.507928806E0,-4.969787598E-1,-1.751110792E0,3.699051142E0,4.122663732E0
3.512932973E0,-3.158349991E-1,-1.422750950E0,3.988163233E0,4.246106214E0
3.517937140E0,-2.161102295E-1,-1.094079494E0,4.286088943E0,4.428800289E0
3.522941306E0,-7.376480103E-2,-9.324275255E-1,4.476846695E0,4.573512727E0
3.527945473E0,-8.744239807E-3,-8.989559412E-1,4.669308186E0,4.755064372E0
3.532949640E0,1.556758881E-1,-8.159573078E-1,4.933893681E0,5.003331706E0
3.537953806E0,3.810644150E-1,-7.262851000E-1,5.217643738E0,5.281714334E0
3.542957973E0,6.959857941E-1,-6.589508057E-1,5.448892117E0,5.532543510E0
3.547962140E0,9.523143768E-1,-6.479793787E-1,5.667034149E0,5.782910685E0
3.552966306E0,1.178961754E0,-6.414099932E-1,5.896871567E0,6.047681529E0
3.557970473E0,1.299457550E0,-6.253039837E-1,6.038180351E0,6.207996211E0
3.562974640E0,1.333111763E0,-5.567805767E-1,6.000383854E0,6.171855311E0
3.567978806E0,1.261005402E0,-5.027214289E-1,5.893840790E0,6.048158622E0
3.572982973E0,1.332217216E0,-3.624824286E-1,5.638097763E0,5.804682817E0
3.577987140E0,1.058829308E0,-1.560705900E-1,5.511220932E0,5.614181480E0
3.582991306E0,5.563144684E-1,1.688456535E-2,5.364949226E0,5.393741844E0
3.587995473E0,5.482673645E-2,1.192308664E-1,5.137493134E0,5.139168967E0
3.592999640E0,-4.837017059E-1,2.235958576E-1,4.881691933E0,4.910690234E0
3.598003806E0,-9.682550430E-1,3.496867418E-1,4.597615242E0,4.711460979E0
3.603007973E0,-1.437174320E0,4.690432549E-1,4.304251671E0,4.562023021E0
3.608012140E0,-1.933455467E0,5.578534603E-1,4.025699615E0,4.500634169E0
3.613016306E0,-2.409263134E0,6.351128817E-1,3.766796112E0,4.516267283E0
3.618020473E0,-2.874237537E0,7.293912172E-1,3.498758793E0,4.586345611E0
3.623024640E0,-3.309326172E0,8.594449759E-1,3.245540142E0,4.714214271E0
3.628028806E0,-3.700379848E0,9.673691392E-1,3.040370464E0,4.885945828E0
3.633032973E0,-4.038049698E0,1.048197269E0,2.892322779E0,5.076425311E0
3.638037140E0,-4.379933834E0,1.116223574E0,2.753010750E0,5.292338202E0
3.643041306E0,-4.659147739E0,1.257415652E0,2.598306656E0,5.480871213E0
3.648045473E0,-4.813507557E0,1.437714815E0,2.400267601E0,5.567599433E0
3.653049640E0,-4.953087807E0,1.551148415E0,2.178907394E0,5.629100964E0
3.658053806E0,-5.154414177E0,1.607108355E0,1.977535248E0,5.749906819E0
3.663057973E0,-5.206993103E0,1.652993321E0,1.815696359E0,5.756901716E0
3.668062140E0,-5.163827896E0,1.726458073E0,1.688313007E0,5.700541801E0
3.673066306E0,-5.149600983E0,1.740767479E0,1.556763411E0,5.654394222E0
3.678070473E0,-5.102327347E0,1.729153514E0,1.401353598E0,5.566642447E0
3.683074640E0,-5.036606789E0,1.763142347E0,1.293224812E0,5.490765820E0
3.688078806E0,-5.024418831E0,1.708687782E0,1.193209648E0,5.439498855E0
3.693082973E0,-5.008390427E0,1.632957816E0,1.129525185E0,5.387611070E0
3.698087140E0,-5.069889069E0,1.555509806E0,1.077500820E0,5.411505700E0
3.703091306E0,-5.065313339E0,1.481780410E0,9.935543537E-1,5.370309364E0
3.708095473E0,-4.985178947E0,1.459884882E0,8.151876926E-1,5.258117912E0
3.713099640E0,-4.829578400E0,1.389551163E0,6.569463015E-1,5.068259898E0
3.718103806E0,-4.546061039E0,1.328257918E0,5.709072351E-1,4.770416663E0
3.723107973E0,-4.259012222E0,1.209125638E0,4.089008570E-1,4.446163496E0
3.728112140E0,-3.972922325E0,1.147177696E0,2.388626337E-1,4.142123106E0
3.733116306E0,-3.692229748E0,1.027855396E0,3.796231747E-2,3.832817288E0
3.738120473E0,-3.340057373E0,9.851261377E-1,-1.825946569E-1,3.487090129E0
3.743124640E0,-2.992916107E0,9.518554211E-1,-3.696641922E-1,3.162313581E0
3.748128806E0,-2.588581562E0,8.754748106E-1,-6.856886148E-1,2.817335536E0
3.753132973E0,-2.203509331E0,8.039426804E-1,-1.029436588E0,2.561545802E0
3.758137140E0,-1.871005535E0,7.855045795E-1,-1.328776360E0,2.425556796E0
3.763141306E0,-1.552666187E0,7.771478891E-1,-1.650269389E0,2.395437369E0
3.768145473E0,-1.286608219E0,7.505235672E-1,-1.998236775E0,2.492307474E0
3.773149640E0,-1.058277130E0,8.158406019E-1,-2.295336485E0,2.655958575E0
3.778153806E0,-8.149175644E-1,9.060302973E-1,-2.483309746E0,2.766190310E0
3.783157973E0,-5.852203369E-1,9.444640875E-1,-2.542619228E0,2.774780675E0
3.788162140E0,-2.160682678E-1,1.046062350E0,-2.663989305E0,2.870151731E0
3.793166306E0,1.872806549E-1,1.110194445E0,-2.884193182E0,3.096155045E0
3.798170473E0,6.008386612E-1,1.194193482E0,-3.021100998E0,3.303658035E0
3.803174640E0,1.019576073E0,1.302638650E0,-3.013762951E0,3.437901968E0
3.808178806E0,1.395309448E0,1.459130406E0,-3.041254759E0,3.650367174E0
3.813182973E0,1.727774620E0,1.605658054E0,-3.076240063E0,3.876415335E0
3.818187140E0,1.959384918E0,1.727450490E0,-3.072037458E0,4.032454414E0
3.823191306E0,2.238350868E0,1.862282634E0,-3.134329796E0,4.278122776E0
3.828195473E0,2.354175568E0,1.895661592E0,-3.129722595E0,4.350958400E0
3.833199640E0,2.527018547E0,2.081385612E0,-3.221437454E0,4.592999899E0
3.838203806E0,2.656271935E0,2.213315248E0,-3.275796890E0,4.762918249E0
3.843207973E0,2.727571487E0,2.076177835E0,-3.407964230E0,4.833671567E0
3.848212140E0,2.846380234E0,1.780943394E0,-3.579250813E0,4.907614103E0
3.853216306E0,2.998469353E0,1.509909391E0,-3.831897259E0,5.094514838E0
3.858220473E0,3.222190857E0,1.296608686E0,-4.069278717E0,5.350022176E0
3.863224692E0,3.484019279E0,1.059182882E0,-4.395546436E0,5.707984512E0
3.868228910E0,3.477809906E0,9.600491524E-1,-4.456637859E0,5.733975682E0
3.873233129E0,3.481203079E0,7.027418613E-1,-4.464170456E0,5.704510396E0
3.878237348E0,3.771370888E0,4.738739729E-1,-4.572475910E0,5.946034886E0
3.883241567E0,4.276049614E0,2.405762672E-2,-4.456428051E0,6.176158195E0
3.888245785E0,4.808136940E0,-4.845679998E-1,-4.112891197E0,6.345775050E0
3.893250004E0,4.889310837E0,-8.848153353E-1,-3.800575972E0,6.255608392E0
3.898254223E0,4.668684006E0,-1.291169763E0,-3.618453503E0,6.046233162E0
3.903258442E0,4.271265030E0,-1.559624314E0,-3.292431116E0,5.613932277E0
3.908262660E0,3.860088348E0,-1.584486246E0,-3.003791809E0,5.141365962E0
3.913266879E0,3.631320953E0,-1.576093078E0,-2.938949585E0,4.930312964E0
3.918271098E0,3.427181244E0,-1.304708362E0,-3.234498262E0,4.889766272E0
3.923275317E0,3.204962730E0,-9.427709579E-1,-3.471047878E0,4.817548812E0
3.928279535E0,3.175400734E0,-5.182454586E-1,-3.441994667E0,4.711589484E0
3.933283754E0,3.486518860E0,-8.311402798E-2,-3.402127266E0,4.872082885E0
3.938287973E0,4.142662048E0,1.142381430E-1,-3.672519207E0,5.537336591E0
3.943292192E0,4.492842674E0,1.122852564E-1,-3.794958591E0,5.882172557E0
3.948296410E0,4.561178207E0,1.939151287E-1,-3.848349571E0,5.970908150E0
3.953300629E0,4.448236465E0,1.488256454E-1,-3.925609112E0,5.934590434E0
3.958304848E0,4.417066574E0,1.584968567E-1,-4.046772480E0,5.992659333E0
3.963309067E0,4.357272148E0,5.900132656E-2,-4.150012493E0,6.017632875E0
3.968313285E0,4.297473907E0,2.208399773E-2,-4.149236679E0,5.973686861E0
3.973317504E0,3.993742943E0,9.492933750E-2,-3.704476357E0,5.448131730E0
3.978321723E0,3.140476227E0,1.024115086E-2,-3.342045069E0,4.586061606E0
3.983325942E0,2.953751564E0,-1.123044491E-1,-2.937861204E0,4.167527930E0
3.988330160E0,3.193978310E0,-5.076873302E-1,-2.608587265E0,4.154993548E0
3.993334379E0,3.382269859E0,-6.190166473E-1,-2.228164911E0,4.097273469E0
3.998338598E0,3.566440582E0,-4.993779659E-1,-1.749421716E0,4.003667459E0
4.003342817E0,3.708047867E0,-2.843601704E-1,-1.277476192E0,3.932229026E0
4.008347035E0,3.615626335E0,-2.381522655E-1,-8.462116718E-1,3.720960157E0
4.013351254E0,3.375518799E0,-2.267687321E-1,-4.080021381E-1,3.407640968E0
4.018355473E0,2.940127373E0,-1.400995255E-1,1.375339031E-1,2.946674807E0
4.023359692E0,2.529649734E0,-4.018986225E-2,6.653276682E-1,2.615990044E0
4.028363910E0,2.330542564E0,4.922246933E-2,1.170149446E0,2.608275526E0
4.033368129E0,2.141766548E0,5.648934841E-2,1.680958390E0,2.723228985E0
4.038372296E0,1.819896698E0,1.521718502E-2,2.216999769E0,2.868334627E0
4.043376463E0,1.255147934E0,7.439422607E-2,2.720324516E0,2.996847729E0
4.048380629E0,7.013502121E-1,8.146035671E-2,3.161906004E0,3.239780469E0
4.053384796E0,1.680631638E-1,8.373856544E-3,3.598701477E0,3.602633435E0
4.058388963E0,-3.113231659E-1,-3.451192379E-2,4.068449974E0,4.080489968E0
4.063393129E0,-7.272891998E-1,-2.998741865E-1,4.460564613E0,4.529405124E0
4.068397296E0,-8.646602631E-1,-4.665191174E-1,4.908871174E0,5.006225490E0
4.073401463E0,-9.057168961E-1,-5.682971478E-1,5.431851387E0,5.536090158E0
4.078405629E0,-9.323120117E-1,-8.155173063E-1,6.003738403E0,6.130183438E0
4.083409796E0,-9.833230972E-1,-1.007214427E0,6.502830505E0,6.653435939E0
4.088413963E0,-1.087847710E0,-1.196210861E0,6.927939415E0,7.114118189E0
4.093418129E0,-1.226907253E0,-1.373479128E0,7.221609116E0,7.452743424E0
4.098422296E0,-1.405400753E0,-1.625981331E0,7.398599148E0,7.704429629E0
4.103426463E0,-1.781202793E0,-1.848968387E0,7.478383064E0,7.906805976E0
4.108430629E0,-1.981144905E0,-1.799055576E0,7.470747948E0,7.935591408E0
4.113434796E0,-2.005796432E0,-1.693218708E0,7.428302765E0,7.878444700E0
4.118438963E0,-2.018289566E0,-1.695496082E0,7.317606449E0,7.777889423E0
4.123443129E0,-1.913497925E0,-1.610431910E0,7.225214958E0,7.645828695E0
4.128447296E0,-1.859076977E0,-1.577834249E0,7.074916840E0,7.483326560E0
4.133451463E0,-1.816857815E0,-1.565196872E0,6.876576424E0,7.282727297E0
4.138455629E0,-1.868124485E0,-1.607065558E0,6.530587196E0,6.980051427E0
4.143459796E0,-2.170334816E0,-1.469372034E0,6.124260426E0,6.661529340E0
4.148463963E0,-2.454605579E0,-1.102535605E0,5.630066395E0,6.240057766E0
4.153468129E0,-2.653262615E0,-6.004604101E-1,5.135249138E0,5.811294083E0
4.158472296E0,-2.780107021E0,-1.290132999E-1,4.679159164E0,5.444278645E0
4.163476463E0,-2.902016163E0,1.790291071E-1,4.357140064E0,5.238169410E0
4.168480629E0,-3.109833717E0,2.960153818E-1,3.991482258E0,5.068591665E0
4.173484796E0,-3.302999496E0,2.512456179E-1,3.687228680E0,4.956670795E0
4.178488963E0,-3.471926212E0,1.981680393E-1,3.444292545E0,4.894557522E0
4.183493129E0,-3.597481251E0,1.657505035E-1,3.233807325E0,4.840129585E0
4.188497296E0,-3.703564167E0,1.828594208E-1,2.955413342E0,4.741760551E0
4.193501463E0,-3.799744129E0,2.783466578E-1,2.656908989E0,4.644857122E0
4.198505629E0,-3.804638386E0,3.947126865E-1,2.381781578E0,4.505990994E0
4.203509796E0,-3.957194328E0,3.505871296E-1,2.030558825E0,4.461554373E0
4.208513963E0,-4.113458633E0,4.005731344E-1,1.699608088E0,4.468743494E0
4.213518129E0,-4.210949898E0,4.877806902E-1,1.346860409E0,4.447927833E0
4.218522296E0,-4.254040718E0,5.462110043E-1,1.031284809E0,4.411208139E0
4.223526463E0,-4.122353554E0,7.878516912E-1,5.885508060E-1,4.238030340E0
4.228530629E0,-3.953037262E0,1.019935727E0,3.017042875E-1,4.093628947E0
4.233534796E0,-3.908393383E0,1.071432590E0,-2.736898661E-1,4.061823824E0
4.238538963E0,-3.950345039E0,1.023824215E0,-1.058189273E0,4.215828091E0
4.243543129E0,-4.113348007E0,6.451796293E-1,-2.332719564E0,4.772574688E0
4.248547296E0,-3.818838596E0,7.549583912E-1,-2.584136486E0,4.672392511E0
4.253551463E0,-3.101778030E0,1.711700678E0,-1.565806508E0,3.873331406E0
4.258555629E0,-3.511709690E0,1.074256778E0,-2.007274151E0,4.185126293E0
4.263559796E0,-3.703938007E0,5.908981562E-1,-2.222419739E0,4.359755370E0
4.268563963E0,-3.598606586E0,4.281836748E-1,-2.479435205E0,4.391003252E0
4.273568129E0,-3.221154213E0,3.355076313E-1,-2.561595201E0,4.129185127E0
4.278572296E0,-2.941166878E0,3.347455263E-1,-2.896532297E0,4.141547599E0
4.283576463E0,-2.692495823E0,2.332539558E-1,-2.199345827E0,3.484402851E0
4.288580629E0,-2.863914490E0,-9.306120872E-2,-2.441880465E0,3.764763843E0
4.293584796E0,-3.014837265E0,-2.613804340E-1,-2.502793789E0,3.927026893E0
4.298588963E0,-3.116801262E0,-4.437663555E-1,-2.215484619E0,3.849642942E0
4.303593129E0,-3.136512280E0,-7.067632675E-1,-1.944366693E0,3.757364161E0
4.308597296E0,-3.030717850E0,-1.002139091E0,-1.511453629E0,3.531858649E0
4.313601463E0,-2.817847252E0,-1.252897501E0,-1.129362583E0,3.284124712E0
4.318605629E0,-2.478074551E0,-1.583548069E0,-7.326297760E-1,3.030713506E0
4.323609796E0,-2.197535992E0,-1.922715902E0,-4.096016884E-1,2.948520717E0
4.328613963E0,-1.952082634E0,-2.165443182E0,-1.544783115E-1,2.919526388E0
4.333618129E0,-1.746602058E0,-2.369496107E0,-3.443956375E-2,2.943860838E0
4.338622296E0,-1.513955593E0,-2.520156145E0,-4.450464249E-2,2.940277061E0
4.343626463E0,-1.263464451E0,-2.607241631E0,-1.602818966E-1,2.901679104E0
4.348630629E0,-1.028345585E0,-2.716111660E0,-3.766646385E-1,2.928588985E0
4.353634796E0,-7.893466949E-1,-2.822123528E0,-5.361258984E-1,2.979073747E0
4.358638963E0,-4.985170364E-1,-2.848087072E0,-9.259727001E-1,3.036040950E0
4.363643129E0,-1.124620438E-1,-2.803231001E0,-1.487275600E0,3.175333127E0
4.368647296E0,2.543258667E-1,-2.668282747E0,-2.050894499E0,3.374993735E0
4.373651463E0,6.214761734E-1,-2.495534658E0,-2.562487125E0,3.630463625E0
4.378655629E0,1.027643204E0,-2.346465588E0,-3.049739838E0,3.982821159E0
4.383659796E0,1.544922829E0,-2.219979286E0,-3.607546091E0,4.508822837E0
4.388663963E0,2.097082138E0,-2.081660032E0,-4.182162285E0,5.120697546E0
4.393668129E0,2.631742477E0,-1.906898499E0,-4.792151451E0,5.790254388E0
4.398672296E0,3.259087563E0,-1.700459003E0,-5.518038750E0,6.630381905E0
4.403676463E0,3.835744858E0,-1.509818316E0,-6.148777485E0,7.402699137E0
4.408680629E0,4.366359711E0,-1.196363211E0,-6.852885246E0,8.213307388E0
4.413684796E0,4.994226456E0,-4.836447239E-1,-7.405943871E0,8.945625452E0
4.418688963E0,5.431274414E0,-3.824532032E-1,-7.199349880E0,9.026386371E0
4.423693129E0,5.643471718E0,-2.512199879E-1,-7.567108154E0,9.443146209E0
4.428697296E0,5.759731293E0,-1.046323776E-1,-7.209433556E0,9.228292621E0
4.433701515E0,5.970768929E0,4.443837404E-1,-6.689285755E0,8.977421814E0
4.438705733E0,6.094167709E0,1.006038666E0,-6.174333572E0,8.733463742E0
4.443709952E0,5.953052521E0,1.258404255E0,-5.715575695E0,8.348066909E0
4.448714171E0,5.442775726E0,1.373464227E0,-5.464333057E0,7.833846268E0
4.453718390E0,4.602658272E0,1.366065741E0,-5.313058853E0,7.160949180E0
4.458722608E0,3.667922974E0,1.366116405E0,-5.198269367E0,6.507068263E0
4.463726827E0,2.696512222E0,1.230725408E0,-5.028029442E0,5.836689409E0
4.468731046E0,2.334744453E0,8.414657116E-1,-4.719699383E0,5.332415819E0
4.473735265E0,2.227401733E0,1.324598789E-1,-3.774310827E0,4.384550869E0
4.478739483E0,2.507798195E0,-5.934259892E-1,-3.256543398E0,4.152864204E0
4.483743702E0,3.303789139E0,-1.375237226E0,-2.928835869E0,4.624324778E0
4.488747921E0,3.733855247E0,-1.530676603E0,-2.811741352E0,4.918387470E0
4.493752140E0,3.783987045E0,-1.271777630E0,-2.426301003E0,4.671500065E0
4.498756358E0,3.498111725E0,-1.053043842E0,-2.058568239E0,4.193255319E0
4.503760577E0,3.264406204E0,-8.020715714E-1,-1.779418468E0,3.803419088E0
4.508764796E0,3.092584610E0,-8.057889938E-1,-1.468452930E0,3.517062621E0
4.513769015E0,2.920370102E0,-1.006817818E0,-1.077691078E0,3.271645108E0
4.518773233E0,2.761996269E0,-1.309876919E0,-5.736005306E-1,3.110211971E0
4.523777452E0,2.588556290E0,-1.653234720E0,5.193948746E-3,3.071454978E0
4.528781671E0,2.323434830E0,-2.032130957E0,6.343129873E-1,3.151231283E0
4.533785890E0,2.158172607E0,-2.446097851E0,1.098530889E0,3.442074057E0
4.538790108E0,2.025819778E0,-2.799075127E0,1.460318804E0,3.751172930E0
4.543794327E0,1.840356827E0,-3.061998129E0,1.810611725E0,4.005129287E0
4.548798546E0,1.606708527E0,-3.177363634E0,2.101646185E0,4.134497387E0
4.553802765E0,1.301348686E0,-3.178302050E0,2.334168673E0,4.152524017E0
4.558806983E0,8.623180389E-1,-3.160736561E0,2.480101109E0,4.109105683E0
4.563811202E0,3.043661118E-1,-3.124747515E0,2.588255405E0,4.068875988E0
4.568815421E0,-3.387136459E-1,-3.213859320E0,2.678438187E0,4.197338416E0
4.573819640E0,-8.084592819E-1,-3.183840752E0,2.750899076E0,4.284611309E0
4.578823858E0,-1.210018635E0,-2.967801332E0,2.978789330E0,4.375520051E0
4.583828077E0,-1.524366856E0,-2.614177942E0,3.146918297E0,4.365857922E0
4.588832296E0,-1.880596638E0,-2.238311768E0,3.203567028E0,4.336994926E0
4.593836515E0,-2.197072983E0,-1.964517355E0,3.183264256E0,4.338159685E0
4.598840733E0,-2.368542671E0,-1.663029432E0,3.176798344E0,4.297407241E0
4.603844952E0,-2.342816353E0,-1.385666847E0,3.235203266E0,4.227931084E0
4.608849171E0,-2.135013580E0,-1.169910073E0,3.317653894E0,4.115069857E0
4.613853390E0,-1.779378414E0,-9.862066507E-1,3.436007261E0,3.993111193E0
4.618857556E0,-1.381881237E0,-8.099243641E-1,3.611709595E0,3.950951711E0
4.623861723E0,-9.619989395E-1,-6.164687872E-1,3.828945160E0,3.995784874E0
4.628865890E0,-5.675802231E-1,-3.724182844E-1,4.035197735E0,4.091902180E0
4.633870056E0,-2.986469269E-1,-1.499556303E-1,4.279955387E0,4.292982040E0
4.638874223E0,-1.068248749E-1,-2.605545521E-2,4.564916611E0,4.566240697E0
4.643878390E0,-1.220703125E-3,8.498895168E-2,4.819950581E0,4.820699971E0
4.648882556E0,4.243564606E-2,1.635235548E-1,4.998562813E0,5.001416892E0
4.653886723E0,5.776596069E-2,2.141559124E-1,5.101258278E0,5.106078307E0
4.658890890E0,4.960823059E-2,3.517067432E-1,5.037364006E0,5.049870765E0
4.663895056E0,-1.150131226E-3,5.902705193E-1,4.936281204E0,4.971447750E0
4.668899223E0,-1.518459320E-1,8.150640130E-1,4.754952431E0,4.826692361E0
4.673903390E0,-4.310312271E-1,1.069642067E0,4.598441124E0,4.740841997E0
4.678907556E0,-8.050041199E-1,1.273575783E0,4.452005863E0,4.700040757E0
4.683911723E0,-1.211539745E0,1.475427270E0,4.295826435E0,4.700940219E0
4.688915890E0,-1.645876408E0,1.694815636E0,4.105446815E0,4.736665783E0
4.693920056E0,-2.088836670E0,1.855496645E0,3.880752563E0,4.781876921E0
4.698924223E0,-2.435222149E0,1.962420225E0,3.645509720E0,4.803242777E0
4.703928390E0,-2.733036518E0,2.058565140E0,3.394764662E0,4.819917650E0
4.708932556E0,-3.030233383E0,2.076432705E0,3.090347767E0,4.800430861E0
4.713936723E0,-3.188080788E0,2.173302174E0,2.842872620E0,4.792601191E0
4.718940890E0,-3.292992592E0,2.209232807E0,2.552007914E0,4.715639320E0
4.723945056E0,-3.574595928E0,2.135873556E0,2.347332001E0,4.780131737E0
4.728949223E0,-3.807888508E0,2.130522728E0,2.209449291E0,4.890890323E0
4.733953390E0,-3.816139698E0,2.187911987E0,2.051848412E0,4.853860625E0
4.738957556E0,-3.776752949E0,2.206737518E0,1.836216569E0,4.743969287E0
4.743961723E0,-3.708952427E0,2.152826548E0,1.486553669E0,4.538813949E0
4.748965890E0,-3.646234035E0,2.116468430E0,1.204501867E0,4.384664868E0
4.753970056E0,-3.694016933E0,2.034903526E0,1.042250276E0,4.344292705E0
4.758974223E0,-3.751853466E0,1.965518117E0,9.275195599E-1,4.335891884E0
4.763978390E0,-3.786259174E0,1.951519012E0,7.692474127E-1,4.328501655E0
4.768982556E0,-3.849863052E0,1.954840779E0,5.194841623E-1,4.348874773E0
4.773986723E0,-3.894940376E0,1.880146384E0,2.970763445E-1,4.335177657E0
4.778990890E0,-3.931132317E0,1.747187734E0,6.303596497E-2,4.302376064E0
4.783995056E0,-3.915511131E0,1.599255443E0,-1.163051128E-1,4.231119505E0
4.788999223E0,-3.895950317E0,1.498785496E0,-3.368897438E-1,4.187873152E0
4.794003390E0,-3.833986282E0,1.374104500E0,-4.784381390E-1,4.100794684E0
4.799007556E0,-3.662583828E0,1.306487083E0,-6.409342289E-1,3.941094452E0
4.804011723E0,-3.491558552E0,1.099678159E0,-6.651172638E-1,3.720571750E0
4.809015890E0,-3.253786087E0,9.454503059E-1,-7.181136608E-1,3.463623451E0
4.814020056E0,-2.978078842E0,8.578962088E-1,-8.141953945E-1,3.204349175E0
4.819024223E0,-2.717026234E0,8.368197680E-1,-9.624829292E-1,3.001478347E0
4.824028390E0,-2.537656307E0,8.244919777E-1,-1.129578352E0,2.897487499E0
4.829032556E0,-2.401814938E0,7.825282812E-1,-1.292407751E0,2.837495956E0
4.834036723E0,-2.285560608E0,7.686525583E-1,-1.465781331E0,2.821901656E0
4.839040890E0,-2.303419113E0,8.739918470E-1,-1.529375553E0,2.899757049E0
4.844045056E0,-2.268392563E0,1.012724876E0,-1.558729529E0,2.932721303E0
4.849049223E0,-2.041682243E0,1.146710753E0,-1.514883637E0,2.788957578E0
4.854053390E0,-1.786120892E0,1.275797248E0,-1.526763082E0,2.673741192E0
4.859057556E0,-1.468239307E0,1.337702751E0,-1.464819431E0,2.467969060E0
4.864061723E0,-1.145617008E0,1.389760137E0,-1.386874557E0,2.273167966E0
4.869065890E0,-8.898859024E-1,1.188524246E0,-1.421928287E0,2.055812943E0
4.874070056E0,-6.293458939E-1,1.528237224E0,-1.135250807E0,2.005088442E0
4.879074223E0,-3.785333633E-1,1.619060516E0,-1.154635310E0,2.024309058E0
4.884078390E0,-1.756801605E-1,1.533248186E0,-1.331580520E0,2.038337607E0
4.889082556E0,1.275167465E-1,1.515223980E0,-1.585005879E0,2.196453475E0
4.894086723E0,3.681688309E-1,1.540726423E0,-1.748017669E0,2.359015042E0
4.899090890E0,5.127735138E-1,1.547548413E0,-1.902684212E0,2.505603715E0
4.904095056E0,7.910346985E-1,1.516413569E0,-2.239996433E0,2.818302686E0
4.909099223E0,9.780998230E-1,1.351445675E0,-2.625005722E0,3.110263609E0
4.914103390E0,1.346659660E0,1.238961220E0,-3.033395290E0,3.542598500E0
4.919107556E0,1.705109596E0,1.049204111E0,-3.455326080E0,3.993432900E0
4.924111723E0,2.062995911E0,8.726536036E-1,-3.785108566E0,4.398240932E0
4.929115890E0,2.358055115E0,6.563961506E-1,-4.094729424E0,4.770543877E0
4.934120056E0,2.705142021E0,5.580754280E-1,-4.546525478E0,5.319787163E0
4.939124223E0,2.879781723E0,4.245915413E-1,-4.965908051E0,5.756184806E0
4.944128390E0,3.126357079E0,2.753728628E-1,-5.346685410E0,6.199756742E0
4.949132556E0,3.545309067E0,2.676568031E-1,-5.692159653E0,6.711299282E0
4.954136723E0,3.940152168E0,1.038849354E-1,-5.576791286E0,6.829069647E0
4.959140890E0,4.401596069E0,6.600105762E-2,-5.532737255E0,7.070331366E0
4.964145108E0,5.039176941E0,-2.631722689E-1,-5.039955139E0,7.131879955E0
4.969149327E0,5.158617973E0,-9.498680830E-1,-4.452602386E0,6.880352955E0
4.974153546E0,4.880034447E0,-1.513569117E0,-4.271181583E0,6.659475940E0
4.979157765E0,4.654000282E0,-1.919156671E0,-4.130684376E0,6.511945513E0
4.984161983E0,4.208074570E0,-2.141717434E0,-3.787194490E0,6.052907339E0
4.989166202E0,3.581051826E0,-2.137719631E0,-3.345390320E0,5.346532876E0
4.994170421E0,2.917153358E0,-1.548132300E0,-2.931967735E0,4.416212420E0
4.999174640E0,2.197781563E0,-6.795005798E-1,-2.510625124E0,3.405173028E0
5.004178858E0,1.648477554E0,-2.193597555E-1,-2.394382000E0,2.915246492E0
5.009183077E0,1.924601555E0,-3.526449203E-3,-2.457403898E0,3.121367889E0
5.014187296E0,2.503680229E0,-3.473043442E-3,-2.484844685E0,3.527446649E0
5.019191515E0,3.341753006E0,2.438229322E-1,-2.426342726E0,4.136895188E0
5.024195733E0,3.715584755E0,2.059527636E-1,-2.318774700E0,4.384598354E0
5.029199952E0,3.931183815E0,3.176670074E-1,-2.370713234E0,4.601673582E0
5.034204171E0,3.940401077E0,4.058579206E-1,-2.469226360E0,4.667821775E0
5.039208390E0,3.877218246E0,4.463163614E-1,-2.719984293E0,4.757135081E0
5.044212608E0,3.909310341E0,4.004940987E-1,-2.853409290E0,4.856443909E0
5.049216827E0,3.955580711E0,5.359293222E-1,-2.599638462E0,4.763607786E0
5.054221046E0,4.145447731E0,5.895762444E-1,-1.995960593E0,4.638555349E0
5.059225265E0,4.627296448E0,3.462284803E-1,-1.897192478E0,5.013091449E0
5.064229483E0,4.922938347E0,3.841153383E-1,-1.673370600E0,5.213735295E0
5.069233702E0,5.271567345E0,4.338238239E-1,-1.405838132E0,5.473025327E0
5.074237921E0,5.328585625E0,3.316141367E-1,-1.104469895E0,5.451939696E0
5.079242140E0,5.051290512E0,1.023693085E-1,-6.030945778E-1,5.088195985E0
5.084246358E0,4.492759705E0,1.255475283E-1,-3.719532490E-2,4.494667445E0
5.089250577E0,4.050465584E0,3.212952614E-1,5.014294386E-1,4.094011916E0
5.094254796E0,3.753110886E0,4.611058235E-1,9.549536705E-1,3.900050822E0
5.099259015E0,3.796687126E0,5.068249702E-1,1.424215794E0,4.086575010E0
5.104263233E0,3.888933182E0,4.390277863E-1,1.937633872E0,4.367032369E0
5.109267452E0,3.675642967E0,2.472089529E-1,2.480479240E0,4.441198121E0
5.114271671E0,3.157016754E0,7.021701336E-2,2.999289989E0,4.355160807E0
5.119275890E0,2.534213066E0,-7.225382328E-2,3.340270042E0,4.193430628E0
5.124280108E0,1.917429924E0,-2.128167152E-1,3.708947420E0,4.180684087E0
5.129284327E0,1.488230705E0,-2.983728647E-1,4.152207375E0,4.420936901E0
5.134288546E0,1.078857422E0,-3.769232035E-1,4.660018921E0,4.798101789E0
5.139292765E0,6.460180283E-1,-4.767144918E-1,5.212147236E0,5.273620655E0
5.144296983E0,3.043918610E-1,-5.876206160E-1,5.731334686E0,5.769415021E0
5.149301202E0,-5.621051788E-2,-7.718452215E-1,6.198373795E0,6.246498408E0
5.154305421E0,-4.980134964E-1,-1.038778424E0,6.632250786E0,6.731554690E0
5.159309640E0,-9.299993515E-1,-1.273306727E0,6.990077972E0,7.165709935E0
5.164313806E0,-1.094019890E0,-1.355801225E0,7.333779812E0,7.537864605E0
5.169317973E0,-1.086387634E0,-1.320934892E0,7.514668941E0,7.706838287E0
5.174322140E0,-1.204033375E0,-1.533816934E0,7.456768990E0,7.707508970E0
5.179326306E0,-1.308274746E0,-1.784542203E0,7.356485367E0,7.682060312E0
5.184330473E0,-1.409048557E0,-1.839483857E0,7.179747581E0,7.544394875E0
5.189334640E0,-1.544900417E0,-1.871995449E0,6.940752983E0,7.352899852E0
5.194338806E0,-1.735301495E0,-1.930871367E0,6.715486526E0,7.199812137E0
5.199342973E0,-1.946969032E0,-1.954470158E0,6.484329700E0,7.046784634E0
5.204347140E0,-2.256475449E0,-1.919341564E0,6.137301445E0,6.814838407E0
5.209351306E0,-2.491373539E0,-1.911836505E0,5.727787971E0,6.532198403E0
5.214355473E0,-2.689808369E0,-1.831716657E0,5.256675720E0,6.182466708E0
5.219359640E0,-2.856251717E0,-1.736410141E0,4.792117119E0,5.842745975E0
5.224363806E0,-3.033442497E0,-1.606446028E0,4.363642216E0,5.551919993E0
5.229367973E0,-3.201985359E0,-1.413087010E0,3.933702469E0,5.265314829E0
5.234372140E0,-3.438039303E0,-1.285158515E0,3.546344042E0,5.103753787E0
5.239376306E0,-3.664700985E0,-1.169240355E0,3.292855263E0,5.063600705E0
5.244380473E0,-3.857926369E0,-9.738216400E-1,2.981772900E0,4.972212192E0
5.249384640E0,-4.012776375E0,-8.372416496E-1,2.656574249E0,4.884745086E0
5.254388806E0,-4.119588852E0,-7.444698811E-1,2.346028566E0,4.798864214E0
5.259392973E0,-4.187795639E0,-6.802986860E-1,2.045434952E0,4.710015155E0
5.264397140E0,-4.288980484E0,-6.149944067E-1,1.754770756E0,4.674697008E0
5.269401306E0,-4.384708881E0,-5.329601765E-1,1.554841280E0,4.682654154E0
5.274405473E0,-4.465241909E0,-4.095649719E-1,1.350027323E0,4.682809258E0
5.279409640E0,-4.587793827E0,-2.685456276E-1,1.050154448E0,4.714105781E0
5.284413806E0,-4.742362499E0,-1.530551910E-1,7.098076344E-1,4.797630128E0
5.289417973E0,-4.770702839E0,1.845538616E-2,4.455164671E-1,4.791495706E0
5.294422140E0,-4.753781796E0,2.518311739E-1,1.724808216E-1,4.763571132E0
5.299426306E0,-4.518870831E0,5.628323555E-1,-8.856689930E-2,4.554647949E0
5.304430473E0,-4.194651604E0,1.063516378E0,-2.885315418E-1,4.336982778E0
5.309434640E0,-4.044123650E0,1.261904001E0,-7.721877098E-1,4.306229402E0
5.314438806E0,-3.976572037E0,1.219429255E0,-1.487666607E0,4.417384385E0
5.319442973E0,-3.964199066E0,1.014488935E0,-2.187945843E0,4.640169075E0
5.324447140E0,-3.878702164E0,7.116060257E-1,-2.607044220E0,4.727302949E0
5.329451306E0,-3.668291569E0,5.429317951E-1,-2.703394175E0,4.589060692E0
5.334455473E0,-3.510744572E0,4.252095222E-1,-2.607677221E0,4.393871991E0
5.339459640E0,-3.435151577E0,2.093936205E-1,-2.565197468E0,4.292359502E0
5.344463806E0,-3.312375546E0,1.013085842E-1,-2.442256212E0,4.116638263E0
5.349467973E0,-3.104850769E0,1.483383179E-1,-2.265111208E0,3.846144997E0
5.354472140E0,-3.023545265E0,7.241678238E-2,-2.312292099E0,3.807067758E0
5.359476306E0,-2.934267998E0,-1.582884789E-2,-2.215028286E0,3.676483312E0
5.364480473E0,-2.822727203E0,2.293372154E-2,-2.026828766E0,3.475104267E0
5.369484640E0,-2.703344345E0,6.428194046E-2,-1.757551193E0,3.225087443E0
5.374488806E0,-2.533019543E0,7.001876831E-2,-1.445257187E0,2.917166256E0
5.379492973E0,-2.397628307E0,-6.027889252E-2,-1.184404135E0,2.674895923E0
5.384497140E0,-2.297052860E0,-2.739760876E-1,-9.218051434E-1,2.490228797E0
5.389501306E0,-2.106855392E0,-4.948589802E-1,-6.997680664E-1,2.274511025E0
5.394505473E0,-1.875021935E0,-6.945223808E-1,-5.085027218E-1,2.063163496E0
5.399509640E0,-1.697218895E0,-9.212822914E-1,-3.185201883E-1,1.957234822E0
5.404513806E0,-1.492201328E0,-1.194733143E0,-1.871051788E-1,1.920692697E0
5.409517973E0,-1.307948589E0,-1.481827736E0,-1.427893639E-1,1.981648746E0
5.414522140E0,-1.149147511E0,-1.691417217E0,-2.476645708E-1,2.059798520E0
5.419526306E0,-9.964175224E-1,-1.866130590E0,-4.055821896E-1,2.154016753E0
5.424530473E0,-8.494873047E-1,-1.995698214E0,-6.402003765E-1,2.261481055E0
5.429534640E0,-6.841678619E-1,-2.127320528E0,-9.654223919E-1,2.434259371E0
5.434538806E0,-4.333238602E-1,-2.188656092E0,-1.328392506E0,2.596653944E0
5.439542973E0,-1.638793945E-1,-2.217702627E0,-1.714544415E0,2.807975062E0
5.444547140E0,1.529312134E-1,-2.276532888E0,-2.080538750E0,3.087819852E0
5.449551306E0,5.125665665E-1,-2.216456890E0,-2.482812643E0,3.367456644E0
5.454555473E0,9.393558502E-1,-2.089634895E0,-2.867084980E0,3.670032655E0
5.459559692E0,1.304602623E0,-2.034245014E0,-3.312778473E0,4.100566058E0
5.464563910E0,1.699802399E0,-1.886355877E0,-3.808979034E0,4.577771070E0
5.469568129E0,2.034275055E0,-1.760272503E0,-4.283462048E0,5.058149997E0
5.474572348E0,2.441981316E0,-1.502466917E0,-4.775255680E0,5.569896444E0
5.479576567E0,2.817490578E0,-1.189823627E0,-5.279969692E0,6.101804108E0
5.484580785E0,3.189394951E0,-6.413645744E-1,-5.716214180E0,6.577134119E0
5.489585004E0,3.395030022E0,-3.695561886E-1,-6.007469654E0,6.910317812E0
5.494589223E0,3.573163033E0,-7.781434059E-2,-6.092280388E0,7.063244966E0
5.499593442E0,3.718774796E0,2.670834064E-1,-6.000877380E0,7.064782294E0
5.504597660E0,3.960600853E0,8.083547354E-1,-5.687654018E0,6.977765024E0
5.509601879E0,4.230979919E0,1.000532985E0,-5.169989109E0,6.755075478E0
5.514606098E0,4.161128998E0,1.021300435E0,-4.532002926E0,6.236753934E0
5.519610317E0,4.358070374E0,1.400625229E0,-4.158359051E0,6.184373728E0
5.524614535E0,4.386063576E0,1.668218613E0,-3.861521244E0,6.077158328E0
5.529618754E0,4.183113098E0,1.737657189E0,-3.774732828E0,5.896312036E0
5.534622973E0,3.816775322E0,1.666972876E0,-3.868040323E0,5.684039793E0
5.539627192E0,3.474413872E0,1.442778945E0,-4.024541855E0,5.509092482E0
5.544631410E0,3.185227394E0,9.176287651E-1,-4.075190544E0,5.253084244E0
5.549635629E0,3.270096779E0,1.738877296E-1,-3.966074944E0,5.143298586E0
5.554639848E0,3.355847359E0,-5.296866894E-1,-3.734627724E0,5.048734863E0
5.559644067E0,3.691822052E0,-1.135746241E0,-3.741847515E0,5.377814836E0
5.564648285E0,4.325125694E0,-1.300230980E0,-3.286087990E0,5.585309942E0
5.569652504E0,4.708472252E0,-1.525879145E0,-2.867497444E0,5.720188782E0
5.574656723E0,5.367312431E0,-1.712715387E0,-3.125097036E0,6.442644505E0
5.579660942E0,5.559734344E0,-1.752740383E0,-3.148313284E0,6.625301606E0
5.584665160E0,5.157896042E0,-1.867442608E0,-2.426278591E0,5.998171494E0
5.589669379E0,4.593205452E0,-2.157320023E0,-1.441787720E0,5.275444799E0
5.594673598E0,4.272510529E0,-2.516775370E0,-7.113323212E-1,5.009440902E0
5.599677817E0,4.142711639E0,-2.754702330E0,-1.537582874E-1,4.977357357E0
5.604682035E0,4.069464684E0,-2.862028599E0,2.689566612E-1,4.982377765E0
5.609686254E0,3.932893753E0,-2.839718580E0,6.476513147E-1,4.893986832E0
5.614690473E0,3.689743042E0,-2.789120436E0,1.091922164E0,4.752440482E0
5.619694692E0,3.359282494E0,-2.786981583E0,1.568278909E0,4.638053897E0
5.624698910E0,3.056887627E0,-2.889455795E0,1.971992016E0,4.645672101E0
5.629703129E0,2.812024117E0,-3.104560614E0,2.342958450E0,4.799503155E0
5.634707348E0,2.491305351E0,-3.153564453E0,2.639179468E0,4.807997440E0
5.639711567E0,1.927700043E0,-3.245988369E0,2.822351217E0,4.713611603E0
5.644715785E0,1.332024574E0,-3.179693460E0,3.025713205E0,4.586903135E0
5.649720004E0,7.950162888E-1,-2.849390745E0,3.085793018E0,4.274716022E0
5.654724223E0,2.210197449E-1,-2.413388729E0,3.094054222E0,3.930199284E0
5.659728442E0,-4.424772263E-1,-2.015399694E0,3.079542160E0,3.706912723E0
5.664732660E0,-1.066124916E0,-1.679214716E0,3.085682869E0,3.671215489E0
5.669736879E0,-1.659448147E0,-1.399680138E0,3.045596838E0,3.740124696E0
5.674741098E0,-2.131620407E0,-1.095117331E0,3.059527874E0,3.886360552E0
5.679745265E0,-2.406509876E0,-8.179916143E-1,3.136010885E0,4.036702161E0
5.684749431E0,-2.522937298E0,-6.399582624E-1,3.240373611E0,4.156294062E0
5.689753598E0,-2.471865177E0,-5.271084309E-1,3.409519672E0,4.244147164E0
5.694757765E0,-2.397275448E0,-4.645943642E-1,3.603844166E0,4.353213786E0
5.699761931E0,-2.237172127E0,-3.847718239E-1,3.846389771E0,4.466285117E0
5.704766098E0,-2.096929550E0,-2.684202194E-1,4.074780464E0,4.590533606E0
5.709770265E0,-1.866414547E0,-5.361783504E-2,4.318349838E0,4.704734154E0
5.714774431E0,-1.627008915E0,1.442098618E-1,4.534583569E0,4.819792800E0
5.719778598E0,-1.455185413E0,2.764889002E-1,4.729048252E0,4.955593614E0
5.724782765E0,-1.317319393E0,2.759851217E-1,4.892690659E0,5.074437905E0
5.729786931E0,-1.242070675E0,2.239537239E-1,4.987413406E0,5.144627034E0
5.734791098E0,-1.200597286E0,2.590829134E-1,5.056625366E0,5.203654283E0
5.739795265E0,-1.259797573E0,3.095448017E-1,5.066911697E0,5.230344354E0
5.744799431E0,-1.376368999E0,3.658139706E-1,5.033126831E0,5.230733905E0
5.749803598E0,-1.492672443E0,5.334261656E-1,4.970085144E0,5.216738525E0
5.754807765E0,-1.603857517E0,7.645751238E-1,4.877955437E0,5.191472171E0
5.759811931E0,-1.728947163E0,1.040345907E0,4.661343098E0,5.079340250E0
5.764816098E0,-1.906156540E0,1.231758356E0,4.401657581E0,4.952297534E0
5.769820265E0,-2.159286499E0,1.382372499E0,4.084479332E0,4.822493476E0
5.774824431E0,-2.435623646E0,1.535618663E0,3.767068386E0,4.741433480E0
5.779828598E0,-2.711219311E0,1.653387547E0,3.434948444E0,4.677955894E0
5.784832765E0,-2.962101936E0,1.673570037E0,3.121802092E0,4.617416252E0
5.789836931E0,-3.303009033E0,1.634454370E0,2.813536406E0,4.636517752E0
5.794841098E0,-3.351182461E0,1.750896692E0,2.611057997E0,4.594963218E0
5.799845265E0,-3.403774738E0,1.715033174E0,2.351736546E0,4.478580806E0
5.804849431E0,-3.546864986E0,1.631471753E0,2.146236420E0,4.455141084E0
5.809853598E0,-3.608502865E0,1.657468915E0,1.965019464E0,4.430552745E0
5.814857765E0,-3.565194607E0,1.682092667E0,1.726166248E0,4.303451898E0
5.819861931E0,-3.536818981E0,1.743011475E0,1.539512157E0,4.232880247E0
5.824866098E0,-3.518715382E0,1.815935016E0,1.399949789E0,4.199861585E0
5.829870265E0,-3.458276272E0,1.910250783E0,1.278832912E0,4.152607186E0
5.834874431E0,-3.441635609E0,1.930171728E0,1.185825586E0,4.120267089E0
5.839878598E0,-3.478264332E0,1.942982197E0,1.020420671E0,4.112755879E0
5.844882765E0,-3.486711979E0,1.996873498E0,7.683941126E-1,4.090854887E0
5.849886931E0,-3.529158115E0,1.991421342E0,5.685932636E-1,4.091945047E0
5.854891098E0,-3.595889568E0,1.970220566E0,2.774893045E-1,4.109646114E0
5.859895265E0,-3.519541264E0,1.971500397E0,-1.412129402E-2,4.034127406E0
5.864899431E0,-3.434249401E0,1.899561524E0,-3.590588570E-1,3.940980360E0
5.869903598E0,-3.335260868E0,1.826461315E0,-6.188888550E-1,3.852654852E0
5.874907765E0,-3.246410370E0,1.762149096E0,-6.789283752E-1,3.755701461E0
5.879911931E0,-3.048123360E0,1.711623669E0,-7.166287899E-1,3.568510673E0
5.884916098E0,-2.812220097E0,1.588825941E0,-7.892844677E-1,3.325044318E0
5.889920265E0,-2.662997723E0,1.355964422E0,-8.968300819E-1,3.120016119E0
5.894924431E0,-2.475836277E0,1.247888803E0,-1.062782526E0,2.969258903E0
5.899928598E0,-2.408675671E0,1.364882231E0,-1.043554306E0,2.958653001E0
5.904932765E0,-2.360938549E0,1.400499701E0,-1.140672326E0,2.972635800E0
5.909936931E0,-2.303639412E0,1.369414330E0,-1.243013620E0,2.954172136E0
5.914941098E0,-2.179212570E0,1.367647767E0,-1.278207302E0,2.872845584E0
5.919945265E0,-2.083292961E0,1.395336032E0,-1.202983379E0,2.781050380E0
5.924949431E0,-1.900959015E0,1.409672618E0,-1.074564338E0,2.599136507E0
5.929953598E0,-1.766131878E0,1.348583817E0,-9.260512590E-1,2.407378462E0
5.934957765E0,-1.540003300E0,1.355866313E0,-7.955858707E-1,2.200668194E0
5.939961931E0,-1.304088116E0,1.416756868E0,-7.023960352E-1,2.049684373E0
5.944966150E0,-1.067975044E0,1.411456347E0,-6.893193722E-1,1.899458057E0
5.949970369E0,-8.077430725E-1,1.392693162E0,-7.178987265E-1,1.762788046E0
5.954974588E0,-5.951061249E-1,1.360593796E0,-7.639470100E-1,1.670024494E0
5.959978806E0,-3.726444244E-1,1.377346635E0,-7.797158957E-1,1.626008763E0
5.964983025E0,-2.565860748E-2,1.466969013E0,-8.470491171E-1,1.694151309E0
5.969987244E0,2.925748825E-1,1.428410053E0,-9.949089289E-1,1.765162632E0
5.974991463E0,5.915794373E-1,1.333537102E0,-1.185334325E0,1.879708726E0
5.979995681E0,9.095125198E-1,1.349705696E0,-1.375853539E0,2.131171380E0
5.984999900E0,1.217557907E0,1.361602545E0,-1.571376204E0,2.409487896E0
5.990004119E0,1.592081070E0,1.387821555E0,-1.743571043E0,2.738760812E0
5.995008338E0,1.889450073E0,1.332359552E0,-1.921250105E0,3.006061463E0
6.000012556E0,2.219823837E0,1.090062618E0,-2.209162474E0,3.316059893E0
6.005016775E0,2.492272377E0,1.162986398E0,-2.205193996E0,3.525172269E0
6.010020994E0,2.692333221E0,1.105671883E0,-2.427016258E0,3.789667057E0
6.015025213E0,2.944481850E0,1.094842434E0,-2.730135918E0,4.162006181E0
6.020029431E0,3.071901321E0,9.198371172E-1,-3.007680178E0,4.396455175E0
6.025033650E0,3.184837341E0,6.908564568E-1,-3.325941324E0,4.656431813E0
6.030037869E0,3.374253273E0,5.320991278E-1,-3.741347790E0,5.066201527E0
6.035042088E0,3.549255371E0,3.093552589E-1,-4.166834831E0,5.482282999E0
6.040046306E0,3.623829842E0,1.807032824E-1,-4.645242691E0,5.894325751E0
6.045050525E0,3.932792664E0,1.933684349E-1,-5.008953094E0,6.371331147E0
6.050054744E0,4.222139359E0,-8.375549316E-2,-5.211246490E0,6.707500707E0
6.055058963E0,4.625506401E0,-4.499427080E-1,-5.172441483E0,6.953553681E0
6.060063181E0,4.702487946E0,-8.574343920E-1,-5.009369850E0,6.924043104E0
6.065067400E0,4.367552757E0,-1.285827398E0,-4.828144550E0,6.636252631E0
6.070071619E0,3.927701950E0,-1.326999426E0,-4.781228065E0,6.328341955E0
6.075075838E0,3.349869728E0,-1.229322195E0,-4.537614822E0,5.772591145E0
6.080080056E0,2.658326149E0,-8.297426701E-1,-4.283611298E0,5.109255970E0
6.085084275E0,1.978001595E0,-2.908902168E-1,-4.040567398E0,4.508136236E0
6.090088494E0,1.601079941E0,1.965904236E-2,-3.706001759E0,4.037114377E0
6.095092713E0,1.766741753E0,3.088024855E-1,-3.565347195E0,3.991044477E0
6.100096931E0,2.206568718E0,6.532334089E-1,-3.063508987E0,3.831546256E0
6.105101150E0,2.948578835E0,7.173912525E-1,-2.733395338E0,4.084142190E0
6.110105369E0,3.618883133E0,6.541643143E-1,-2.343162537E0,4.360579864E0
6.115109588E0,3.887019157E0,5.828208923E-1,-2.288102388E0,4.547967751E0
6.120113806E0,3.786520958E0,6.794397831E-1,-2.330332279E0,4.497758099E0
6.125118025E0,3.566120148E0,3.649560213E-1,-2.581811666E0,4.417709507E0
6.130122244E0,3.431406021E0,4.393163919E-1,-2.795313835E0,4.447620219E0
6.135126463E0,3.233918190E0,6.861976385E-1,-2.779277325E0,4.318967065E0
6.140130681E0,3.002822876E0,5.030688047E-1,-2.775812149E0,4.120091811E0
6.145134900E0,2.982725143E0,3.597314358E-1,-2.552248001E0,3.942083947E0
6.150139119E0,3.035255432E0,3.375328779E-1,-2.163196325E0,3.742475427E0
6.155143338E0,3.160885811E0,4.026228189E-1,-1.777953148E0,3.648893207E0
6.160147556E0,3.378996849E0,3.393436670E-1,-1.380351782E0,3.665807533E0
6.165151775E0,3.665546417E0,2.904270887E-1,-1.013140321E0,3.814057123E0
6.170155994E0,3.934000015E0,1.879050732E-1,-7.064384222E-1,4.001339736E0
6.175160213E0,4.059563637E0,1.504757404E-1,-3.664983511E-1,4.078850440E0
6.180164431E0,3.922489166E0,1.345652342E-1,-2.377843857E-2,3.924868721E0
6.185168650E0,3.475124359E0,8.331918716E-2,3.585621119E-1,3.494566953E0
6.190172817E0,3.253315926E0,5.922532082E-2,8.749982119E-1,3.369450107E0
6.195176983E0,3.055624008E0,-5.769348145E-2,1.490856886E0,3.400414809E0
6.200181150E0,2.800672531E0,-1.525930166E-1,2.038509369E0,3.467358029E0
6.205185317E0,2.321465492E0,-2.339954376E-1,2.647719622E0,3.529075671E0
6.210189483E0,1.776329994E0,-3.004585505E-1,3.174798250E0,3.650338001E0
6.215193650E0,1.227682114E0,-3.314925432E-1,3.648246765E0,3.863521080E0
6.220197817E0,6.947374344E-1,-4.502913952E-1,4.010297775E0,4.094863940E0
6.225201983E0,2.922258377E-1,-4.266387224E-1,4.346762180E0,4.377414533E0
6.230206150E0,5.813121796E-2,-4.566304684E-1,4.681150436E0,4.703728312E0
6.235210317E0,-1.131620407E-1,-5.550304651E-1,5.099249363E0,5.130614830E0
6.240214483E0,-2.555360794E-1,-7.223781347E-1,5.590735435E0,5.643000227E0
6.245218650E0,-4.506711960E-1,-9.877688885E-1,6.111701965E0,6.207390178E0
6.250222817E0,-6.891670227E-1,-1.269865990E0,6.537187099E0,6.694947796E0
6.255226983E0,-9.424180984E-1,-1.501782060E0,6.838323593E0,7.064429969E0
6.260231150E0,-1.158105373E0,-1.664851546E0,7.076807976E0,7.361667600E0
6.265235317E0,-1.240987301E0,-1.778736949E0,7.208886147E0,7.528080372E0
6.270239483E0,-1.091290951E0,-1.748377562E0,7.271801949E0,7.558230191E0
6.275243650E0,-9.009990692E-1,-1.728145957E0,7.203020096E0,7.462022934E0
6.280247817E0,-7.947988510E-1,-1.843763232E0,7.012299061E0,7.294073361E0
6.285251983E0,-7.057008743E-1,-2.005499601E0,6.786533356E0,7.111756278E0
6.290256150E0,-7.245626450E-1,-2.080501556E0,6.469083309E0,6.833923954E0
6.295260317E0,-8.127498627E-1,-2.031450748E0,6.171370506E0,6.547760564E0
6.300264483E0,-9.317693710E-1,-1.858832479E0,5.908375740E0,6.263573759E0
6.305268650E0,-1.153142452E0,-1.653798699E0,5.584993362E0,5.937755343E0
6.310272817E0,-1.395018101E0,-1.415646076E0,5.269032955E0,5.631415239E0
6.315276983E0,-1.628306866E0,-1.152930260E0,4.970461845E0,5.355942717E0
6.320281150E0,-1.890823364E0,-9.505288601E-1,4.661169052E0,5.119102953E0
6.325285317E0,-2.143844604E0,-7.831804752E-1,4.375179291E0,4.934737599E0
6.330289483E0,-2.372804165E0,-6.356778145E-1,4.083971500E0,4.765827221E0
6.335293650E0,-2.601564884E0,-4.974892139E-1,3.787142754E0,4.621480888E0
6.340297817E0,-2.791822910E0,-3.296958208E-1,3.455697060E0,4.454752144E0
6.345301983E0,-2.996087074E0,-2.418719530E-1,3.085098743E0,4.307304732E0
6.350306150E0,-3.099364281E0,-1.902309656E-1,2.771335125E0,4.162036177E0
6.355310317E0,-3.240278244E0,-9.768545628E-2,2.342553139E0,3.999562570E0
6.360314483E0,-3.475840092E0,1.213681698E-2,1.871743441E0,3.947788641E0
6.365318650E0,-3.738862514E0,1.442728043E-1,1.497995019E0,4.030371772E0
6.370322817E0,-3.928851128E0,2.893599272E-1,1.159053326E0,4.106458932E0
6.375326983E0,-3.964222908E0,4.239548445E-1,8.035197258E-1,4.066994581E0
6.380331150E0,-3.921236992E0,5.775983334E-1,4.614859819E-1,3.990324384E0
6.385335317E0,-3.803952694E0,8.327251673E-1,-1.739192009E-2,3.894071106E0
6.390339483E0,-3.639683247E0,1.129602194E0,-4.659736156E-1,3.839326329E0
6.395343650E0,-3.619313717E0,1.191294193E0,-1.136295080E0,3.976151424E0
6.400347817E0,-3.700138569E0,1.064591527E0,-1.948381901E0,4.315156148E0
6.405351983E0,-3.778013706E0,7.184612751E-1,-2.862581491E0,4.794157586E0
6.410356150E0,-3.767900944E0,4.522421360E-1,-3.561374903E0,5.204324324E0
6.415360317E0,-3.661099911E0,3.788961172E-1,-3.874855995E0,5.344316964E0
6.420364483E0,-3.487256527E0,2.284941673E-1,-3.829321623E0,5.184290864E0
6.425368702E0,-2.988081932E0,5.023293495E-1,-3.156082153E0,4.375136908E0
6.430372921E0,-2.847683907E0,3.289889097E-1,-2.591251135E0,3.864210111E0
6.435377140E0,-3.004945755E0,-1.578373909E-1,-2.737493992E0,4.067982914E0
6.440381358E0,-3.177631378E0,-3.935649395E-1,-2.934695005E0,4.343347708E0
6.445385577E0,-3.203735828E0,-3.072686195E-1,-2.959589005E0,4.372356840E0
6.450389796E0,-3.260641575E0,-9.115862846E-2,-2.793417454E0,4.294563359E0
6.455394015E0,-3.314701557E0,1.016299725E-1,-2.521797895E0,4.166178067E0
6.460398233E0,-3.351276875E0,1.710500717E-1,-2.167806149E0,3.994959113E0
6.465402452E0,-3.303044796E0,1.562576294E-1,-1.768912077E0,3.750142838E0
6.470406671E0,-3.208173275E0,8.632707596E-2,-1.338953018E0,3.477444940E0
6.475410890E0,-3.071504593E0,-6.283807755E-2,-9.494202137E-1,3.215507399E0
6.480415108E0,-2.912253380E0,-2.242856026E-1,-5.858848095E-1,2.979057702E0
6.485419327E0,-2.658659935E0,-2.881910801E-1,-2.718250751E-1,2.688013322E0
6.490423546E0,-2.564227581E0,-5.274841785E-1,1.246190071E-2,2.617949187E0
6.495427765E0,-2.547803402E0,-7.892334461E-1,2.517406940E-1,2.679097793E0
6.500431983E0,-2.523532391E0,-1.002052307E0,4.548066854E-1,2.753029908E0
6.505436202E0,-2.539445400E0,-1.257148981E0,7.264250517E-1,2.925217916E0
6.510440421E0,-2.495020390E0,-1.482235193E0,9.609168768E-1,3.057042551E0
6.515444640E0,-2.342359066E0,-1.657348156E0,1.124473095E0,3.081864476E0
6.520448858E0,-2.033424377E0,-1.748438597E0,1.126871467E0,2.908898680E0
6.525453077E0,-1.740205765E0,-1.874415874E0,9.832234383E-1,2.740160452E0
6.530457296E0,-1.409820080E0,-1.948614836E0,7.131879330E-1,2.508650925E0
6.535461515E0,-1.037367344E0,-2.152441740E0,4.844713211E-1,2.438001007E0
6.540465733E0,-6.898231506E-1,-2.318021536E0,1.436948776E-1,2.422752162E0
6.545469952E0,-2.570028305E-1,-2.344724417E0,-3.326110840E-1,2.382102680E0
6.550474171E0,1.990928650E-1,-2.285210371E0,-9.816408157E-1,2.495083786E0
6.555478390E0,5.883874893E-1,-2.263168097E0,-1.671471119E0,2.874359993E0
6.560482608E0,1.055153847E0,-2.091295481E0,-2.437968493E0,3.380910646E0
6.565486827E0,1.552137375E0,-1.941277981E0,-3.192610502E0,4.046041578E0
6.570491046E0,2.108326912E0,-1.845721483E0,-3.910686493E0,4.810945750E0
6.575495265E0,2.757158279E0,-1.340703726E0,-4.778382778E0,5.677354158E0
6.580499483E0,3.278616905E0,-9.532232285E-1,-5.545967579E0,6.512735195E0
6.585503702E0,3.735305786E0,-4.727234840E-1,-6.054613113E0,7.129818845E0
6.590507921E0,4.132266045E0,-6.668639183E-2,-6.366302013E0,7.590116670E0
6.595512140E0,4.469671249E0,4.857318401E-1,-6.180620193E0,7.642902752E0
6.600516358E0,4.842261314E0,5.774461031E-1,-5.981169701E0,7.717209964E0
6.605520577E0,5.473278999E0,1.187702656E0,-5.820299149E0,8.077332653E0
6.610524796E0,5.744311333E0,1.018062592E0,-5.370851040E0,7.929666135E0
6.615529015E0,5.769920349E0,9.915874004E-1,-5.332982063E0,7.919338615E0
6.620533233E0,5.660262108E0,1.192135334E0,-5.384360313E0,7.902600190E0
6.625537452E0,5.047154427E0,1.617697597E0,-5.428020477E0,7.586443147E0
6.630541671E0,4.147065163E0,1.847859263E0,-5.600911140E0,7.209919481E0
6.635545890E0,3.328930855E0,1.937023520E0,-5.816889763E0,6.976392138E0
6.640550108E0,2.573908806E0,1.552179337E0,-5.736271381E0,6.476038650E0
6.645554327E0,2.570812225E0,6.902912855E-1,-5.574769020E0,6.177671664E0
6.650558546E0,2.912381172E0,-4.996440411E-1,-5.174129486E0,5.958458206E0
6.655562765E0,3.258267403E0,-1.319613457E0,-4.674093723E0,5.848490256E0
6.660566983E0,3.708619118E0,-1.703577518E0,-4.333606720E0,5.952829523E0
6.665571202E0,4.009491920E0,-1.747977972E0,-4.005156517E0,5.930660265E0
6.670575421E0,4.136678696E0,-1.639246702E0,-3.623722076E0,5.738519153E0
6.675579640E0,4.195641518E0,-1.515825748E0,-3.299521208E0,5.548691345E0
6.680583858E0,4.206006050E0,-1.406798840E0,-2.978173494E0,5.342198726E0
6.685588077E0,4.244438171E0,-1.265542746E0,-2.581929684E0,5.126715783E0
6.690592296E0,4.315368652E0,-1.150773287E0,-2.034444094E0,4.907713167E0
6.695596515E0,4.490178108E0,-1.020153284E0,-1.475095510E0,4.835113125E0
6.700600681E0,4.582336426E0,-1.070306301E0,-8.409969807E-1,4.780234159E0
6.705604848E0,4.400562286E0,-1.507021546E0,-1.562290192E-1,4.654080992E0
6.710609015E0,4.031157494E0,-2.320060730E0,2.963581085E-1,4.660551540E0
6.715613181E0,3.866600037E0,-2.446416616E0,1.253134847E0,4.744038053E0
6.720617348E0,3.360971451E0,-2.575781822E0,1.894144893E0,4.638810835E0
6.725621515E0,2.782510757E0,-2.994411469E0,2.372171402E0,4.726104455E0
6.730625681E0,1.996774673E0,-3.314508438E0,2.159008980E0,4.431071547E0
6.735629848E0,1.362054825E0,-3.431477070E0,1.846409440E0,4.127887601E0
6.740634015E0,1.059986115E0,-3.140573502E0,1.946509838E0,3.843913765E0
6.745638181E0,8.315553665E-1,-2.602070332E0,2.003977299E0,3.387946185E0
6.750642348E0,4.094877243E-1,-2.606554508E0,1.863292456E0,3.230118477E0
6.755646515E0,-1.762485504E-1,-2.750277996E0,2.062373161E0,3.442161481E0
6.760650681E0,-2.648420334E-1,-2.776933670E0,2.457205296E0,3.717439949E0
6.765654848E0,6.284523010E-2,-2.556211948E0,2.787209988E0,3.782420992E0
6.770659015E0,4.389476776E-1,-2.154876232E0,3.538577795E0,4.166257247E0
6.775663181E0,1.026556015E0,-1.774503589E0,4.326067924E0,4.787227165E0
6.780667348E0,-4.740247726E-1,-1.912388682E0,5.388173580E0,5.737102447E0
6.785671515E0,-2.100791931E0,-2.819673061E0,6.968151093E0,7.805063264E0
6.790675681E0,-3.584112644E0,-2.890096664E0,5.188045025E0,6.936449622E0
6.795679848E0,-5.558767319E0,-3.287692785E0,5.830055237E0,8.700480562E0
6.800684015E0,-6.347202301E0,-3.612991333E0,5.109631538E0,8.913417856E0
6.805688181E0,-6.826268196E0,-3.637051344E0,4.511058807E0,8.954090212E0
6.810692348E0,-6.825457573E0,-3.314935684E0,4.326117992E0,8.734470021E0
6.815696515E0,-6.317947388E0,-2.952158689E0,3.956854343E0,8.018004516E0
6.820700681E0,-5.591873169E0,-2.677426338E0,3.565354824E0,7.151881735E0
6.825704848E0,-4.561721802E0,-2.440860748E0,3.997648239E0,6.538218292E0
6.830709015E0,-2.716907024E0,-1.819828868E0,5.005548477E0,5.979036414E0
6.835713181E0,-1.191884041E0,-1.401825905E0,4.977698803E0,5.306900113E0
6.840717348E0,2.395315170E-1,-1.054990530E0,5.744476318E0,5.845458796E0
6.845721515E0,1.081204414E0,-9.762957096E-1,5.184965611E0,5.385724156E0
6.850725681E0,2.870767593E0,-1.178878188E0,2.095098019E0,3.744395287E0
6.855729848E0,2.699664116E0,-2.140927315E-2,3.638060093E0,4.530356050E0
6.860734015E0,2.620092392E0,1.086964369E0,4.893194675E0,5.655946412E0
6.865738181E0,3.068240166E0,2.722373486E0,8.164188385E0,9.136705484E0
6.870742348E0,6.398868561E-1,1.655121565E0,6.194700718E0,6.443849747E0
6.875746515E0,7.652730942E-1,2.010006905E0,5.283608437E0,5.704584891E0
6.880750681E0,3.059305191E0,3.485027313E0,6.162203789E0,7.712166956E0
6.885754848E0,-1.141052246E0,3.208160400E-1,2.682911634E0,2.933076541E0
6.890759015E0,-1.045579910E0,1.063250303E0,1.594721913E0,2.183317782E0
6.895763181E0,-1.945430279E0,1.747833252E0,1.072064400E0,2.826471674E0
6.900767348E0,-3.093674183E0,1.852834463E0,1.990168691E-1,3.611567971E0
6.905771515E0,-4.059682369E0,1.789957404E0,-1.870360374E-1,4.440715137E0
6.910775733E0,-4.833910465E0,1.788948774E0,-3.526372910E-1,5.166370211E0
6.915779952E0,-5.120067120E0,1.891854048E0,-5.028541088E-1,5.481519981E0
6.920784171E0,-5.244078636E0,1.819232106E0,-6.420179605E-1,5.587678701E0
6.925788390E0,-5.397326469E0,1.546068192E0,-7.827606201E-1,5.668701267E0
6.930792608E0,-5.254383087E0,1.344646335E0,-7.273170948E-1,5.472257811E0
6.935796827E0,-4.887339115E0,1.290742397E0,-8.055372238E-1,5.118690241E0
6.940801046E0,-4.430232048E0,1.340321660E0,-9.580754042E-1,4.726661256E0
6.945805265E0,-4.036071301E0,1.315160155E0,-1.311633945E0,4.442960880E0
6.950809483E0,-3.804884434E0,1.296276093E0,-1.613567829E0,4.331406054E0
6.955813702E0,-3.659840107E0,1.259942055E0,-1.676103592E0,4.217962404E0
6.960817921E0,-3.562574387E0,1.216681719E0,-1.796741724E0,4.171394430E0
6.965822140E0,-3.335978508E0,1.224519968E0,-2.252129078E0,4.207170919E0
6.970826358E0,-3.061395168E0,1.283248186E0,-2.394384146E0,4.092913598E0
6.975830577E0,-3.178945541E0,1.436177254E0,-2.382716894E0,4.224409977E0
6.980834796E0,-3.453822136E0,1.569826961E0,-2.238276720E0,4.404898036E0
6.985839015E0,-3.713715076E0,1.671312809E0,-2.020867825E0,4.546303217E0
6.990843233E0,-3.858260632E0,1.698874474E0,-1.794739723E0,4.581859912E0
6.995847452E0,-3.930849552E0,1.681568146E0,-1.557721019E0,4.550356514E0
7.000851671E0,-3.974867344E0,1.533211589E0,-1.360457897E0,4.472264959E0
7.005855890E0,-3.870925426E0,1.296810746E0,-1.218952179E0,4.260472531E0
7.010860108E0,-3.576227188E0,1.081660628E0,-1.109612465E0,3.897515932E0
7.015864327E0,-3.253669739E0,7.093288898E-1,-9.795402884E-1,3.471168884E0
7.020868546E0,-2.955875874E0,5.423375964E-1,-8.520704508E-1,3.123676728E0
7.025872765E0,-2.577393532E0,6.088145971E-1,-7.729724646E-1,2.758822043E0
7.030876983E0,-2.295057297E0,7.935216427E-1,-7.349243760E-1,2.537139813E0
7.035881202E0,-2.137263775E0,9.767996073E-1,-7.212815881E-1,2.458105174E0
7.040885421E0,-1.945836544E0,1.135285854E0,-7.483874559E-1,2.373865542E0
7.045889640E0,-1.615485668E0,1.365235806E0,-7.423660159E-1,2.241599886E0
7.050893858E0,-1.318593025E0,1.542104959E0,-9.080349207E-1,2.222904112E0
7.055898077E0,-9.929389954E-1,1.613881350E0,-1.043687940E0,2.163290405E0
7.060902296E0,-4.951133728E-1,1.686744094E0,-1.284749627E0,2.177343449E0
7.065906515E0,-7.881450653E-2,1.507909060E0,-1.594297528E0,2.195856568E0
7.070910733E0,2.847213745E-1,1.293266177E0,-1.940453529E0,2.349247447E0
7.075914952E0,7.916688919E-1,1.100764513E0,-2.185338736E0,2.571794614E0
7.080919171E0,1.255247116E0,8.818793297E-1,-2.406194210E0,2.853616486E0
7.085923390E0,1.823719025E0,6.168472767E-1,-2.606928825E0,3.240760643E0
7.090927608E0,2.372566223E0,3.721706867E-1,-2.609678984E0,3.546548449E0
7.095931827E0,2.777330399E0,4.385139346E-1,-2.152649403E0,3.541152081E0
7.100936046E0,3.387166023E0,2.835623026E-1,-2.226990461E0,4.063592962E0
7.105940265E0,3.886137009E0,2.753939033E-1,-2.008156538E0,4.382989315E0
7.110944483E0,4.145253181E0,3.804536462E-1,-1.778564811E0,4.526716437E0
7.115948702E0,4.456532478E0,4.312163591E-1,-1.533060789E0,4.732536810E0
7.120952921E0,4.542518616E0,3.894893527E-1,-1.385514617E0,4.765063282E0
7.125957140E0,4.604371071E0,3.368813992E-1,-1.299882174E0,4.796187621E0
7.130961358E0,4.723339081E0,1.676332951E-1,-1.261004210E0,4.891642322E0
7.135965577E0,4.650729179E0,-1.031234264E-1,-1.451133490E0,4.872956469E0
7.140969796E0,4.649929047E0,-2.351998091E-1,-1.534911394E0,4.902357808E0
7.145974015E0,4.510365486E0,-5.209963322E-1,-1.523500323E0,4.789142641E0
7.150978233E0,4.361360550E0,-7.496827841E-1,-1.332803607E0,4.621672379E0
7.155982452E0,4.547155380E0,-6.448291540E-1,-1.308731198E0,4.775479456E0
7.160986671E0,4.722841263E0,-4.950314760E-1,-1.557104945E0,4.997485524E0
7.165990890E0,4.701810837E0,-3.681463003E-1,-2.241022348E0,5.221564709E0
7.170995108E0,4.331224442E0,-3.458070755E-1,-2.978139162E0,5.267675063E0
7.175999327E0,3.913027763E0,-2.250349522E-1,-3.689027071E0,5.382503854E0
7.181003546E0,3.806223869E0,-9.123239517E-1,-5.421103477E0,6.686406961E0
7.186007765E0,2.939456940E0,-8.466327190E-2,-4.676135540E0,5.523931440E0
7.191011983E0,2.308414459E0,8.367664218E-1,-4.859875202E0,5.444937313E0
7.196016202E0,2.577562332E0,1.454422235E0,-5.140056610E0,5.931218557E0
7.201020421E0,3.616671562E0,1.050441861E0,-5.714797974E0,6.844169575E0
7.206024640E0,4.755281448E0,7.785197496E-1,-5.397978306E0,7.235811250E0
7.211028858E0,5.620136261E0,5.418971777E-1,-4.874431133E0,7.459199891E0
7.216033025E0,6.221010208E0,2.773729563E-1,-4.571768761E0,7.725216720E0
7.221037192E0,6.543863297E0,2.860342264E-1,-3.973455667E0,7.661090808E0
7.226041358E0,6.507486343E0,2.737784386E-1,-3.531685829E0,7.409125315E0
7.231045525E0,6.571336746E0,2.206098437E-1,-2.801830530E0,7.147124573E0
7.236049692E0,6.314450264E0,-6.001210213E-2,-1.917472124E0,6.599438077E0
7.241053858E0,6.253767014E0,-3.189599514E-2,-9.221284986E-1,6.321466616E0
7.246058025E0,6.159494400E0,-3.476822376E-2,-1.135137677E-1,6.160638398E0
7.251062192E0,5.754285812E0,1.894362569E-1,1.068346620E0,5.855685767E0
7.256066358E0,5.330287933E0,2.774319649E-1,1.837601423E0,5.644972714E0
7.261070525E0,5.313380241E0,3.546597958E-1,2.284274817E0,5.794454642E0
7.266074692E0,5.038497925E0,7.087746859E-1,2.860978365E0,5.837295615E0
7.271078858E0,4.644699097E0,9.904668927E-1,3.413869143E0,5.848825257E0
7.276083025E0,4.251710892E0,1.295646667E0,3.874789953E0,5.896587401E0
7.281087192E0,3.510488510E0,1.490543365E0,4.038340092E0,5.554587275E0
7.286091358E0,2.608150482E0,1.518602967E0,4.092257023E0,5.084798074E0
7.291095525E0,1.702891350E0,1.309416056E0,4.041281223E0,4.576719708E0
7.296099692E0,7.900342941E-1,9.070802927E-1,3.903883934E0,4.085004114E0
7.301103858E0,5.612087250E-2,4.508637190E-1,3.745919704E0,3.773372772E0
7.306108025E0,-5.852928162E-1,-7.894092798E-2,3.484404087E0,3.534101186E0
7.311112192E0,-1.081962585E0,-6.018036008E-1,3.265386820E0,3.492214440E0
7.316116358E0,-1.582562923E0,-1.066000223E0,3.034582138E0,3.584626987E0
7.321120525E0,-2.029908657E0,-1.371736884E0,2.833870411E0,3.746066302E0
7.326124692E0,-2.376525879E0,-1.572461843E0,2.776345968E0,3.978518372E0
7.331128858E0,-2.728020668E0,-1.683165073E0,2.693136454E0,4.186660410E0
7.336133025E0,-3.084489346E0,-1.761284113E0,2.651037693E0,4.432177467E0
7.341137192E0,-3.364619255E0,-1.754132748E0,2.684109926E0,4.647804915E0
7.346141358E0,-3.597177505E0,-1.728720427E0,2.754671097E0,4.849368327E0
7.351145525E0,-3.829950809E0,-1.732882738E0,2.844773769E0,5.075839200E0
7.356149692E0,-4.082029819E0,-1.804829359E0,3.036220551E0,5.398056289E0
7.361153858E0,-4.272128105E0,-1.829662800E0,3.266520023E0,5.680571940E0
7.366158025E0,-4.319072723E0,-1.841353178E0,3.545225620E0,5.883331999E0
7.371162192E0,-4.304432869E0,-1.893157959E0,3.929465294E0,6.128041031E0
7.376166358E0,-4.352661133E0,-1.966077566E0,4.299402714E0,6.426195113E0
7.381170525E0,-4.382407188E0,-1.988279343E0,4.654675484E0,6.695128928E0
7.386174692E0,-4.355408669E0,-1.964478016E0,4.966579437E0,6.891710227E0
7.391178858E0,-4.400741577E0,-1.913795471E0,5.302910805E0,7.151922996E0
7.396183025E0,-4.460849762E0,-1.816696882E0,5.587198257E0,7.376744033E0
7.401187192E0,-4.526024818E0,-1.686876535E0,5.781554699E0,7.533712753E0
7.406191358E0,-4.495665550E0,-1.561781645E0,5.886704445E0,7.569904878E0
7.411195577E0,-4.321873665E0,-1.373756289E0,5.922994614E0,7.459736156E0
7.416199796E0,-4.133769512E0,-1.122796535E0,5.887424946E0,7.280830649E0
7.421204015E0,-4.060348988E0,-8.713436127E-1,5.738785744E0,7.083737390E0
7.426208233E0,-4.039198399E0,-6.436563134E-1,5.469182968E0,6.829449428E0
7.431212452E0,-4.051078320E0,-4.492779970E-1,5.108251572E0,6.535083809E0
7.436216671E0,-4.052965641E0,-2.306700945E-1,4.732139111E0,6.234811925E0
7.441220890E0,-4.150187016E0,-4.501754045E-2,4.282372475E0,5.963622461E0
7.446225108E0,-4.299632072E0,1.991512179E-1,3.801206350E0,5.742444330E0
7.451229327E0,-4.348274231E0,4.780409634E-1,3.345166922E0,5.506918710E0
7.456233546E0,-4.382387161E0,7.724450827E-1,2.837070227E0,5.277400507E0
7.461237765E0,-4.320736885E0,1.029577255E0,2.324390888E0,5.013141685E0
7.466241983E0,-4.278371811E0,1.311342359E0,1.676440001E0,4.778549488E0
7.471246202E0,-4.207542419E0,1.560173035E0,1.030934691E0,4.604386978E0
7.476250421E0,-4.098739147E0,1.670639992E0,4.211779833E-1,4.446132192E0
7.481254640E0,-3.918536663E0,1.776697159E0,-1.769300103E-1,4.306145214E0
7.486258858E0,-3.777005672E0,1.868768215E0,-7.538768649E-1,4.280934106E0
7.491263077E0,-3.592702866E0,1.904463887E0,-1.280520916E0,4.263124487E0
7.496267296E0,-3.245954514E0,1.980651617E0,-1.679235697E0,4.156805752E0
7.501271515E0,-3.061953068E0,1.983576775E0,-1.995862246E0,4.158557384E0
7.506275733E0,-2.887179852E0,1.861207962E0,-2.255222082E0,4.109249227E0
7.511279952E0,-2.731039524E0,1.546745777E0,-2.454589844E0,3.984471192E0
7.516284171E0,-2.564757347E0,1.030370474E0,-2.678394079E0,3.848822990E0
7.521288390E0,-2.445667267E0,4.499114752E-1,-2.919612646E0,3.835081058E0
7.526292608E0,-2.297286034E0,8.114701509E-2,-2.992063999E0,3.773135955E0
7.531296827E0,-2.248931885E0,-3.506967425E-1,-3.122092962E0,3.863696066E0
7.536301046E0,-2.204920769E0,-7.365580201E-1,-3.162780046E0,3.925222406E0
7.541305265E0,-2.184531212E0,-1.047745943E0,-3.203399181E0,4.016430566E0
7.546309483E0,-2.197427750E0,-1.236055851E0,-3.146183491E0,4.031748174E0
7.551313702E0,-2.124174595E0,-1.420910835E0,-3.118084431E0,4.031569896E0
7.556317921E0,-1.969855785E0,-1.644988060E0,-3.068781376E0,4.000467056E0
7.561322140E0,-1.892549038E0,-1.836120605E0,-2.928165913E0,3.940461439E0
7.566326358E0,-1.782270908E0,-1.979328036E0,-2.831326485E0,3.887240503E0
7.571330577E0,-1.615172863E0,-2.122334003E0,-2.711121559E0,3.803059966E0
7.576334796E0,-1.525352001E0,-2.107721567E0,-2.472416639E0,3.589154910E0
7.581339015E0,-1.469654560E0,-2.265848398E0,-2.377788782E0,3.598309740E0
7.586343233E0,-1.404878139E0,-2.433788538E0,-2.325362206E0,3.647508550E0
7.591347452E0,-1.307028770E0,-2.515888453E0,-2.256698132E0,3.623631517E0
7.596351671E0,-1.200020790E0,-2.483840704E0,-2.166402102E0,3.507536544E0
7.601355890E0,-1.055181503E0,-2.390831470E0,-2.068640232E0,3.332979978E0
7.606360108E0,-8.916797638E-1,-2.246449232E0,-1.920315266E0,3.086946335E0
7.611364327E0,-6.951446533E-1,-2.007283449E0,-1.793087721E0,2.779851886E0
7.616368546E0,-4.559068680E-1,-1.696865559E0,-1.638086200E0,2.402192789E0
7.621372765E0,-1.308879852E-1,-1.415374160E0,-1.473880172E0,2.047617747E0
7.626376983E0,2.129821777E-1,-1.262937903E0,-1.399838924E0,1.897346191E0
7.631381202E0,5.137090683E-1,-1.167619348E0,-1.375690579E0,1.876101415E0
7.636385421E0,7.332477570E-1,-1.081591845E0,-1.428506970E0,1.936007582E0
7.641389640E0,1.000974655E0,-9.572021961E-1,-1.527972460E0,2.062252686E0
7.646393858E0,1.297815323E0,-9.428463578E-1,-1.720922470E0,2.352627896E0
7.651398077E0,1.628521919E0,-8.421761394E-1,-2.055445671E0,2.754305938E0
7.656402296E0,1.911767960E0,-7.606443763E-1,-2.402418137E0,3.163075956E0
7.661406515E0,2.176372528E0,-6.644421816E-1,-2.762010574E0,3.578656620E0
7.666410733E0,2.388826370E0,-6.251552701E-1,-3.106667042E0,3.968462000E0
7.671414952E0,2.673528671E0,-5.706516504E-1,-3.561539650E0,4.489762081E0
7.676419171E0,2.925086975E0,-3.908303380E-1,-4.017713547E0,4.985068135E0
7.681423390E0,3.262939453E0,1.631686687E-1,-4.271279335E0,5.377473854E0
7.686427608E0,3.643340111E0,1.051398754E0,-4.493521214E0,5.879719330E0
7.691431827E0,3.674235344E0,6.624524593E-1,-5.357826233E0,6.530325456E0
7.696436046E0,3.906344414E0,7.969762087E-1,-5.699607849E0,6.955589651E0
7.701440265E0,4.090173721E0,9.081993699E-1,-5.929113388E0,7.260078012E0
7.706444483E0,4.201221466E0,9.239296317E-1,-5.973423481E0,7.361093387E0
7.711448702E0,4.253267288E0,1.063390255E0,-5.697088242E0,7.188733956E0
7.716452921E0,4.006907463E0,1.153316140E0,-5.240309238E0,6.696737000E0
7.721457140E0,3.582257271E0,1.030867219E0,-4.592168808E0,5.914665564E0
7.726461358E0,3.156850815E0,7.629278302E-1,-3.721781492E0,4.939577251E0
7.731465577E0,2.721533775E0,1.157693863E-1,-2.823299646E0,3.923158107E0
7.736469796E0,2.563940048E0,-6.603584290E-1,-2.103768349E0,3.381671641E0
7.741474015E0,2.741688728E0,-1.373671532E0,-1.526283145E0,3.425400823E0
7.746478233E0,3.068195343E0,-1.899770856E0,-1.112595201E0,3.776350096E0
7.751482452E0,3.519409180E0,-2.171797752E0,-9.531759024E-1,4.243994669E0
7.756486671E0,4.032857895E0,-2.309275627E0,-9.435108900E-1,4.742036432E0
7.761490890E0,4.546073914E0,-2.407915354E0,-1.056090713E0,5.251682775E0
7.766495108E0,4.920231819E0,-2.501742840E0,-1.057008624E0,5.620023632E0
7.771499327E0,5.169728279E0,-2.634362698E0,-9.086300135E-1,5.872952052E0
7.776503546E0,5.294462204E0,-2.787325144E0,-6.505488157E-1,6.018614895E0
7.781507713E0,5.189049721E0,-2.998653889E0,-1.700150967E-1,5.995587318E0
7.786511879E0,4.910804749E0,-3.124049664E0,6.308186054E-1,5.854367745E0
7.791516046E0,4.545635223E0,-3.612599611E0,1.156179905E0,5.920340151E0
7.796520213E0,4.466169357E0,-3.831850529E0,1.881478906E0,6.178163973E0
7.801524379E0,4.274359703E0,-3.921537876E0,2.429294586E0,6.288885622E0
7.806528546E0,3.960677147E0,-3.690091848E0,2.932228565E0,6.156436118E0
7.811532713E0,3.430494308E0,-3.319376945E0,3.040256023E0,5.659479764E0
7.816536879E0,2.790737152E0,-3.072710037E0,2.924340010E0,5.077551114E0
7.821541046E0,2.076212883E0,-2.687616348E0,2.975085258E0,4.514983263E0
7.826545213E0,1.392832756E0,-2.251120329E0,3.106391430E0,4.081322523E0
7.831549379E0,8.892259598E-1,-1.844512224E0,3.044496775E0,3.669047392E0
7.836553546E0,5.559082031E-1,-1.630239725E0,2.797422409E0,3.285161735E0
7.841557713E0,3.162679672E-1,-1.549580455E0,2.586225748E0,3.031466416E0
7.846561879E0,1.697902679E-1,-1.248133779E0,2.599174500E0,2.888316940E0
7.851566046E0,-2.304840088E-2,-7.748966813E-1,2.582487106E0,2.696337470E0
7.856570213E0,-2.198657990E-1,-2.939884067E-1,2.483808041E0,2.510791217E0
7.861574379E0,-3.687238693E-1,1.169161797E-1,2.423507214E0,2.454182939E0
7.866578546E0,-5.133867264E-1,4.430830181E-1,2.473968029E0,2.565230263E0
7.871582713E0,-6.832799911E-1,7.370205522E-1,2.563683510E0,2.753641948E0
7.876586879E0,-8.693742752E-1,9.131256342E-1,2.703257084E0,2.982818955E0
7.881591046E0,-1.091101646E0,1.025196195E0,2.870896339E0,3.237835053E0
7.886595213E0,-1.271943092E0,1.160542250E0,3.103524208E0,3.549163289E0
7.891599379E0,-1.373436928E0,1.238835335E0,3.348622799E0,3.825482536E0
7.896603546E0,-1.438238144E0,1.313925743E0,3.559629917E0,4.057818991E0
7.901607713E0,-1.499125957E0,1.414998770E0,3.687266827E0,4.224397804E0
7.906611879E0,-1.584042072E0,1.461148262E0,3.850328207E0,4.412388337E0
7.911616046E0,-1.611008167E0,1.485843420E0,3.933336258E0,4.502689430E0
7.916620213E0,-1.603486538E0,1.541548014E0,3.988566160E0,4.566858808E0
7.921624379E0,-1.546828747E0,1.384481072E0,3.838124752E0,4.363561461E0
7.926628546E0,-1.436122894E0,1.536567092E0,3.935121298E0,4.461912933E0
7.931632713E0,-1.391174316E0,1.820463419E0,4.121458530E0,4.715492918E0
7.936636879E0,-1.325930595E0,2.073385239E0,4.072383881E0,4.758290529E0
7.941641046E0,-1.211744308E0,2.199640512E0,3.976428747E0,4.703055202E0
7.946645213E0,-1.067874908E0,2.314196825E0,3.805853367E0,4.580434872E0
7.951649379E0,-1.085752487E0,2.426346540E0,3.541942835E0,4.428473218E0
7.956653598E0,-1.126632690E0,2.516126633E0,3.251252890E0,4.262726804E0
7.961657817E0,-1.410684586E0,2.400688648E0,2.836480618E0,3.974790470E0
7.966662035E0,-1.813456059E0,2.232576847E0,2.338519812E0,3.706979520E0
7.971666254E0,-2.263328075E0,2.044892788E0,1.815842152E0,3.549862421E0
7.976670473E0,-2.755703926E0,1.875633001E0,1.398993731E0,3.615119188E0
7.981674692E0,-3.281129837E0,1.729345441E0,1.004487634E0,3.842582994E0
7.986678910E0,-3.834884167E0,1.615437269E0,7.172529101E-1,4.222608895E0
7.991683129E0,-4.383513451E0,1.524255037E0,4.887809753E-1,4.666631594E0
7.996687348E0,-4.860077381E0,1.388831019E0,2.999134064E-1,5.063511805E0
8.001691567E0,-5.240732193E0,1.223918557E0,1.936530769E-1,5.385234634E0
8.006695785E0,-5.559062004E0,1.024914265E0,1.173620820E-1,5.653971478E0
8.011700004E0,-5.781600952E0,7.588334084E-1,9.528440237E-2,5.831965092E0
8.016704223E0,-5.956256866E0,4.499877095E-1,1.752284467E-1,5.975800349E0
8.021708442E0,-5.968265533E0,1.370965242E-1,2.471291721E-1,5.974952867E0
8.026712660E0,-5.741240501E0,-1.126560569E-1,3.067477942E-1,5.750532853E0
8.031716879E0,-5.256277084E0,-2.277859449E-1,3.552214503E-1,5.273188552E0
8.036721098E0,-4.547161102E0,-2.231286168E-1,3.882337809E-1,4.569155933E0
8.041725317E0,-3.724193096E0,-1.043087840E-1,4.062710106E-1,3.747739408E0
8.046729535E0,-2.911857128E0,1.183994412E-1,3.479680419E-1,2.934963734E0
8.051733754E0,-2.282272339E0,3.871822953E-1,1.714981496E-1,2.321225705E0
8.056737973E0,-1.629504681E0,6.109277010E-1,-3.413472772E-1,1.773424970E0
8.061742192E0,-8.339014053E-1,8.273949027E-1,-1.028930902E0,1.561625013E0
8.066746410E0,-6.897659302E-1,1.351155400E0,-1.113878727E0,1.882053074E0
8.071750629E0,-6.894187927E-1,1.646469116E0,-1.516880512E0,2.342452841E0
8.076754848E0,-6.557016373E-1,1.924442291E0,-1.955544114E0,2.820917502E0
8.081759067E0,-6.890745163E-1,2.070676804E0,-2.320276499E0,3.185311467E0
8.086763285E0,-7.942228317E-1,2.085949898E0,-2.473338604E0,3.331573312E0
8.091767504E0,-9.184970856E-1,2.004239082E0,-2.492962837E0,3.327983609E0
8.096771723E0,-1.176752090E0,2.040874243E0,-2.118194342E0,3.168068880E0
8.101775942E0,-1.468442440E0,1.952459335E0,-1.691006660E0,2.971182287E0
8.106780160E0,-1.673969746E0,1.868736267E0,-1.212435961E0,2.786458488E0
8.111784379E0,-1.860324383E0,1.718680024E0,-7.877295017E-1,2.652392430E0
8.116788598E0,-2.056090832E0,1.565205812E0,-3.725890815E-1,2.610785584E0
8.121792817E0,-2.265872955E0,1.442690372E0,1.552319527E-2,2.686219784E0
8.126797035E0,-2.422572136E0,1.313528061E0,3.733101487E-1,2.780930094E0
8.131801254E0,-2.425718307E0,1.225983262E0,6.307774186E-1,2.790165661E0
8.136805473E0,-2.342393875E0,1.137232184E0,7.367984653E-1,2.706100162E0
8.141809692E0,-2.115274906E0,9.807158709E-1,6.015312076E-1,2.407910161E0
8.146813910E0,-1.801935673E0,8.521425724E-1,3.068915009E-1,2.016755197E0
8.151818129E0,-1.268613815E0,5.261242390E-1,-3.713690639E-1,1.422709636E0
8.156822348E0,-8.551635742E-1,5.471487641E-1,-5.895855427E-1,1.174004949E0
8.161826567E0,-5.663738251E-1,5.837962031E-1,-9.676746726E-1,1.264116920E0
8.166830785E0,-1.954460144E-2,5.825412869E-1,-1.500216722E0,1.609467787E0
8.171835004E0,4.980373383E-1,5.380982161E-1,-2.114493847E0,2.238006950E0
8.176839223E0,1.082043648E0,4.213753343E-1,-2.809911489E0,3.040391127E0
8.181843442E0,1.717996597E0,3.659147620E-1,-3.443382740E0,3.865525917E0
8.186847660E0,2.247937202E0,2.563819885E-1,-4.040124893E0,4.630503487E0
8.191851879E0,2.729286194E0,5.877941847E-2,-4.420063496E0,5.195134209E0
8.196856098E0,3.128544807E0,-1.408880949E-1,-4.599338055E0,5.564310614E0
8.201860317E0,3.560514450E0,-1.947835684E-1,-4.636503696E0,5.849134151E0
8.206864535E0,4.001206398E0,-2.085537314E-1,-4.340551853E0,5.907075223E0
8.211868754E0,4.244939804E0,-3.303271532E-1,-3.932599068E0,5.796030141E0
8.216872973E0,4.320689201E0,-3.775429130E-1,-3.394093275E0,5.507337196E0
8.221877192E0,4.109138489E0,-4.593433738E-1,-3.132534504E0,5.187368107E0
8.226881410E0,4.098550797E0,-4.887098670E-1,-3.041747570E0,5.127297948E0
8.231885629E0,3.891776085E0,-5.037869811E-1,-3.058860779E0,4.975575513E0
8.236889848E0,3.675623894E0,-4.995806217E-1,-3.178269386E0,4.884791510E0
8.241894067E0,3.483649254E0,-4.761743546E-1,-3.484458447E0,4.950151998E0
8.246898285E0,3.330220222E0,-4.575089216E-1,-3.703437328E0,5.001512690E0
8.251902504E0,3.487888336E0,-3.674305081E-1,-3.734236479E0,5.122976899E0
8.256906723E0,3.659690857E0,-1.639848948E-1,-3.834937334E0,5.303486831E0
8.261910942E0,3.926911354E0,1.708821058E-1,-4.180936813E0,5.738472455E0
8.266915160E0,3.916466713E0,5.361605883E-1,-4.617015839E0,6.078076583E0
8.271919379E0,3.839262962E0,8.274735212E-1,-4.950761318E0,6.319390014E0
8.276923598E0,3.599856377E0,9.649740458E-1,-5.015095234E0,6.248305454E0
8.281927817E0,3.346826553E0,1.155982733E0,-4.801154137E0,5.965620261E0
8.286932035E0,3.051641464E0,1.334581017E0,-4.313507557E0,5.449767845E0
