"Time (s)","Linear Acceleration x (m/s^2)","Linear Acceleration y (m/s^2)","Linear Acceleration z (m/s^2)","Absolute acceleration (m/s^2)"
3.216475500E-2,1.896488667E-1,2.180123329E-2,-8.485794067E-3,1.910863551E-1
3.716678600E-2,1.455957890E-1,-9.030866623E-2,-3.813076019E-2,1.755213486E-1
4.216959900E-2,7.957983017E-2,-1.138675213E-1,-1.349821091E-1,1.936980422E-1
4.717324500E-2,4.216027260E-2,-3.254294395E-2,-2.164731026E-1,2.229285444E-1
5.217777600E-2,-3.685760498E-2,-1.850128174E-3,-2.441482544E-1,2.469215992E-1
5.718319200E-2,-1.526544094E-1,-7.151365280E-3,-2.273035049E-2,1.545030083E-1
6.218944200E-2,-2.704520226E-1,1.859951019E-2,1.216554642E-2,2.713636652E-1
6.719642200E-2,-2.754943371E-1,1.635885239E-1,6.631422043E-2,3.271939956E-1
7.210163000E-2,-1.069476604E-1,3.707306385E-1,2.932639122E-1,4.846470165E-1
7.701558800E-2,1.651310921E-1,5.666239262E-1,6.333928108E-1,8.657467321E-1
8.194157800E-2,3.377649784E-1,6.376342773E-1,9.710321426E-1,1.209779349E0
8.688230700E-2,3.565645218E-1,5.787270069E-1,1.269209862E0,1.439776677E0
9.183975500E-2,1.959385872E-1,4.777288437E-1,1.523288727E0,1.608423241E0
9.681517200E-2,-7.137799263E-2,4.127337933E-1,1.579356194E0,1.633955320E0
1.018090260E-1,-2.522437572E-1,3.999030590E-1,1.534201622E0,1.605404618E0
1.068210570E-1,-3.177297115E-1,3.783557415E-1,1.478725433E0,1.559081186E0
1.118502240E-1,-4.206132889E-1,3.624749184E-1,1.440118790E0,1.543452537E0
1.168949110E-1,-5.056517124E-1,3.429329395E-1,1.380671501E0,1.509814707E0
1.219529320E-1,-5.397014618E-1,3.103225231E-1,1.251194954E0,1.397521574E0
1.270216300E-1,-5.097601414E-1,3.283278942E-1,1.137400627E0,1.288927769E0
1.320980360E-1,-5.120775700E-1,3.939242363E-1,1.139630318E0,1.310021757E0
1.371790260E-1,-4.679222107E-1,5.184431076E-1,1.147629738E0,1.343424157E0
1.422613700E-1,-3.054451942E-1,7.274210453E-1,1.124155045E0,1.373376390E0
1.472997030E-1,-1.439857483E-1,9.865660667E-1,1.037567139E0,1.438954505E0
1.523049630E-1,-9.367227554E-2,1.212451935E0,9.862585068E-1,1.565733065E0
1.573102240E-1,-1.310930252E-1,1.389057875E0,9.866752625E-1,1.708857874E0
1.623154840E-1,-1.966366768E-1,1.500917196E0,9.899682999E-1,1.808716575E0
1.673207450E-1,-2.004435062E-1,1.523510456E0,9.860048294E-1,1.825778528E0
1.723260050E-1,-2.366712093E-1,1.400298119E0,1.006804466E0,1.740834086E0
1.773312650E-1,-3.787503242E-1,1.136049271E0,1.111624718E0,1.633942859E0
1.823365260E-1,-5.957407951E-1,8.322777748E-1,1.353648186E0,1.697043547E0
1.873417860E-1,-8.189404011E-1,6.006169319E-1,1.775608063E0,2.045528800E0
1.923470470E-1,-9.287877083E-1,3.915410042E-1,2.265498161E0,2.479603372E0
1.973523070E-1,-7.590279579E-1,1.989727020E-1,2.616955757E0,2.732063508E0
2.023575670E-1,-5.635848045E-1,-4.354572296E-2,2.754932404E0,2.812325836E0
2.073628280E-1,-4.733006954E-1,-2.231466770E-1,2.801630020E0,2.850076974E0
2.123680880E-1,-4.662721157E-1,-3.231952190E-1,2.829338074E0,2.885657424E0
2.173733490E-1,-5.724701881E-1,-4.015636444E-1,2.749465942E0,2.836994615E0
2.223786090E-1,-8.125832081E-1,-5.139403343E-1,2.610707283E0,2.782124845E0
2.273838700E-1,-1.086286068E0,-7.140562534E-1,2.427685738E0,2.753824939E0
2.323891300E-1,-1.393439770E0,-9.373750687E-1,2.298734665E0,2.846845179E0
2.373943900E-1,-1.761934042E0,-1.219850302E0,2.194007874E0,3.066939334E0
2.423996510E-1,-2.111548185E0,-1.512658834E0,2.061120033E0,3.315869159E0
2.474049110E-1,-2.453217745E0,-1.871538401E0,1.895935059E0,3.621533244E0
2.524101720E-1,-2.647508144E0,-2.205545902E0,1.581758499E0,3.791528986E0
2.574154320E-1,-2.512163877E0,-2.421016932E0,1.088859558E0,3.654846846E0
2.624206920E-1,-2.141401768E0,-2.407548904E0,5.289382935E-1,3.265221122E0
2.674259530E-1,-1.734367132E0,-2.231364489E0,6.326293945E-2,2.826839053E0
2.724276720E-1,-1.302933931E0,-2.211133957E0,-3.611660004E-1,2.591754441E0
2.774293900E-1,-1.075395584E0,-2.330739021E0,-7.257528305E-1,2.667496433E0
2.824315260E-1,-1.114020944E0,-2.485460520E0,-1.120470047E0,2.945167191E0
2.874341820E-1,-1.453376293E0,-2.619292259E0,-1.581814766E0,3.387496501E0
2.924374630E-1,-1.534645557E0,-3.033973217E0,-2.244714260E0,4.074171398E0
2.974414220E-1,-1.487672925E0,-3.343095779E0,-2.305589199E0,4.324951061E0
3.024460570E-1,-1.285346985E0,-3.582991600E0,-2.235195637E0,4.414300082E0
3.074513700E-1,-1.863365531E0,-3.808904648E0,-2.317547321E0,4.832278066E0
3.124573590E-1,-2.141874313E0,-3.788510799E0,-1.932818413E0,4.761956181E0
3.174639740E-1,-1.841405392E0,-3.744987011E0,-1.601400375E0,4.469919987E0
3.224711090E-1,-2.260888577E0,-3.507598400E0,-1.134123802E0,4.324476904E0
3.274786610E-1,-2.370759487E0,-3.083395004E0,-8.691310883E-1,3.985375032E0
3.324865260E-1,-1.574957609E0,-2.651494503E0,-1.242309570E0,3.324792872E0
3.374945990E-1,-1.338147879E0,-2.175523281E0,-1.894532204E0,3.180061880E0
3.425027760E-1,-1.403357029E0,-1.951287508E0,-2.287397385E0,3.317999500E0
3.475109010E-1,-1.410521507E0,-2.176996231E0,-2.260660172E0,3.440852790E0
3.525161610E-1,-1.377044201E0,-2.360557795E0,-2.439980507E0,3.663603241E0
3.575214220E-1,-1.438073635E0,-2.384906292E0,-2.822580814E0,3.965198136E0
3.625266820E-1,-1.660489082E0,-2.414431095E0,-3.325326920E0,4.432211708E0
3.675319420E-1,-2.065408468E0,-2.601558208E0,-3.942519188E0,5.155334596E0
3.725372030E-1,-2.514232397E0,-2.955409527E0,-4.592688084E0,6.012370069E0
3.775424630E-1,-2.903521538E0,-3.244189262E0,-5.214282513E0,6.792933344E0
3.825477240E-1,-3.205440044E0,-3.405251741E0,-5.770433426E0,7.427549207E0
3.875529840E-1,-3.429489613E0,-3.382018089E0,-6.257955074E0,7.896926432E0
3.925582450E-1,-3.481538057E0,-3.312468767E0,-6.621479034E0,8.181536603E0
3.975635050E-1,-3.349526405E0,-3.233407259E0,-6.966724873E0,8.379111235E0
4.025687650E-1,-3.045457602E0,-3.276328564E0,-7.137732506E0,8.423560185E0
4.075740260E-1,-2.684365034E0,-3.439097881E0,-7.188591957E0,8.408868188E0
4.125792860E-1,-2.300463200E0,-3.541257381E0,-7.091625214E0,8.253713282E0
4.175845470E-1,-1.828703642E0,-3.551562786E0,-6.809643745E0,7.894871954E0
4.225898070E-1,-1.251775980E0,-3.340317726E0,-6.310575008E0,7.249001487E0
4.275950670E-1,-6.118113995E-1,-3.057971478E0,-5.696209908E0,6.494021101E0
4.326003280E-1,1.450119019E-1,-2.805186987E0,-5.105527878E0,5.827222099E0
4.376055880E-1,1.115235806E0,-2.487578630E0,-4.596019745E0,5.343706190E0
4.426108490E-1,1.907145977E0,-2.035563707E0,-4.168186188E0,5.015426351E0
4.476161090E-1,2.744258404E0,-1.033809185E0,-3.756807804E0,4.765849399E0
4.526213700E-1,3.266393661E0,-4.757965803E-1,-3.696104050E0,4.955491407E0
4.576266300E-1,3.639737606E0,-3.897181153E-2,-3.822584867E0,5.278386469E0
4.626318900E-1,3.886091709E0,3.835202754E-1,-3.997967243E0,5.588607935E0
4.676371510E-1,4.232801437E0,8.458111286E-1,-4.091501236E0,5.947468944E0
4.726388170E-1,4.855162144E0,1.306618333E0,-4.336841106E0,6.639882656E0
4.776404840E-1,5.351032257E0,1.520159841E0,-4.546422958E0,7.184315825E0
4.826425670E-1,5.732921600E0,1.796125174E0,-4.495376587E0,7.503390325E0
4.876451720E-1,6.089557171E0,2.411896229E0,-4.259971142E0,7.813277423E0
4.926484010E-1,6.407177448E0,3.189947367E0,-3.853116751E0,8.128603555E0
4.976523070E-1,6.563690186E0,3.684679985E0,-3.544136524E0,8.319843697E0
5.026569420E-1,6.604732037E0,3.720477819E0,-3.349123240E0,8.287404114E0
5.076623070E-1,6.396052361E0,3.417759418E0,-3.104484558E0,7.888497298E0
5.126683490E-1,5.842494488E0,2.933514118E0,-2.918587685E0,7.159497258E0
5.176750150E-1,4.831137180E0,2.381036758E0,-2.837381601E0,6.087688958E0
5.226822030E-1,3.548579216E0,1.607585788E0,-2.868279457E0,4.837744677E0
5.276898070E-1,2.331999779E0,5.996904373E-1,-2.876875401E0,3.751568160E0
5.326977240E-1,1.606872082E0,-6.740655899E-1,-2.882488728E0,3.368255271E0
5.377058490E-1,1.249629498E0,-1.832336426E0,-2.216810226E0,3.135805836E0
5.427140780E-1,8.500213623E-1,-2.459735870E0,-9.732203484E-1,2.778487847E0
5.477219950E-1,4.169468880E-1,-3.312223196E0,1.496634483E-1,3.341716079E0
5.527272550E-1,-3.431143761E-1,-4.533181190E0,1.319931507E0,4.733886180E0
5.577325150E-1,-1.556331158E0,-6.346629143E0,2.818108082E0,7.116431782E0
5.627377760E-1,-2.439966202E0,-7.000367641E0,5.110889912E0,9.004431013E0
5.677430360E-1,-2.837801695E0,-5.750361443E0,7.343377590E0,9.749100964E0
5.727482970E-1,-2.613703728E0,-3.712936878E0,8.360754967E0,9.514177371E0
5.777535570E-1,-1.720180035E0,-2.256659985E0,7.930889130E0,8.423214115E0
5.827588170E-1,-6.179547310E-1,-2.729320526E-2,6.873764992E0,6.901540272E0
5.877640780E-1,6.808528900E-1,7.655029297E-1,5.369685650E0,5.466541811E0
5.927693380E-1,1.255048275E0,8.540678024E-2,4.379656792E0,4.556735027E0
5.977745990E-1,1.229426861E0,-3.193445206E-1,3.964293003E0,4.162822401E0
6.027798590E-1,9.768052101E-1,1.115202904E-1,3.814765930E0,3.939419284E0
6.077851200E-1,8.524894714E-1,7.522919178E-1,3.630067348E0,3.803954572E0
6.127903800E-1,9.529805183E-1,1.261603117E0,3.385547161E0,3.736541700E0
6.177956400E-1,1.081636906E0,1.462554932E0,3.173173428E0,3.657599612E0
6.228009010E-1,1.057193279E0,1.691292048E0,2.707997322E0,3.363238903E0
6.278061610E-1,8.570432663E-1,1.762881994E0,1.791941166E0,2.655810465E0
6.328114220E-1,7.026653290E-1,1.911311150E0,8.823871613E-1,2.219336833E0
6.378166820E-1,5.911087990E-1,1.989606380E0,1.342043877E-1,2.079892781E0
6.428219420E-1,2.608842850E-1,1.798315525E0,-5.679969788E-1,1.903843456E0
6.478272030E-1,-1.810865402E-1,1.123569250E0,-9.174051285E-1,1.461790807E0
6.528324630E-1,-8.250389099E-1,3.541040421E-2,-7.541632652E-1,1.118349378E0
6.578377240E-1,-1.746502399E0,-1.327585220E0,5.304527283E-2,2.194440008E0
6.628429840E-1,-3.046516180E0,-2.663097382E0,9.686055183E-1,4.160714500E0
6.678482450E-1,-4.454551697E0,-3.653677464E0,1.359553337E0,5.919524905E0
6.728499110E-1,-5.268316269E0,-4.304368973E0,1.309027672E0,6.927936346E0
6.778515780E-1,-4.572271824E0,-4.615517139E0,3.897843361E-1,6.508502126E0
6.828536610E-1,-3.266194582E0,-5.233675957E0,-3.258295059E-1,6.177827768E0
6.878562650E-1,-1.863031387E0,-4.769566536E0,5.767149925E-1,5.152887644E0
6.928594950E-1,-3.574848175E-3,-2.706362724E0,1.300167561E0,3.002473590E0
6.978634010E-1,1.915908813E0,-1.511859417E0,1.486360073E0,2.857567452E0
7.028680360E-1,3.947984219E0,-1.304702282E0,1.922759533E0,4.581029541E0
7.078733490E-1,5.677216053E0,-6.711721420E-1,1.677419662E0,5.957767273E0
7.128793380E-1,7.564252377E0,5.669088364E-1,1.615076065E0,7.755499361E0
7.178859530E-1,8.696445465E0,1.275161266E0,1.585947990E0,8.931373411E0
7.228930880E-1,9.112487793E0,1.063539505E0,1.346969604E0,9.272695248E0
7.279006400E-1,6.737096310E0,-2.024642944E0,1.544711113E0,7.202345324E0
7.329085050E-1,4.438052177E0,-2.156845570E0,2.775209665E0,5.661278886E0
7.379165780E-1,3.402226925E0,-1.037973881E0,4.192656040E0,5.498263589E0
7.429247550E-1,9.821324348E-1,-2.817752361E0,4.728607178E0,5.591425429E0
7.479329320E-1,1.005719662E0,-3.316867828E0,4.118555069E0,5.382896997E0
7.529382970E-1,7.413120270E-1,-2.987137794E0,3.069182396E0,4.346540728E0
7.579435570E-1,-5.200490952E-1,-3.101942539E0,2.689074755E0,4.138069793E0
7.629488170E-1,-5.504374504E-1,-2.625750065E0,2.208546400E0,3.474942013E0
7.679540780E-1,-2.072429657E-1,-2.383628845E0,1.131893158E0,2.646850627E0
7.729593380E-1,-1.161138058E0,-3.953558445E0,1.700834036E0,4.457768767E0
7.779645990E-1,-2.709532499E0,-5.530221939E0,2.818736076E0,6.772753807E0
7.829698590E-1,-3.197157860E0,-6.043649673E0,3.711347818E0,7.779564408E0
7.879751200E-1,-3.084067106E0,-5.547852039E0,4.323004723E0,7.679746220E0
7.929803800E-1,-2.779862165E0,-5.136551857E0,4.882140160E0,7.612298679E0
7.979856400E-1,-2.402873755E0,-5.149957657E0,5.156315804E0,7.673555813E0
8.029909010E-1,-2.198240519E0,-5.467791557E0,5.249892712E0,7.892425443E0
8.079961610E-1,-2.206211567E0,-5.447898388E0,5.409955978E0,7.988403471E0
8.130014220E-1,-2.063878536E0,-5.014853477E0,5.766627312E0,7.915954811E0
8.180066820E-1,-1.567941904E0,-4.578875542E0,6.405866623E0,8.028677988E0
8.230119420E-1,-1.091479778E0,-4.357021332E0,6.920578957E0,8.250416722E0
8.280172030E-1,-1.319050074E0,-4.311935425E0,6.978302002E0,8.308392085E0
8.330224630E-1,-2.001044273E0,-4.614295006E0,6.601396561E0,8.299056159E0
8.380277240E-1,-2.725630999E0,-4.823722839E0,6.134732246E0,8.266335712E0
8.430329840E-1,-3.188724518E0,-4.831165314E0,5.664319038E0,8.098927862E0
8.480382450E-1,-3.532638073E0,-4.248308182E0,5.118874550E0,7.531967261E0
8.530435050E-1,-3.923249722E0,-3.941230774E0,4.389121056E0,7.084459897E0
8.580487650E-1,-4.476790905E0,-4.037412643E0,3.508697748E0,6.975193012E0
8.630540260E-1,-5.183115482E0,-4.353397369E0,2.781980515E0,7.318208137E0
8.680592860E-1,-5.818597794E0,-4.733498573E0,2.659179926E0,7.958223854E0
8.730645470E-1,-6.024641037E0,-4.973553658E0,2.520205498E0,8.208774047E0
8.780698070E-1,-5.435631752E0,-4.807249069E0,2.594473362E0,7.706297956E0
8.830750670E-1,-4.979974270E0,-4.081018448E0,3.029454231E0,7.115648125E0
8.880803280E-1,-4.813351631E0,-2.918821335E0,3.110236168E0,6.431286102E0
8.930855880E-1,-4.547795296E0,-2.195560455E0,2.861261368E0,5.804286724E0
8.980908490E-1,-4.309792519E0,-1.980906487E0,2.766321659E0,5.490977835E0
9.030961090E-1,-4.308816433E0,-1.486679077E0,2.994911671E0,5.453953579E0
9.081013700E-1,-4.246771336E0,-9.569435120E-1,3.177343369E0,5.389463660E0
9.131066300E-1,-4.263707161E0,-5.148296356E-1,3.341159105E0,5.441285921E0
9.181118900E-1,-4.257760048E0,4.975032806E-2,3.423204899E0,5.463453807E0
9.231171510E-1,-3.882059097E0,6.832962036E-1,3.271549225E0,5.122529733E0
9.281224110E-1,-3.221469879E0,1.099157333E0,3.017559052E0,4.548810576E0
9.331276720E-1,-2.384175301E0,1.621816158E0,2.972379208E0,4.141209687E0
9.381329320E-1,-1.678477049E0,1.883270741E0,3.035566807E0,3.946981090E0
9.431381920E-1,-1.248755217E0,1.836427212E0,3.171997070E0,3.872133767E0
9.481434530E-1,-1.113871574E0,1.911108494E0,3.351792336E0,4.015913024E0
9.531487130E-1,-1.115024090E0,1.902005672E0,3.227179766E0,3.908400381E0
9.581539740E-1,-8.227095604E-1,2.033591747E0,3.038241148E0,3.747433213E0
9.631592340E-1,-8.004531860E-1,2.176825523E0,2.795827866E0,3.632622760E0
9.681644950E-1,-1.026901960E0,2.041754246E0,2.445020914E0,3.346851551E0
9.731697550E-1,-1.016994953E0,1.806880474E0,2.611356258E0,3.334408087E0
9.781750150E-1,-7.234098911E-1,1.620506287E0,2.749065161E0,3.272112735E0
9.831802760E-1,-5.418615341E-1,1.382673264E0,2.954499245E0,3.306730268E0
9.881855360E-1,6.334781647E-4,1.198696136E0,3.176075459E0,3.394750086E0
9.931907970E-1,5.877072811E-1,1.115933418E0,3.481188536E0,3.702618109E0
9.981960570E-1,1.251627564E0,1.247833252E0,3.816509247E0,4.205877104E0
1.003201317E0,1.771170259E0,1.511716843E0,4.194878578E0,4.797847245E0
1.008206578E0,2.189087391E0,1.649164200E0,4.523864269E0,5.289347227E0
1.013211838E0,2.829076529E0,1.650825500E0,4.673313141E0,5.706904113E0
1.018217099E0,3.821863413E0,1.888721943E0,4.038306713E0,5.872123264E0
1.023222359E0,4.704462051E0,2.385727882E0,2.758628130E0,5.952620421E0
1.028227620E0,5.494107723E0,2.969552517E0,1.273508549E0,6.373796816E0
1.033232880E0,6.556215763E0,3.865199566E0,-1.181180477E0,7.701877702E0
1.038238140E0,6.090324879E0,4.095236301E0,-3.572889566E-1,7.347834572E0
1.043243401E0,6.087308884E0,3.876416683E0,5.674600601E-1,7.239057029E0
1.048248661E0,6.734934330E0,3.600929260E0,1.039228320E0,7.707530569E0
1.053253922E0,6.802906513E0,3.244724274E0,1.395197511E0,7.665138533E0
1.058259182E0,6.909614563E0,3.355749130E0,1.566798925E0,7.839558948E0
1.063264442E0,7.185440063E0,3.641028404E0,1.568809628E0,8.206631489E0
1.068269703E0,7.399932384E0,3.422970772E0,1.398028255E0,8.272255509E0
1.073274963E0,7.769015312E0,3.175797462E0,1.118998289E0,8.467316317E0
1.078280224E0,7.888433933E0,3.109528065E0,7.007257938E-1,8.508088583E0
1.083285484E0,7.755517006E0,3.009182453E0,2.461293936E-1,8.322487774E0
1.088290745E0,7.611650467E0,3.008835316E0,-2.185685635E-1,8.187678853E0
1.093296005E0,7.423151016E0,2.827199459E0,-5.442924500E-1,7.961939592E0
1.098301265E0,6.985642910E0,2.503561020E0,-7.592142820E-1,7.459452458E0
1.103306526E0,6.558245182E0,2.491490364E0,-1.116316080E0,7.103820500E0
1.108311786E0,6.332946301E0,2.536949158E0,-1.500768065E0,6.985314929E0
1.113317047E0,6.205272198E0,2.253701210E0,-1.926096678E0,6.877093907E0
1.118322307E0,6.014266491E0,1.914936543E0,-2.334569693E0,6.729680456E0
1.123327567E0,5.927503109E0,1.773395061E0,-2.345377684E0,6.616722726E0
1.128332828E0,5.768487453E0,1.761065006E0,-2.033944607E0,6.365039522E0
1.133338088E0,5.641963959E0,1.748451710E0,-1.989445686E0,6.232714885E0
1.138343349E0,5.541793823E0,1.654451847E0,-1.868299484E0,6.077765433E0
1.143348609E0,5.475474834E0,1.517661095E0,-1.666219234E0,5.921182855E0
1.148353870E0,5.112938881E0,1.238218307E0,-1.188455343E0,5.393306470E0
1.153359130E0,4.708348274E0,8.976297379E-1,-4.142416716E-1,4.811016398E0
1.158364390E0,4.467428684E0,4.101762772E-1,3.432352543E-1,4.499330402E0
1.163369651E0,4.261005402E0,-8.533763885E-2,1.220715404E0,4.433237603E0
1.168374911E0,4.047052383E0,-6.033115387E-1,1.982451916E0,4.546727769E0
1.173380172E0,3.807622671E0,-1.000766754E0,2.665533066E0,4.754428570E0
1.178385432E0,3.434152365E0,-1.178221703E0,3.226223469E0,4.856966823E0
1.183390692E0,3.052437544E0,-1.313039780E0,3.684624195E0,4.961643264E0
1.188395953E0,2.864409208E0,-1.367212296E0,3.971340418E0,5.083862143E0
1.193401213E0,2.603226900E0,-1.522133827E0,4.084666252E0,5.077221688E0
1.198406474E0,2.428352594E0,-1.715321541E0,4.032504082E0,5.010021305E0
1.203411734E0,2.431073427E0,-1.798765182E0,3.707479000E0,4.784461801E0
1.208416995E0,2.396208525E0,-1.730056763E0,3.306569576E0,4.434897300E0
1.213422255E0,2.447317600E0,-1.457407951E0,3.149528265E0,4.246519712E0
1.218427515E0,2.583416462E0,-1.291588783E0,3.064043045E0,4.210772136E0
1.223432776E0,2.731071234E0,-1.227304459E0,2.854302645E0,4.136673773E0
1.228438036E0,2.822074890E0,-1.135296822E0,2.611312866E0,4.008984964E0
1.233443297E0,2.979040146E0,-1.063263893E0,2.454040527E0,4.003439172E0
1.238448557E0,3.161944628E0,-1.058712006E0,2.371960878E0,4.092061015E0
1.243453817E0,3.283445358E0,-1.035465240E0,2.521223545E0,4.267290692E0
1.248459078E0,3.276458263E0,-1.131975174E0,2.699371576E0,4.393535416E0
1.253464338E0,3.255552292E0,-1.157040596E0,2.872194052E0,4.492979227E0
1.258469599E0,3.330366135E0,-1.253930092E0,2.887642860E0,4.582811425E0
1.263474859E0,3.505872250E0,-1.412851334E0,2.698968410E0,4.644536533E0
1.268480120E0,3.648704767E0,-1.562010765E0,2.402960062E0,4.639735032E0
1.273485380E0,3.621361256E0,-1.591711998E0,2.110607147E0,4.483577473E0
1.278490640E0,3.482182026E0,-1.492768288E0,1.818223596E0,4.202366698E0
1.283495901E0,3.269756794E0,-1.346494675E0,1.555898309E0,3.863311656E0
1.288501161E0,2.893501759E0,-1.300704956E0,1.362587452E0,3.452655554E0
1.293506422E0,2.611675739E0,-1.402479172E0,1.014883757E0,3.133334810E0
1.298511682E0,2.147015810E0,-1.612875938E0,6.428067684E-1,2.761203763E0
1.303516942E0,1.710567236E0,-1.969565392E0,3.565919399E-1,2.632942444E0
1.308522203E0,1.350234270E0,-2.405047417E0,1.185318232E-1,2.760694741E0
1.313527463E0,1.027917743E0,-2.770891190E0,-3.230335712E-1,2.973012539E0
1.318532724E0,7.677076459E-1,-3.028949738E0,-1.004230738E0,3.282132069E0
1.323537984E0,5.886493921E-1,-3.322214127E0,-1.940751553E0,3.892316970E0
1.328543245E0,3.331500292E-1,-3.468564987E0,-2.942118645E0,4.560481787E0
1.333548505E0,-2.130190134E-1,-3.696972847E0,-3.570940971E0,5.144376031E0
1.338554390E0,-1.004307151E0,-4.159954071E0,-4.066078186E0,5.903121424E0
1.343560172E0,-1.875776649E0,-4.604509354E0,-4.366799831E0,6.617324625E0
1.348565432E0,-2.601762295E0,-5.165299416E0,-4.676780224E0,7.437859797E0
1.353570692E0,-3.320896626E0,-5.523170471E0,-4.993959427E0,8.153121930E0
1.358575953E0,-3.924140453E0,-5.474461555E0,-5.221029758E0,8.522192169E0
1.363581213E0,-4.246304035E0,-5.059301376E0,-5.442122459E0,8.558289855E0
1.368586474E0,-4.390213966E0,-4.579779625E0,-5.692647934E0,8.523766807E0
1.373591734E0,-4.301360130E0,-4.203007698E0,-6.140825272E0,8.595156060E0
1.378596995E0,-4.377632618E0,-3.728187561E0,-6.405193806E0,8.607529118E0
1.383602255E0,-4.412239075E0,-3.170175552E0,-6.376685143E0,8.377349228E0
1.388607515E0,-4.270759583E0,-2.853982925E0,-6.105216980E0,7.978613935E0
1.393612776E0,-3.971904993E0,-2.435573578E0,-5.389126778E0,7.123955036E0
1.398618036E0,-3.411161423E0,-1.953594208E0,-4.400329590E0,5.900462107E0
1.403623297E0,-2.952417612E0,-1.140949249E0,-3.352660656E0,4.610734043E0
1.408628557E0,-2.181499481E0,-6.138429642E-1,-2.539253712E0,3.403461853E0
1.413633817E0,-1.327869654E0,-9.675674438E-1,-2.041858196E0,2.620803211E0
1.418639078E0,-1.053128958E0,-1.574148178E0,-1.846352100E0,2.645002678E0
1.423644338E0,-1.167397976E0,-1.826921463E0,-1.441022277E0,2.603268190E0
1.428649599E0,-1.091956139E0,-1.760385513E0,-1.273178339E0,2.431523894E0
1.433654859E0,-9.092378616E-1,-1.728502274E0,-1.401365399E0,2.403800861E0
1.438660120E0,-7.636303902E-1,-1.697484016E0,-1.526232719E0,2.407066612E0
1.443665380E0,-7.754650116E-1,-1.399799347E0,-1.517020106E0,2.205024761E0
1.448670640E0,-7.157750130E-1,-9.602394104E-1,-1.439084053E0,1.872259733E0
1.453675901E0,-6.762156487E-1,-4.983520508E-1,-1.314603567E0,1.560065674E0
1.458681161E0,-7.999811172E-1,1.242609024E-1,-1.022963643E0,1.304555547E0
1.463686422E0,-9.575979710E-1,4.966945648E-1,-7.642104030E-1,1.322012445E0
1.468691682E0,-1.043859243E0,6.579971313E-1,-5.232655406E-1,1.340301895E0
1.473696942E0,-1.230057001E0,8.950300217E-1,-3.525374830E-1,1.561538230E0
1.478702203E0,-1.362394571E0,1.221652031E0,-2.186801583E-1,1.842925301E0
1.483707463E0,-1.426957846E0,1.384680748E0,-2.496451139E-3,1.988355024E0
1.488712724E0,-1.457716703E0,1.566085815E0,1.474072039E-1,2.144595918E0
1.493717984E0,-1.364517689E0,1.632270813E0,2.830786705E-1,2.146240915E0
1.498723245E0,-1.386243105E0,1.507181168E0,2.645216584E-1,2.064760695E0
1.503728505E0,-1.259758949E0,1.706744194E0,3.866960406E-1,2.156270433E0
1.508733765E0,-1.066369772E0,1.910024166E0,6.821649075E-1,2.291437489E0
1.513739026E0,-7.915492058E-1,2.140726566E0,9.925453663E-1,2.488856501E0
1.518744286E0,-4.068253040E-1,2.498918533E0,1.140709281E0,2.776926057E0
1.523749547E0,-2.755126953E-1,2.564232826E0,1.250894666E0,2.866345181E0
1.528754807E0,-8.653473854E-2,2.652590275E0,1.161002159E0,2.896834383E0
1.533760067E0,-2.115702629E-2,2.510869980E0,1.034676909E0,2.715782020E0
1.538765328E0,-7.452726364E-3,2.440502167E0,8.342477083E-1,2.579161803E0
1.543770588E0,-1.587510109E-2,2.264380455E0,5.599836111E-1,2.332649247E0
1.548775849E0,5.498480797E-2,2.187689781E0,1.507232487E-1,2.193564999E0
1.553781109E0,1.626513004E-1,2.238485336E0,-3.539171219E-1,2.272120018E0
1.558786370E0,1.690139771E-1,2.592813015E0,-7.136285305E-1,2.694533491E0
1.563791630E0,3.558795452E-1,2.968115807E0,-7.943269610E-1,3.093107986E0
1.568796890E0,8.309655190E-1,3.355278969E0,-8.635836840E-1,3.562888917E0
1.573802151E0,1.377148151E0,3.659334660E0,-7.346614599E-1,3.978315553E0
1.578807411E0,1.935015202E0,3.986283302E0,-5.130749941E-1,4.460715676E0
1.583812672E0,2.460046768E0,4.312744617E0,-1.857448220E-1,4.968510579E0
1.588817932E0,3.041587114E0,4.515195370E0,1.985376477E-1,5.447720496E0
1.593823192E0,3.577975988E0,4.713907242E0,5.485075116E-1,5.943373970E0
1.598828453E0,3.829703331E0,4.785242081E0,1.007023573E0,6.211220963E0
1.603833713E0,3.940420628E0,4.767994881E0,1.315222740E0,6.323804295E0
1.608838974E0,4.158112526E0,4.748709679E0,1.397207975E0,6.464699028E0
1.613844234E0,4.167667389E0,4.651038170E0,1.359415531E0,6.391370597E0
1.618849495E0,4.027952194E0,4.403337955E0,1.298219442E0,6.107303640E0
1.623854755E0,3.760131598E0,3.972133636E0,1.367454290E0,5.637939916E0
1.628860015E0,3.380196571E0,3.367092609E0,1.505238295E0,5.002877554E0
1.633865276E0,2.822686434E0,2.755372047E0,1.706162214E0,4.297746308E0
1.638870536E0,2.185424805E0,2.074112415E0,1.916718364E0,3.570970901E0
1.643875797E0,1.523306847E0,1.575508118E0,2.149948120E0,3.070010830E0
1.648881057E0,1.147955179E0,1.239202023E0,2.475929499E0,2.997273699E0
1.653886317E0,6.684548855E-1,8.921651840E-1,2.722080231E0,2.941515159E0
1.658891578E0,6.588127613E-1,6.963424683E-1,2.969879150E0,3.120754597E0
1.663896838E0,7.962591648E-1,7.234497070E-1,3.267214298E0,3.439781593E0
1.668902099E0,8.077309132E-1,5.911054611E-1,2.936521530E0,3.102417379E0
1.673907359E0,1.418545961E0,7.438554764E-1,2.441568375E0,2.920077010E0
1.678912620E0,1.646090508E0,1.162866116E0,2.052061558E0,2.876252457E0
1.683917880E0,1.653436422E0,1.274685383E0,1.792024255E0,2.751367979E0
1.688923140E0,1.803525448E0,1.405120850E0,1.627761960E0,2.806541937E0
1.693928401E0,2.008563995E0,1.540435791E0,1.411025524E0,2.897975980E0
1.698933661E0,2.143353224E0,1.599859238E0,1.199132562E0,2.931114382E0
1.703938922E0,2.111860037E0,1.560156822E0,1.126030564E0,2.856919137E0
1.708944182E0,1.995687008E0,1.321570396E0,1.049047112E0,2.613391435E0
1.713949442E0,1.628094912E0,1.114033222E0,9.932218790E-1,2.208676699E0
1.718954703E0,1.154424429E0,8.033890724E-1,1.012159824E0,1.732800414E0
1.723959963E0,9.434592724E-1,4.755563736E-1,1.229919910E0,1.621410574E0
1.728965224E0,1.118341446E0,1.306676865E-1,1.664733171E0,2.009750772E0
1.733970484E0,2.332891703E0,4.818382263E-1,2.162304878E0,3.217159331E0
1.738875692E0,4.931678772E-1,-6.506729126E-1,3.127271414E0,3.232091628E0
1.743788870E0,6.761243343E-1,-1.258652687E0,3.195953369E0,3.500781147E0
1.748713401E0,1.529080868E-1,-1.863682747E0,3.625122547E0,4.078995924E0
1.753652047E0,-1.576919556E-1,-2.303848267E0,3.972715616E0,4.595111855E0
1.758606942E0,1.790046692E-3,-2.536823273E0,4.162640095E0,4.874735693E0
1.763579442E0,3.151962757E-1,-2.548855782E0,4.239431381E0,4.956691732E0
1.768570120E0,5.589010715E-1,-2.603433609E0,4.353118896E0,5.102928678E0
1.773578870E0,1.122068405E0,-2.567433357E0,3.927302361E0,4.824360619E0
1.778604807E0,1.632002592E0,-2.417165756E0,3.480691195E0,4.541071894E0
1.783646422E0,1.894298553E0,-2.162697792E0,3.076721191E0,4.210919382E0
1.788701630E0,1.896385908E0,-2.024110794E0,2.931224346E0,4.035514860E0
1.793767880E0,1.939621210E0,-1.852668762E0,2.294784546E0,3.529950154E0
1.798842307E0,1.798210621E0,-1.838828087E0,1.808696270E0,3.144237963E0
1.803921838E0,1.638837814E0,-1.881464958E0,1.290873289E0,2.809279911E0
1.809003297E0,1.360801220E0,-1.970670700E0,8.367729187E-1,2.536831072E0
1.814054963E0,1.283783197E0,-2.000964165E0,3.747358322E-1,2.406737175E0
1.819060224E0,9.966325760E-1,-1.805220604E0,3.639597893E-1,2.093935206E0
1.824065484E0,1.053039074E0,-1.718219757E0,3.915867805E-1,2.052927332E0
1.829070745E0,1.097241640E0,-1.744190216E0,2.507443428E-1,2.075815852E0
1.834076005E0,8.180432320E-1,-1.868398666E0,1.653752327E-1,2.046327753E0
1.839081265E0,6.072671413E-1,-2.104701042E0,1.107978821E-2,2.190584995E0
1.844086526E0,4.200389385E-1,-2.552801132E0,3.260195255E-1,2.607587978E0
1.849091786E0,1.009609699E-1,-2.939914703E0,1.104799986E0,3.142272202E0
1.854097047E0,-6.979703903E-2,-2.965709686E0,1.639662504E0,3.389513047E0
1.859102307E0,-8.091461658E-1,-3.452855110E0,2.245355129E0,4.197445126E0
1.864107567E0,-1.613612652E0,-4.210021973E0,2.489631176E0,5.150368355E0
1.869112828E0,-2.645022392E0,-5.270935059E0,2.805404186E0,6.530634923E0
1.874118088E0,-3.693685293E0,-5.939167023E0,2.524464130E0,7.435720215E0
1.879123349E0,-4.292751789E0,-6.656384468E0,2.891433239E0,8.431818208E0
1.884128609E0,-4.879186630E0,-6.731151581E0,2.673936605E0,8.732972045E0
1.889133870E0,-5.255594730E0,-6.962947845E0,2.644248247E0,9.115698956E0
1.894139130E0,-5.703498840E0,-6.840438843E0,1.680733204E0,9.063463283E0
1.899144390E0,-6.040216446E0,-6.631545067E0,8.205235004E-1,9.007489301E0
1.904149651E0,-6.337886333E0,-6.131281853E0,3.825213909E-1,8.826536294E0
1.909154911E0,-6.519600868E0,-5.522069931E0,-1.499722004E-1,8.545229281E0
1.914160172E0,-6.327275753E0,-4.531086922E0,-1.632788897E0,7.951802734E0
1.919165432E0,-6.810847282E0,-3.712225914E0,-3.322962046E0,8.438621848E0
1.924170692E0,-7.254370689E0,-2.891587257E0,-5.643293381E0,9.635036645E0
1.929175953E0,-7.997585297E0,-2.378321648E0,-7.620538235E0,1.130001714E1
1.934181213E0,-8.715452194E0,-1.430859566E0,-8.778220177E0,1.245245420E1
1.939182672E0,-8.701915741E0,-2.178516388E-1,-9.717698097E0,1.304624288E1
1.944184130E0,-7.905612469E0,2.328472137E-1,-9.464775085E0,1.233429746E1
1.949186005E0,-6.657806396E0,6.872072220E-1,-8.867166519E0,1.110969315E1
1.954188453E0,-5.527380943E0,1.671279907E0,-1.274198723E1,1.398940153E1
1.959191526E0,-4.372669697E0,1.939198494E0,-1.202839184E1,1.294461051E1
1.964195276E0,-4.255520821E0,3.137636662E0,-4.872467518E0,7.189934700E0
1.969199755E0,-2.592458487E0,4.559451103E0,-4.524088383E0,6.926529511E0
1.974204963E0,-2.281966686E0,3.811947823E0,-3.298342466E0,5.533297496E0
1.979210901E0,-1.576293945E0,2.992091179E0,-2.433960438E0,4.166710410E0
1.984217515E0,-2.451765537E-1,2.549690247E0,-1.519111395E0,2.978041525E0
1.989224703E0,8.078093529E-1,2.126111507E0,-6.178057194E-1,2.356817770E0
1.994232359E0,1.612662077E0,1.597256660E0,4.703593254E-2,2.270268749E0
1.999240380E0,2.160326004E0,1.030276775E0,4.715039730E-1,2.439425070E0
2.004248609E0,2.522885799E0,5.206947327E-1,6.082949638E-1,2.646903573E0
2.009256942E0,2.481414557E0,2.791423798E-1,3.220384121E-1,2.517746494E0
2.014265276E0,2.058167934E0,1.384849548E-1,1.530191898E-1,2.068489353E0
2.019270640E0,1.862803221E0,-5.394840240E-2,-1.300413609E-1,1.868115902E0
2.024275901E0,1.361495256E0,-1.973962784E-1,1.535763741E-1,1.384276102E0
2.029281161E0,1.191192865E0,-3.117876053E-1,8.483083248E-1,1.495252142E0
2.034286422E0,1.422461748E0,-5.508613586E-1,1.807295561E0,2.364986872E0
2.039291682E0,1.492219210E0,-4.233579636E-1,2.718177080E0,3.129606489E0
2.044296942E0,1.931306839E0,-7.354164124E-2,2.735716820E0,3.349552358E0
2.049302203E0,2.198508978E0,1.880741119E-1,2.436062574E0,3.286824374E0
2.054307463E0,2.230780840E0,4.243555069E-1,1.571685314E0,2.761639998E0
2.059312724E0,2.514827967E0,8.174166679E-1,6.553311348E-1,2.724332690E0
2.064317984E0,9.711687565E-1,4.153891563E0,-1.513844109E1,1.572801266E1
2.069323245E0,3.475975990E-1,4.503166199E0,-1.480942345E1,1.548284059E1
2.074328505E0,3.753520727E0,4.321083069E0,-4.889430523E0,7.527762455E0
2.079333765E0,3.840620041E0,4.745525360E0,-3.989132166E0,7.292705169E0
2.084339026E0,3.990012646E0,4.626727581E0,-3.100937366E0,6.851468571E0
2.089344286E0,4.881042480E0,4.907234192E0,-2.099239349E0,7.232726246E0
2.094349547E0,4.349322319E0,4.776021957E0,-3.395135403E0,7.297529361E0
2.099354755E0,3.701170921E0,3.925975323E0,-3.596241713E0,6.484204105E0
2.104359963E0,2.571338177E0,3.132797241E0,-3.323544025E0,5.241387551E0
2.109365172E0,1.350973129E0,2.103777885E0,-2.960223198E0,3.874781435E0
2.114370380E0,7.283174992E-1,8.184523582E-1,-2.114613056E0,2.381574903E0
2.119375588E0,4.804134369E-2,1.986379623E-1,-1.481864333E0,1.495890007E0
2.124380797E0,1.770973206E-2,5.669593811E-2,-1.533339500E0,1.534489520E0
2.129386005E0,2.248299122E-1,2.245149612E-1,-1.679359794E0,1.709153233E0
2.134391213E0,1.075761318E0,4.286861420E-1,-1.255805492E0,1.708239344E0
2.139392880E0,1.896090984E0,5.926733017E-1,-2.586059570E-1,2.003322167E0
2.144394547E0,2.427764893E0,7.632079124E-1,3.907859325E-1,2.574731508E0
2.149396630E0,2.890527010E0,4.518136978E-1,1.936675787E0,3.508560263E0
2.154399234E0,2.981163502E0,6.224117279E-1,1.647727728E0,3.462620229E0
2.159402463E0,3.572704554E0,9.340472221E-1,-1.145799160E-1,3.694562301E0
2.164406370E0,2.711659908E0,9.973587990E-1,-3.396780491E-1,2.909158849E0
2.169410953E0,2.139509201E0,1.015090942E-1,-1.787915230E-1,2.149365052E0
2.174416213E0,2.077508688E0,-3.904037476E-1,1.136476994E-1,2.116925420E0
2.179422151E0,1.948548317E0,-1.512209892E0,1.453515768E0,2.862922875E0
2.184428713E0,1.682410479E0,-1.870721817E0,2.828572989E0,3.785621519E0
2.189435797E0,1.928301334E0,-2.324539185E0,4.731274128E0,5.613090355E0
2.194443349E0,2.711905956E0,-2.814444542E0,8.923737526E0,9.742105698E0
2.199451213E0,2.955158710E0,-2.908437729E0,1.362322426E1,1.424023217E1
2.204459286E0,3.227942467E0,-2.020062447E0,1.177401543E1,1.237447793E1
2.209467463E0,4.641955376E0,-7.585744858E-1,1.192914009E1,1.282293134E1
2.214475640E0,5.354207993E0,6.676068306E-1,1.140213966E0,5.514828193E0
2.219480953E0,5.283975601E0,2.047524452E0,-5.716742516E0,8.049465791E0
2.224486213E0,4.930944443E0,3.543611050E0,-5.819640160E0,8.410683917E0
2.229491474E0,3.745585918E0,4.029793739E0,-2.267684460E0,5.950717962E0
2.234496734E0,4.063050270E0,3.654444695E0,8.837213516E-1,5.535730029E0
2.239501995E0,4.783627033E0,2.509520054E0,2.406431198E0,5.913686634E0
2.244507255E0,4.734257698E0,2.272593021E0,3.041821957E0,6.068818321E0
2.249512515E0,4.266309261E0,1.986182213E0,3.089165211E0,5.629321113E0
2.254517776E0,3.973628998E0,1.924250603E0,1.974344254E0,4.836372920E0
2.259523036E0,3.470604420E0,1.620209694E0,4.886455536E-1,3.861210816E0
2.264528297E0,3.438680172E0,1.773760796E0,-7.983553410E-1,3.950711320E0
2.269533557E0,3.528016090E0,1.945165634E0,-1.747150660E0,4.391252931E0
2.274538765E0,3.790406227E0,2.320353985E0,-2.197316170E0,4.957763642E0
2.279543974E0,3.679498672E0,2.444615841E0,-2.343006134E0,5.000453463E0
2.284549182E0,3.396250248E0,2.255221844E0,-2.397890091E0,4.729737646E0
2.289554390E0,3.113738537E0,2.115032673E0,-2.415916920E0,4.472738026E0
2.294559599E0,2.760961771E0,2.009861946E0,-2.386419296E0,4.166227550E0
2.299564807E0,2.119488239E0,1.758442879E0,-2.269365788E0,3.568525302E0
2.304570015E0,1.392460585E0,1.146205425E0,-1.747629881E0,2.511362888E0
2.309575224E0,8.214910030E-1,2.215352058E-1,-9.778466225E-1,1.296190315E0
2.314580432E0,2.973084450E-1,-6.949634552E-1,7.340669632E-2,7.594439140E-1
2.319585640E0,-3.331594467E-1,-1.747300148E0,1.246628284E0,2.172126862E0
2.324590849E0,-1.528270483E0,-3.012556076E0,2.348845959E0,4.114387211E0
2.329596057E0,-2.792076826E0,-5.003277779E0,3.694318295E0,6.817365268E0
2.334601265E0,-4.199648380E0,-7.026890755E0,5.217948914E0,9.707792286E0
2.339603036E0,-5.137525558E0,-8.239307404E0,6.950793266E0,1.194126804E1
2.344604807E0,-4.057144165E0,-7.781405449E0,6.678059578E0,1.102756407E1
2.349606995E0,-3.194221020E0,-6.752586365E0,5.967572212E0,9.560982619E0
2.354609703E0,-3.050929308E0,-6.496098518E0,5.688887119E0,9.158105823E0
2.359613036E0,-2.930957556E0,-5.882751465E0,5.353240490E0,8.476701053E0
2.364617047E0,-2.573195457E0,-5.333662033E0,4.513787746E0,7.446043605E0
2.369621734E0,-2.183943748E0,-4.919685364E0,3.316025257E0,6.322099167E0
2.374627099E0,-1.837698698E0,-4.352787018E0,2.019049168E0,5.138136906E0
2.379633088E0,-1.544822454E0,-3.976126671E0,9.322366714E-1,4.366362895E0
2.384639651E0,-1.381100178E0,-3.784344673E0,-7.619094849E-2,4.029206791E0
2.389646734E0,-1.234291315E0,-3.423669815E0,-1.256937504E0,3.850309331E0
2.394654234E0,-9.868373871E-1,-2.975443840E0,-2.338023186E0,3.910686192E0
2.399662047E0,-8.321330547E-1,-2.492072105E0,-3.009845257E0,3.995251841E0
2.404670067E0,-9.959337711E-1,-1.763694763E0,-3.532898664E0,4.072330570E0
2.409678192E0,-1.654788494E0,-1.547671318E0,-3.921067953E0,4.528618483E0
2.414685953E0,-2.244822025E0,-1.520161629E0,-4.438136101E0,5.200689315E0
2.419691213E0,-2.896494627E0,-1.413356781E0,-4.550663948E0,5.576360900E0
2.424696474E0,-3.457944632E0,-1.408516884E0,-4.537292957E0,5.876081030E0
2.429701734E0,-4.398040771E0,-1.687054634E0,-4.432718277E0,6.468222885E0
2.434706995E0,-5.258649826E0,-2.024061203E0,-4.808129787E0,7.407316235E0
2.439712255E0,-5.110137939E0,-2.666546822E0,-5.050119400E0,7.663399224E0
2.444717463E0,-5.175826550E0,-3.482481003E0,-3.952459335E0,7.385038199E0
2.449722672E0,-6.395606995E0,-4.389086723E0,-2.475042343E0,8.142094675E0
2.454727880E0,-7.836536884E0,-6.062720299E0,-1.705810547E0,1.005373947E1
2.459733088E0,-7.522014141E0,-6.465434074E0,-2.170123100E0,1.015342153E1
2.464738297E0,-5.892253399E0,-5.447098732E0,-2.672664165E0,8.457698768E0
2.469743505E0,-3.935152531E0,-4.007369995E0,-3.214461327E0,6.471259641E0
2.474748713E0,-2.112354755E0,-2.819601059E0,-3.407811403E0,4.901568250E0
2.479753922E0,-5.355463028E-1,-1.768001556E0,-3.569737673E0,4.019411200E0
2.484759130E0,9.080979824E-1,-5.797948837E-1,-4.128151894E0,4.266432012E0
2.489764338E0,2.100917101E0,6.928267479E-1,-4.559103966E0,5.067473783E0
2.494769547E0,3.045863390E0,1.907729149E0,-4.465983391E0,5.732514452E0
2.499774755E0,3.183629990E0,2.535421848E0,-3.977929115E0,5.691026613E0
2.504779963E0,3.361536026E0,3.136357307E0,-3.664343119E0,5.879121712E0
2.509785172E0,3.129467010E0,3.510218143E0,-3.917025566E0,6.120317350E0
2.514790380E0,3.233913898E0,3.638970852E0,-3.782080650E0,6.164774287E0
2.519795588E0,2.483949900E0,3.547423840E0,-3.082702637E0,5.315757570E0
2.524800797E0,1.487289190E0,2.689457417E0,-1.953088045E0,3.641395782E0
2.529806005E0,7.732830048E-1,1.594501972E0,-4.249701500E-1,1.822361867E0
2.534811213E0,-1.285552979E-3,5.478425026E-1,3.126666546E-1,6.307879970E-1
2.539816422E0,-6.526842117E-1,-4.323482513E-1,1.026360512E0,1.290866992E0
2.544821630E0,-9.418206215E-1,-1.723327637E0,2.439251661E0,3.131586322E0
2.549826838E0,-2.201165199E0,-2.995229721E0,4.259127617E0,5.653025506E0
2.554832047E0,-2.897716999E0,-3.754426003E0,5.083353043E0,6.952190775E0
2.559837255E0,-2.383189678E0,-3.362263680E0,3.821698666E0,5.620479587E0
2.564842463E0,-1.802886486E0,-2.020239830E0,3.482413292E0,4.411232366E0
2.569847672E0,-6.026916504E-1,-9.721012115E-1,3.950643778E0,4.112882718E0
2.574852880E0,5.865139961E-1,-1.188090324E0,6.251141071E0,6.390017369E0
2.579858088E0,8.169031143E-2,-1.394809723E0,9.811117172E0,9.910105329E0
2.584863349E0,-8.619246483E-1,-9.159526825E-1,7.500501633E0,7.605222427E0
2.589868609E0,4.055588245E-1,-3.181047440E-1,8.647635460E0,8.662982606E0
2.594873870E0,4.624919891E-1,1.258822918E0,9.487504959E0,9.581820512E0
2.599879130E0,2.481237411E0,3.446023464E0,7.485984802E0,8.606485070E0
2.604884390E0,2.097433090E0,3.517378330E0,2.560707092E0,4.829947898E0
2.609889651E0,4.900112152E-1,4.063518047E0,-4.707670212E-2,4.093226860E0
2.614894911E0,-9.558629990E-2,4.581702232E0,-2.112195730E0,5.046038336E0
2.619900172E0,-7.722823620E-1,4.296844482E0,-2.786908627E0,5.179396900E0
2.624905432E0,-1.363005877E0,3.488907814E0,-2.479004860E0,4.491739958E0
2.629910692E0,-1.287503242E0,3.254639149E0,-2.290510893E0,4.182915340E0
2.634915953E0,-4.660415649E-2,3.812179804E0,-3.279754639E0,5.029083146E0
2.639921213E0,1.387256622E0,5.210497379E0,-5.032179832E0,7.375404921E0
2.644926474E0,2.658721924E0,6.796736240E0,-6.278580189E0,9.627304658E0
2.649931734E0,4.194281101E0,8.344713211E0,-7.557284355E0,1.201410751E1
2.654936995E0,5.851430893E0,1.020667076E1,-8.698694229E0,1.463156358E1
2.659942255E0,7.465779781E0,1.188227558E1,-9.653541565E0,1.703282729E1
2.664947515E0,8.833864212E0,1.332983780E1,-1.039489555E1,1.907290188E1
2.669952776E0,9.894706726E0,1.461773205E1,-1.142272949E1,2.102527195E1
2.674958036E0,1.000159645E1,1.502071953E1,-1.230195618E1,2.184014818E1
2.679963297E0,9.031911850E0,1.422334671E1,-1.261945915E1,2.105064780E1
2.684968557E0,7.844336033E0,1.270232677E1,-1.249033165E1,1.946512517E1
2.689973817E0,6.011457443E0,1.076219749E1,-1.245745564E1,1.752571586E1
2.694979078E0,5.687136650E0,9.315334320E0,-1.179430676E1,1.606936989E1
2.699984338E0,6.715875626E0,8.424178123E0,-1.076125908E1,1.522742458E1
2.704989599E0,7.707112312E0,7.735579967E0,-9.762132645E0,1.464711615E1
2.709994859E0,8.230318069E0,7.087645531E0,-8.638942719E0,1.387819102E1
2.715000120E0,7.680903912E0,6.163253307E0,-7.188723564E0,1.219260935E1
2.720005380E0,7.100088120E0,4.529094219E0,-5.820086479E0,1.023705780E1
2.725010640E0,8.952867508E0,2.174848557E0,-4.281391144E0,1.015943468E1
2.730015901E0,9.082828522E0,-1.917972565E-1,-1.991170406E0,9.300501047E0
2.735021161E0,7.861946106E0,-2.693894386E0,9.531695843E-1,8.365153662E0
2.740026422E0,5.809187412E0,-5.450590134E0,4.548099518E0,9.172829466E0
2.745031682E0,-3.117921352E-1,-1.056657696E1,9.674908638E0,1.433016469E1
2.750036942E0,-7.892436504E0,-1.640941238E1,1.788285065E1,2.552167150E1
2.755042203E0,-1.372641087E1,-2.043569565E1,2.582491493E1,3.567854037E1
2.760047463E0,-1.570716476E1,-1.947587585E1,2.491193771E1,3.530763948E1
2.765052724E0,-1.382036209E1,-1.410052967E1,1.424469948E1,2.434622781E1
2.770057984E0,-1.100372124E1,-1.027915573E1,7.731820583E0,1.692701903E1
2.775063245E0,-8.446134567E0,-7.967415810E0,7.355060101E0,1.374459213E1
2.780068505E0,-6.810826778E0,-6.441973686E0,7.373500824E0,1.192706589E1
2.785073765E0,-5.042574883E0,-5.474927902E0,6.842209339E0,1.011030294E1
2.790079026E0,-2.512895584E0,-4.220343590E0,5.499027729E0,7.373279474E0
2.795084286E0,1.038537025E0,-3.437922478E0,5.087116241E0,6.227087744E0
2.800089547E0,3.006269455E0,-3.316775322E0,5.571347237E0,7.146926934E0
2.805094963E0,1.280743837E0,1.445337296E0,2.381636381E0,3.066185990E0
2.810100380E0,3.108435154E0,2.171853542E0,1.290562391E0,4.005604599E0
2.815105797E0,3.646201134E0,1.999248981E0,8.838462830E-1,4.251230816E0
2.820111213E0,2.656395912E0,1.609118462E0,5.734767914E-1,3.158255388E0
2.825116630E0,2.005752087E0,8.771944046E-1,9.450526237E-1,2.384457154E0
2.830121890E0,1.527984619E0,1.094255447E-1,1.667302132E0,2.264201260E0
2.835127151E0,1.183514595E0,-4.037256241E-1,1.961363792E0,2.326080201E0
2.840132411E0,1.005064249E0,-7.449216843E-1,1.610987663E0,2.039692063E0
2.845137672E0,7.957427502E-1,-1.073012352E0,1.165952921E0,1.773135146E0
2.850142932E0,6.686699390E-1,-1.269302368E0,9.734020233E-1,1.733712631E0
2.855148140E0,1.060047388E0,-1.157587051E0,7.577457428E-1,1.742953487E0
2.860153349E0,1.939068794E0,-5.707521439E-1,2.054698467E-1,2.031739072E0
2.865158557E0,2.746928215E0,4.159927368E-2,-2.147712708E-1,2.755625486E0
2.870163765E0,2.997693777E0,3.256349564E-1,-3.674975634E-1,3.037640625E0
2.875168974E0,2.637941837E0,1.855945587E-1,-5.442692041E-1,2.699891006E0
2.880174182E0,1.988433361E0,-1.444015503E-1,-7.867695689E-1,2.143297785E0
2.885179390E0,1.437197447E0,-8.894224167E-1,-1.479035378E0,2.245919496E0
2.890184599E0,8.425896168E-1,-1.934998512E0,-2.529076099E0,3.293994903E0
2.895189807E0,5.615391731E-1,-2.483809471E0,-3.047628164E0,3.971482489E0
2.900195015E0,8.007113934E-1,-2.374995232E0,-3.035260201E0,3.936311163E0
2.905200224E0,8.694384098E-1,-2.068248749E0,-2.944960356E0,3.702211168E0
2.910205432E0,7.839972973E-1,-2.127281189E0,-2.990016460E0,3.752355987E0
2.915210640E0,8.045606613E-1,-2.661043167E0,-3.239125967E0,4.268536708E0
2.920215849E0,1.190603018E0,-2.869945526E0,-3.880784750E0,4.971379401E0
2.925221057E0,8.361186981E-1,-2.170086861E0,-4.824287415E0,5.355569112E0
2.930226265E0,-3.384158611E0,-7.086878777E0,-8.724407196E0,1.173846929E1
2.935231474E0,-6.927969456E0,-6.546305656E0,-1.572866631E1,1.839135183E1
2.940236682E0,-7.336884975E0,-5.108701706E0,-1.975516701E1,2.168398805E1
2.945241890E0,-5.172101021E0,-1.851235390E0,-1.915126610E1,1.992357133E1
2.950247099E0,-3.156071424E0,1.092120171E0,-1.372445011E1,1.412494404E1
2.955252307E0,-2.133594513E0,9.329414368E-1,-7.327199459E0,7.688332536E0
2.960257515E0,-3.670239449E-2,-1.527175903E0,-3.549529314E0,3.864294458E0
2.965262724E0,-5.401730537E-1,-4.956151009E0,-1.874463797E0,5.326240163E0
2.970267932E0,-5.891061783E0,-6.624855042E0,1.422301292E0,8.978655479E0
2.975273140E0,-6.745627403E0,-8.223533630E0,4.013426304E0,1.136827098E1
2.980278349E0,-7.884237766E0,-7.719440460E0,5.453982353E0,1.230840728E1
2.985283557E0,-3.739438534E0,-3.051095963E0,-3.265509367E0,5.827189592E0
2.990288765E0,3.395535946E-1,-1.273965836E-1,-6.058200359E0,6.069045899E0
2.995293974E0,1.991389990E0,1.041908264E0,-5.852478027E0,6.269187027E0
3.000299182E0,1.783768773E0,1.277185440E0,-4.411621571E0,4.927011119E0
3.005301213E0,8.451250792E-1,3.738470078E-1,-2.333310127E0,2.509648209E0
3.010303245E0,-8.551490307E-2,-6.434240341E-1,-4.034882784E-1,7.642709448E-1
3.015305692E0,-6.759065390E-1,-1.712551117E0,1.012995124E0,2.101390040E0
3.020308661E0,-1.073015690E0,-2.250362396E0,2.015592575E0,3.205948692E0
3.025312203E0,-7.803092003E-1,-2.334047318E0,2.972100496E0,3.858761549E0
3.030316370E0,-9.873299599E-1,-2.159777641E0,3.614585161E0,4.324891420E0
3.035321161E0,-8.426992893E-1,-1.589273453E0,3.484632969E0,3.921555703E0
3.040326578E0,-2.332137823E-1,-1.158456802E0,3.281781197E0,3.488050839E0
3.045332620E0,3.604407310E-1,-6.134462357E-1,2.839444160E0,2.927230251E0
3.050339182E0,1.237668395E0,3.182802200E-1,2.168688297E0,2.517207637E0
3.055346213E0,1.503175020E0,8.235044479E-1,1.332590818E0,2.171058038E0
3.060353609E0,2.352931976E0,1.878159046E0,5.802390575E-1,3.066014946E0
3.065361265E0,2.536672592E0,2.764564991E0,1.217499971E-1,3.753977956E0
3.070369078E0,2.504005671E0,3.440237045E0,-2.308349609E-1,4.261286203E0
3.075376942E0,2.603739738E0,3.915320873E0,-5.985863209E-1,4.739989847E0
3.080384390E0,2.352248907E0,4.242860794E0,-8.290815353E-1,4.921617501E0
3.085389599E0,2.381182671E0,4.796003819E0,-9.662197828E-1,5.441071972E0
3.090394807E0,2.479938507E0,5.277884483E0,-1.167946935E0,5.947290111E0
3.095400015E0,2.553385258E0,5.315436363E0,-1.332884669E0,6.045677923E0
3.100405224E0,2.469542980E0,4.994968891E0,-1.522630930E0,5.776396948E0
3.105410432E0,2.273482561E0,4.699142933E0,-1.383198380E0,5.400361564E0
3.110415640E0,2.124438763E0,4.518584251E0,-9.969500303E-1,5.091635597E0
3.115420849E0,1.712672472E0,4.572451591E0,-5.220712423E-1,4.910511067E0
3.120426057E0,1.445817232E0,4.382041931E0,1.571931839E-1,4.617075769E0
3.125431265E0,1.074726701E0,4.683942318E0,4.962649345E-1,4.831214341E0
3.130436474E0,9.532452226E-1,4.583446503E0,7.534114122E-1,4.741759911E0
3.135441682E0,9.090090394E-1,4.564182281E0,9.037017822E-1,4.740752498E0
3.140446890E0,1.090067625E0,5.233179092E0,6.652857065E-1,5.386744463E0
3.145452099E0,1.524379492E0,5.838709831E0,6.850016117E-1,6.073178125E0
3.150457307E0,1.599271536E0,5.788072586E0,5.419725776E-1,6.029360495E0
3.155462515E0,1.454092979E0,5.727713585E0,4.801298380E-1,5.928879655E0
3.160467724E0,8.121208549E-1,5.341923714E0,1.423557281E0,5.587683293E0
3.165472932E0,7.039225101E-1,4.817459583E0,1.420516968E0,5.071616329E0
3.170478140E0,1.335535526E0,4.536974907E0,2.283102274E-1,4.734968005E0
3.175483349E0,1.479155779E0,3.347747803E0,-5.826901197E-1,3.706055173E0
3.180488557E0,2.280328989E0,4.377581596E0,-4.854102135E-1,4.959712089E0
3.185493765E0,2.219674587E0,4.314792633E0,5.293088555E-1,4.881040730E0
3.190498974E0,2.082757711E0,4.514037132E0,1.102947950E0,5.092239694E0
3.195504182E0,1.639355183E0,4.033084393E0,1.208102822E0,4.518049088E0
3.200509390E0,6.469842196E-1,3.231453896E0,1.108936191E0,3.477157220E0
3.205511317E0,-3.737509251E-2,2.439556122E0,7.669533491E-1,2.557547342E0
3.210513245E0,-1.046725512E-1,2.068579197E0,5.888832211E-1,2.153313652E0
3.215515588E0,8.417159319E-2,1.362593651E0,7.985351682E-1,1.581582982E0
3.220518453E0,1.177132130E-3,3.988199234E-1,1.250723362E0,1.312770980E0
3.225521890E0,-3.204714656E-1,-6.787185669E-1,1.518112183E0,1.693524565E0
3.230525953E0,-4.499740005E-1,-1.463389397E0,1.829672813E0,2.385725829E0
3.235530692E0,-1.856113076E-1,-2.175472260E0,2.222213745E0,3.115343486E0
3.240536057E0,1.750941575E-1,-2.647458076E0,2.842113495E0,3.888097394E0
3.245542047E0,6.269453764E-1,-3.094453812E0,3.481082439E0,4.699642523E0
3.250548609E0,1.001711369E0,-3.544754028E0,4.084389687E0,5.500085990E0
3.255555640E0,1.169913292E0,-4.495063782E0,4.357847214E0,6.369075902E0
3.260563088E0,1.369920492E0,-4.758782387E0,4.258824825E0,6.531483817E0
3.265570849E0,1.653899193E0,-4.771900177E0,3.878234863E0,6.367662012E0
3.270578765E0,1.896916270E0,-5.012867928E0,3.450784683E0,6.374562818E0
3.275586734E0,2.117647648E0,-4.860115051E0,3.035968304E0,6.109194171E0
3.280594234E0,2.354982853E0,-4.501069069E0,2.697776794E0,5.751831589E0
3.285599495E0,2.589986086E0,-4.146571159E0,2.699769497E0,5.584875616E0
3.290604703E0,2.617156506E0,-3.772782326E0,2.601780176E0,5.277561439E0
3.295609911E0,2.504038334E0,-3.595156670E0,2.195046186E0,4.900366029E0
3.300615120E0,2.346973658E0,-3.475071907E0,1.639668345E0,4.502546212E0
3.305620328E0,2.075179338E0,-3.145096779E0,1.081700563E0,3.920214171E0
3.310625536E0,1.747085810E0,-2.911679268E0,7.466047406E-1,3.476723116E0
3.315630745E0,1.516723633E0,-2.583532333E0,6.776762009E-1,3.071536249E0
3.320635953E0,9.733580947E-1,-2.270657539E0,9.550099373E-1,2.648651661E0
3.325641161E0,4.051558673E-1,-2.154532433E0,1.289691687E0,2.543514483E0
3.330646370E0,-5.551415086E-1,-2.368585587E0,1.938492775E0,3.110648488E0
3.335651578E0,-1.217286229E0,-2.515369415E0,2.034223557E0,3.456433789E0
3.340656786E0,-1.619534492E0,-2.585337639E0,2.313047886E0,3.828453108E0
3.345661995E0,-1.843932867E0,-2.731492996E0,2.147243023E0,3.933420268E0
3.350667203E0,-1.800023556E0,-2.862854958E0,1.225994110E0,3.597093948E0
3.355672411E0,-1.154778957E0,-3.931103706E0,-2.184926271E-1,4.103026909E0
3.360677620E0,-1.287931323E0,-3.860012054E0,-9.542052746E-1,4.179589437E0
3.365682828E0,-1.497440815E0,-3.846772194E0,-1.053980231E0,4.260382569E0
3.370688036E0,-2.050645351E0,-4.704073906E0,-7.206568718E-1,5.181969123E0
3.375693245E0,-2.469259262E0,-5.589216232E0,-1.489316344E0,6.289248172E0
3.380698453E0,-2.861623526E0,-5.837559700E0,-2.539372683E0,6.979570623E0
3.385703661E0,-2.830223560E0,-5.803783417E0,-3.050627470E0,7.141456106E0
3.390708870E0,-2.680363178E0,-5.750923157E0,-2.460067987E0,6.805100912E0
3.395714078E0,-3.036463737E0,-4.884878159E0,-1.139182568E0,5.863436158E0
3.400719286E0,-4.924276829E0,-4.990112305E0,-6.410544515E-1,7.039934226E0
3.405721161E0,-4.363255024E0,-4.860350609E0,-1.789941311E0,6.772362390E0
3.410723036E0,-2.306277990E0,-4.438591003E0,-3.106647730E0,5.888231346E0
3.415725328E0,-6.541642547E-1,-4.849266052E0,-3.300078392E0,5.902019105E0
3.420728140E0,7.172048092E-2,-5.670876503E0,-2.964109182E0,6.399213029E0
3.425731526E0,-3.590660691E-1,-5.985064507E0,-2.682173729E0,6.568407836E0
3.430735536E0,-2.246522903E-1,-5.400618553E0,-2.254665852E0,5.856677173E0
3.435740224E0,2.684594393E-1,-4.583348274E0,-2.270653248E0,5.122013085E0
3.440745588E0,4.491380751E-1,-3.648254395E0,-2.471011162E0,4.429151307E0
3.445751578E0,9.767143726E-1,-2.499887466E0,-3.040849209E0,4.055881189E0
3.450758140E0,8.925400972E-1,-1.454062462E0,-3.400638103E0,3.804637299E0
3.455765224E0,1.109001279E0,-5.918226242E-1,-3.020172119E0,3.271326563E0
3.460772724E0,1.135263443E0,1.734170914E-1,-2.662521839E0,2.899641205E0
3.465780536E0,9.890203476E-1,2.013044357E-1,-2.659699678E0,2.844764859E0
3.470788505E0,9.126218557E-1,6.454315186E-1,-2.415359020E0,2.661469461E0
3.475796526E0,1.595929742E0,7.210969925E-1,-2.346056700E0,2.927619281E0
3.480804026E0,1.769425154E0,7.489814758E-1,-2.622749567E0,3.251254207E0
3.485809234E0,1.738600850E0,5.423002243E-1,-2.756298065E0,3.303634585E0
3.490814442E0,1.564866424E0,6.701097488E-1,-2.722300529E0,3.210727982E0
3.495819651E0,1.405551314E0,9.692554474E-1,-2.540174007E0,3.060639575E0
3.500824859E0,1.579306602E0,1.104806900E0,-2.329771519E0,3.023680367E0
3.505830067E0,1.275552034E0,1.196599960E0,-2.042972803E0,2.689353516E0
3.510835276E0,1.095515490E0,1.450482368E0,-1.703853965E0,2.491419600E0
3.515840484E0,9.459262490E-1,1.536484718E0,-1.427024961E0,2.300426481E0
3.520845692E0,7.758885622E-1,1.397662163E0,-8.966841698E-1,1.832895273E0
3.525850901E0,7.197300196E-1,1.369192123E0,-3.187619448E-1,1.579337693E0
3.530856109E0,6.188650131E-1,1.140139580E0,3.165891767E-1,1.335342979E0
3.535861317E0,3.476375639E-1,8.924417496E-1,8.661835790E-1,1.291347414E0
3.540866526E0,4.841256142E-2,6.738862991E-1,1.148482084E0,1.332470494E0
3.545871734E0,-2.186004221E-1,6.517066956E-1,1.168536186E0,1.355722899E0
3.550876942E0,-4.891276956E-1,8.351459503E-1,1.136600137E0,1.492841094E0
3.555882151E0,-6.940957904E-1,9.943685532E-1,1.214672804E0,1.716382185E0
3.560887359E0,-8.496724367E-1,1.167700768E0,1.301460385E0,1.944033813E0
3.565892567E0,-9.472278357E-1,1.307360649E0,1.348552108E0,2.103574393E0
3.570897776E0,-1.078064799E0,1.461306572E0,1.345738530E0,2.260232908E0
3.575902984E0,-1.294297457E0,1.620076180E0,1.335335016E0,2.466368249E0
3.580908192E0,-1.390053749E0,1.793348312E0,1.354757667E0,2.642672119E0
3.585913401E0,-1.213138700E0,2.258482456E0,1.446736455E0,2.943721264E0
3.590918609E0,-1.119544387E0,2.785594940E0,1.524848461E0,3.367206800E0
3.595923817E0,-1.157472014E0,3.197627544E0,1.312334657E0,3.645104337E0
3.600929026E0,-1.154608965E0,3.728985786E0,1.116192341E0,4.060091403E0
3.605930849E0,-1.445294261E0,4.326727867E0,6.604613066E-1,4.609301322E0
3.610932672E0,-1.143612862E0,4.918816090E0,1.957956553E-1,5.053804314E0
3.615934911E0,-1.092104316E0,5.490775108E0,-1.858408451E-1,5.601414102E0
3.620937672E0,-1.113566041E0,5.932581902E0,-3.404759169E-1,6.045782100E0
3.625941057E0,-1.026413321E0,6.163148403E0,-3.449903727E-1,6.257550711E0
3.630945067E0,-9.989848137E-1,6.402776718E0,-3.766973019E-1,6.491180264E0
3.635949755E0,-8.980629444E-1,6.575025558E0,-2.972614765E-1,6.642728546E0
3.640955120E0,-1.345440865E0,6.694426537E0,-2.317495346E-1,6.832222597E0
3.645961109E0,-1.364375353E0,6.804132462E0,-8.961808681E-2,6.940156343E0
3.650967672E0,-1.505112767E0,6.846891403E0,-4.873561859E-2,7.010539315E0
3.655974755E0,-1.408935070E0,6.846752167E0,-1.044849157E-1,6.990996378E0
3.660982255E0,-1.272995710E0,6.684287071E0,-1.183135509E-1,6.805454417E0
3.665990067E0,-1.370316386E0,6.292826653E0,-2.005628347E-1,6.443419878E0
3.670998088E0,-1.413788795E0,5.883090973E0,-2.412111759E-1,6.055389416E0
3.676006161E0,-1.146111846E0,5.278161049E0,-2.735751867E-1,5.408086520E0
3.681013713E0,-1.017963052E0,4.726897717E0,-3.402721882E-1,4.847225594E0
3.686018922E0,-8.619507551E-1,3.956566334E0,-3.307583332E-1,4.062853349E0
3.691024130E0,-6.409366131E-1,2.953040600E0,-3.451231718E-1,3.041440207E0
3.696029338E0,-6.758905649E-1,1.955597401E0,-3.253697157E-1,2.094529709E0
3.701034547E0,-7.312301397E-1,1.040587425E0,-2.806355953E-1,1.302411626E0
3.706039755E0,-6.099962592E-1,3.368930817E-1,-2.202522755E-1,7.308238157E-1
3.711044963E0,-6.940324903E-1,-3.566722870E-1,-4.874515533E-2,7.818390550E-1
3.716050172E0,-8.519099951E-1,-7.866306305E-1,2.042464018E-1,1.177393299E0
3.721055380E0,-9.469401836E-1,-1.087148666E0,4.757716060E-1,1.518205044E0
3.726060588E0,-1.044017315E0,-1.162569046E0,8.411970139E-1,1.774584841E0
3.731065797E0,-1.208060265E0,-1.271194458E0,1.227575183E0,2.140627427E0
3.736071005E0,-1.288933396E0,-1.302760124E0,1.653026700E0,2.468001319E0
3.741076213E0,-9.413332343E-1,-1.151960373E0,2.078404427E0,2.555951079E0
3.746081422E0,-5.680519342E-1,-1.062830925E0,2.431556940E0,2.713809449E0
3.751086630E0,-2.196636796E-2,-8.392782211E-1,2.626820803E0,2.757726960E0
3.756091838E0,1.652394831E-1,-6.681327820E-1,2.775462627E0,2.859527635E0
3.761097047E0,2.002645433E-1,-2.672348022E-1,3.198462009E0,3.215848186E0
3.766102255E0,-4.550483823E-2,-1.772575378E-1,3.522418976E0,3.527169739E0
3.771107551E0,-2.224453688E-1,-4.265947342E-1,3.829585075E0,3.859687404E0
3.776112760E0,-4.505713284E-1,-7.519474030E-1,4.111501694E0,4.203913129E0
3.781117968E0,-2.243203819E-1,-1.124772072E0,4.106864929E0,4.264008841E0
3.786123176E0,2.135542929E-1,-1.162744522E0,5.008745670E0,5.146368958E0
3.791128385E0,5.055760145E-1,-1.086426735E0,5.099942684E0,5.238830551E0
3.796133593E0,1.937307417E-1,-1.197374344E0,4.670543671E0,4.825475634E0
3.801138801E0,-1.612335443E-3,-8.737134933E-1,4.774878502E0,4.854157247E0
3.806144270E0,-4.129869044E-1,-8.526859283E-1,4.014515400E0,4.124798828E0
3.811149478E0,-6.716454029E-1,-9.521608353E-1,3.758209944E0,3.934699453E0
3.816154374E0,-7.405899763E-1,-1.176542282E0,3.782325268E0,4.029728240E0
3.821159322E0,-4.836550355E-1,-1.415406227E0,3.566274405E0,3.867248390E0
3.826164530E0,-1.951889098E-1,-1.510627747E0,3.121113300E0,3.472958844E0
3.831169738E0,1.281452477E-1,-1.466842651E0,2.424554586E0,2.836637712E0
3.836174947E0,-8.745056391E-2,-1.594861984E0,1.962896585E0,2.530651172E0
3.841180155E0,-2.889114618E-1,-1.899331093E0,2.028879404E0,2.794151046E0
3.846185363E0,-6.395996362E-2,-1.921046257E0,2.364816189E0,3.047435841E0
3.851190572E0,1.175713465E-1,-1.827796936E0,2.832138538E0,3.372784215E0
3.856195780E0,1.160663590E-1,-1.519402504E0,3.192532539E0,3.537558393E0
3.861200988E0,-2.747439742E-1,-1.125371933E0,3.490429878E0,3.677641496E0
3.866206197E0,1.556997560E-2,-6.507263184E-1,3.325629711E0,3.388731347E0
3.871211405E0,4.539514780E-1,-1.053323746E-1,2.581439018E0,2.623164932E0
3.876216613E0,6.576627493E-1,3.287544250E-1,1.758476138E0,1.906000549E0
3.881221822E0,1.110906124E0,5.464410782E-1,1.229951143E0,1.745133257E0
3.886227030E0,1.068295598E0,7.728137970E-1,8.799033165E-1,1.585158193E0
3.891232238E0,1.296779871E0,1.017536163E0,7.543976307E-1,1.812769611E0
3.896237499E0,1.623911381E0,1.276003838E0,6.118366122E-1,2.153977253E0
3.901242759E0,2.039538860E0,1.443345070E0,2.097393274E-1,2.507379975E0
3.906248020E0,2.485655785E0,1.185234070E0,-4.781827927E-1,2.794981800E0
3.911253280E0,2.536011696E0,6.505680084E-1,-9.979741573E-1,2.801882666E0
3.916258540E0,2.330665350E0,-1.794290543E-1,-1.144041300E0,2.602503843E0
3.921263801E0,1.766388416E0,-1.180009842E0,-1.122591138E0,2.402657305E0
3.926269061E0,1.223411679E0,-2.183552742E0,-1.627224803E0,2.985380926E0
3.931274322E0,1.923382878E-1,-3.075022697E0,-2.243074417E0,3.811055162E0
3.936279582E0,-8.296366334E-1,-3.677070618E0,-4.054976463E0,5.536422978E0
3.941284842E0,-1.471189141E0,-3.932673454E0,-6.358401775E0,7.619684450E0
3.946290103E0,-1.636082172E0,-3.799736023E0,-8.034757614E0,9.037261125E0
3.951295363E0,-1.349542260E0,-3.561539650E0,-8.434720993E0,9.254747280E0
3.956300624E0,-9.443675280E-1,-3.142331123E0,-7.789621353E0,8.452471576E0
3.961305884E0,-6.720183492E-1,-2.963597298E0,-6.633329868E0,7.296271839E0
3.966311145E0,-3.717412949E-1,-3.005973816E0,-5.401405811E0,6.192677524E0
3.971316405E0,-1.697782576E-1,-3.235696793E0,-4.505401611E0,5.549522688E0
3.976321665E0,-2.245770246E-1,-3.346474648E0,-3.610064983E0,4.927666445E0
3.981326926E0,-5.962682962E-1,-3.309747696E0,-3.519601822E0,4.868014244E0
3.986332186E0,-1.181800961E0,-3.312252998E0,-3.263141394E0,4.797474877E0
3.991337447E0,-1.463735819E0,-3.258490562E0,-3.682139635E0,5.130149665E0
3.996342707E0,-2.203711987E0,-3.378244400E0,-3.469643593E0,5.320461296E0
4.001347967E0,-2.905264378E0,-3.676113129E0,-3.549712181E0,5.878335258E0
4.006349790E0,-3.613684654E0,-4.151815414E0,-3.673650265E0,6.617551986E0
4.011351613E0,-4.077538967E0,-4.427013397E0,-3.537327528E0,6.981221790E0
4.016353853E0,-3.668206930E0,-3.831925392E0,-3.497591019E0,6.353938718E0
4.021356613E0,-4.458868980E0,-2.959877968E0,-2.957686663E0,6.114760875E0
4.026359947E0,-5.113823891E0,-3.699869156E0,-2.589396477E0,6.822404317E0
4.031363905E0,-4.357993126E0,-3.663039207E0,-2.507781982E0,6.220846469E0
4.036368540E0,-3.333749771E0,-3.557680130E0,-2.057450294E0,5.291887863E0
4.041373853E0,-2.320228100E0,-3.378768921E0,-1.147937417E0,4.256441961E0
4.046379790E0,-1.378018498E0,-3.188650131E0,-4.109170437E-1,3.497896147E0
4.051386301E0,-7.419259548E-1,-2.758181572E0,9.608232975E-2,2.857840360E0
4.056393332E0,-3.931347132E-1,-2.226778984E0,5.451474786E-1,2.326002003E0
4.061400780E0,7.710337639E-2,-1.460988045E0,7.936064005E-1,1.664404433E0
4.066408540E0,6.814987659E-1,-8.055009842E-1,8.148654699E-1,1.333145955E0
4.071416509E0,1.317641973E0,-1.979684830E-1,5.913157463E-1,1.457746961E0
4.076424582E0,1.822267532E0,4.524784088E-1,3.919109106E-1,1.918069298E0
4.081432447E0,2.172035694E0,1.011749268E0,3.509584069E-1,2.421682770E0
4.086437655E0,2.444321156E0,1.594591141E0,4.206882119E-1,2.948627713E0
4.091442863E0,2.893443584E0,2.114730358E0,3.143926263E-1,3.597630190E0
4.096448072E0,2.816706657E0,3.055152416E0,3.815561533E-1,4.172933953E0
4.101453280E0,2.846807957E0,3.932208538E0,2.153417468E-1,4.859315960E0
4.106458488E0,2.988522053E0,4.415959358E0,1.458274722E-1,5.334156612E0
4.111463697E0,2.946443558E0,4.392008781E0,1.343154907E-1,5.290492550E0
4.116468905E0,3.047435999E0,4.343874931E0,6.126999855E-2,5.306587378E0
4.121474113E0,3.339120150E0,4.544193268E0,-1.450886726E-1,5.640963265E0
4.126479322E0,3.767133474E0,4.643617630E0,-4.223167300E-1,5.994399947E0
4.131484530E0,3.403048277E0,4.814457417E0,-3.544678688E-1,5.906385126E0
4.136489738E0,2.961612701E0,5.061342716E0,-3.010961413E-1,5.871882047E0
4.141494947E0,2.568649054E0,4.929766178E0,-2.047957778E-1,5.562597760E0
4.146500155E0,2.278066635E0,4.850584507E0,-8.014470339E-2,5.359494456E0
4.151505363E0,1.602856874E0,4.785458088E0,1.159391999E-1,5.048088863E0
4.156510572E0,1.099838734E0,4.920876980E0,2.686018348E-1,5.049437834E0
4.161515780E0,8.362655044E-1,4.778397083E0,3.730942905E-1,4.865348706E0
4.166520988E0,4.910613000E-1,4.779283047E0,6.781912446E-1,4.852074918E0
4.171526197E0,2.513555288E-1,4.727343559E0,7.624437213E-1,4.795026294E0
4.176531405E0,-2.508116364E-1,4.550946236E0,1.228740931E0,4.720574371E0
4.181536613E0,-1.930132806E-1,5.005962849E0,1.425548792E0,5.208560984E0
4.186541822E0,-8.492026925E-1,5.006024837E0,1.104677081E0,5.196319981E0
4.191547030E0,-9.793516397E-1,4.661650658E0,1.815294027E-1,4.766872078E0
4.196552238E0,-8.373920321E-1,4.322283745E0,-6.335437894E-1,4.448004038E0
4.201557447E0,-4.239461124E-1,4.011786938E0,-9.379624724E-1,4.141731322E0
4.206559165E0,-7.999887317E-2,3.600973129E0,-8.319784403E-1,3.696700613E0
4.211560884E0,-2.310413718E-1,3.305202484E0,-3.784815669E-1,3.334815118E0
4.216563020E0,-2.256636173E-1,2.880470753E0,-1.140618324E-1,2.891547324E0
4.221565676E0,-3.274557292E-1,2.633020401E0,2.292816937E-1,2.663192404E0
4.226568957E0,-4.929655790E-1,2.313949585E0,3.308712244E-1,2.388902156E0
4.231572915E0,-7.273355126E-1,2.315479279E0,5.022340417E-1,2.478447149E0
4.236577551E0,-7.197012901E-1,1.972479343E0,6.326996088E-1,2.192932626E0
4.241582863E0,-4.954621494E-1,1.691905975E0,7.172688246E-1,1.903287455E0
4.246588853E0,-2.037217319E-1,1.435433388E0,6.505200267E-1,1.589071383E0
4.251595415E0,-9.813976288E-2,1.169618607E0,7.425004244E-1,1.388864996E0
4.256602499E0,6.092630327E-2,1.033186913E0,8.920944929E-1,1.366389328E0
4.261609999E0,2.118541896E-1,9.638137817E-1,1.065414667E0,1.452214728E0
4.266617811E0,6.309235096E-1,7.031860352E-1,1.458416104E0,1.737674483E0
4.271625832E0,8.488886356E-1,5.433149338E-1,1.797655821E0,2.060914720E0
4.276633957E0,1.233029008E0,2.067213058E-1,2.322356224E0,2.637505007E0
4.281641717E0,1.089040399E0,5.238628387E-2,2.739818573E0,2.948789434E0
4.286646978E0,9.777623415E-1,-1.972713470E-1,3.188465595E0,3.340845407E0
4.291652186E0,9.228262901E-1,-3.268890381E-1,3.467092514E0,3.602665028E0
4.296657395E0,1.009986639E0,-3.987655640E-1,3.724030972E0,3.879109906E0
4.301662603E0,1.209666252E0,-5.947017670E-1,3.744406462E0,3.979640987E0
4.306667811E0,1.253255010E0,-7.902116776E-1,3.686828613E0,3.973384935E0
4.311673020E0,1.379611492E0,-9.805555344E-1,3.389568806E0,3.788666482E0
4.316678228E0,1.560189486E0,-1.189697266E0,2.992151737E0,3.578064118E0
4.321683436E0,1.757448435E0,-1.484552383E0,2.958065033E0,3.747355003E0
4.326688645E0,1.771585941E0,-1.927101135E0,2.859654427E0,3.876836207E0
4.331693853E0,1.680340767E0,-2.340171814E0,2.973348618E0,4.140139033E0
4.336699061E0,1.370415688E0,-2.499040604E0,2.753194571E0,3.962741909E0
4.341704270E0,1.377423167E0,-2.786720276E0,2.344508886E0,3.893562173E0
4.346709478E0,1.117155790E0,-2.897078514E0,1.873430252E0,3.626408952E0
4.351714686E0,7.583621740E-1,-2.840028763E0,1.489759922E0,3.295491039E0
4.356719895E0,5.358887911E-1,-2.678000450E0,1.327991724E0,3.036844617E0
4.361725103E0,8.632364869E-2,-2.377635002E0,1.406743050E0,2.763969244E0
4.366730311E0,-2.505806684E-1,-2.068190575E0,1.380729556E0,2.499323315E0
4.371735520E0,-4.277146459E-1,-1.988761902E0,1.364499569E0,2.449484189E0
4.376740728E0,-7.423318028E-1,-1.890336037E0,1.563218236E0,2.562826192E0
4.381745936E0,-7.878503799E-1,-1.768107414E0,1.841833234E0,2.671939691E0
4.386751145E0,-6.179752350E-1,-1.818104744E0,2.390441895E0,3.066204609E0
4.391756353E0,-5.062593818E-1,-1.958728790E0,2.882158756E0,3.521328745E0
4.396761561E0,-5.012371540E-1,-1.945969582E0,2.819941044E0,3.462672925E0
4.401766770E0,-1.827750802E-1,-1.579249382E0,3.053085804E0,3.442203984E0
4.406771978E0,-9.815588593E-2,-1.289585114E0,2.294647455E0,2.634021884E0
4.411777186E0,-1.946954727E-1,-1.268344879E0,5.073500872E-1,1.379858388E0
4.416782395E0,-3.233286440E-1,-1.462621689E0,-3.027961254E-1,1.528230712E0
4.421787603E0,-5.168601274E-1,-1.934210777E0,-4.075478613E-1,2.043137534E0
4.426792811E0,-7.452147007E-1,-2.634808540E0,-4.433225691E-1,2.773823335E0
4.431798020E0,-1.236759663E0,-3.449254990E0,-7.862167358E-1,3.747675440E0
4.436803228E0,-1.680466652E0,-4.061672211E0,-8.351680040E-1,4.474221151E0
4.441808436E0,-1.900205135E0,-4.582196236E0,-2.672421634E-1,4.967768138E0
4.446813645E0,-1.663278699E0,-4.709525108E0,4.414314628E-1,5.014078630E0
4.451818853E0,-1.596272230E0,-4.711990356E0,9.267238975E-1,5.060608198E0
4.456824061E0,-1.759247065E0,-4.633031845E0,-9.645712376E-1,5.048795102E0
4.461829270E0,-1.415564418E0,-4.238855362E0,-4.487150192E0,6.332948306E0
4.466834478E0,-1.340936303E0,-3.884174347E0,-7.891902447E0,8.897586457E0
4.471840624E0,-1.563484550E0,-4.076086998E0,-9.616566658E0,1.056112321E1
4.476845676E0,-2.068592072E0,-5.139036179E0,-8.573841095E0,1.020781647E1
4.481850728E0,-3.148424864E0,-6.598244667E0,-6.243040085E0,9.613790164E0
4.486855780E0,-3.357593060E0,-7.883723259E0,-4.542167664E0,9.698340614E0
4.491860832E0,-2.550602913E0,-8.282649040E0,-3.108404636E0,9.207064121E0
4.496865884E0,-2.270370245E0,-7.657217979E0,-1.967198253E0,8.225414105E0
4.501870936E0,-9.475612640E-1,-5.855825424E0,-1.646088839E0,6.156149138E0
4.506875988E0,-1.189554185E-1,-3.764928818E0,-2.279568672E0,4.402870964E0
4.511881040E0,4.148733914E-1,-2.317459106E0,-3.364887476E0,4.106726722E0
4.516886145E0,5.424236655E-1,-1.852086067E0,-3.544207573E0,4.035573510E0
4.521891301E0,3.947030902E-1,-1.487610817E0,-3.478212833E0,3.803516923E0
4.526896509E0,5.886258483E-1,-1.156924248E0,-2.918365240E0,3.194027204E0
4.531901770E0,9.323421121E-1,-6.495685577E-1,-2.692154884E0,2.922139464E0
4.536907082E0,1.272612691E0,2.945041656E-2,-2.368388414E0,2.688805324E0
4.541912395E0,1.695032835E0,1.673011780E-1,-1.745792627E0,2.439040363E0
4.546917707E0,2.032059669E0,4.247140884E-1,-1.059858799E0,2.330868772E0
4.551923020E0,2.223446131E0,1.260761261E0,-1.028616905E0,2.755228555E0
4.556928332E0,2.523492813E0,1.899819374E0,-1.495991707E0,3.495042320E0
4.561933645E0,2.108828068E0,2.265392780E0,-1.573970079E0,3.472253170E0
4.566938957E0,1.603541136E0,1.893872261E0,-1.414594173E0,2.856426612E0
4.571944270E0,1.392217875E0,1.240477562E0,-1.155489683E0,2.193675363E0
4.576949582E0,9.532556534E-1,1.118551254E0,-8.107093573E-1,1.678422745E0
4.581954895E0,3.260845840E-1,1.637408257E0,-5.234227180E-1,1.749688057E0
4.586960207E0,2.181139588E-2,7.827415466E-1,-8.257520199E-2,7.873872807E-1
4.591965520E0,-4.027143121E-1,3.448028564E-1,4.345170557E-1,6.854727556E-1
4.596970832E0,-5.762535930E-1,1.079359055E-1,7.150355577E-1,9.246589706E-1
4.601976145E0,-1.276020765E0,4.594125748E-1,8.715872765E-1,1.612126945E0
4.606981457E0,-1.620177507E0,1.154906273E0,7.724201679E-1,2.134342187E0
4.611986770E0,-6.052066684E-1,2.509800911E0,6.313914061E-1,2.657824455E0
4.616991978E0,-6.638426781E-1,3.146031857E0,4.810077548E-1,3.251087819E0
4.621997186E0,-1.468906641E0,3.102773190E0,9.145796299E-1,3.552653105E0
4.627002395E0,-1.885517359E0,2.930934429E0,7.544021010E-1,3.565764275E0
4.632007603E0,-1.833004713E0,3.056234837E0,3.415406346E-1,3.580101627E0
4.637012811E0,-1.780979276E0,3.038203716E0,6.955444813E-2,3.522414914E0
4.642018020E0,-1.843475699E0,2.881674290E0,-1.034551859E-1,3.422448296E0
4.647023228E0,-1.947387576E0,2.644143105E0,-2.103968859E-1,3.290604500E0
4.652028436E0,-1.861946583E0,2.411789894E0,-2.082574368E-1,3.054005031E0
4.657033645E0,-1.721349597E0,2.686781883E0,-3.318896294E-1,3.208113472E0
4.662038853E0,-1.765030622E0,3.229320049E0,-4.661517143E-1,3.709600855E0
4.667044061E0,-1.629974008E0,3.560908318E0,-3.776438236E-1,3.934399340E0
4.672049530E0,-1.642944455E0,3.662614822E0,7.251447439E-2,4.014881339E0
4.677054686E0,-1.336988091E0,4.094135761E0,2.347947359E-1,4.313306546E0
4.682059842E0,-1.124846458E0,4.577621460E0,5.311765671E-1,4.743632188E0
4.687064999E0,-6.828203797E-1,4.974330425E0,5.456571579E-1,5.050539435E0
4.692070155E0,-5.569868088E-1,4.925746441E0,8.522717953E-1,5.029868738E0
4.697075311E0,-4.505198300E-1,4.929794788E0,1.187910199E0,5.090871773E0
4.702080467E0,-4.683628678E-1,4.742328644E0,1.726588368E0,5.068545367E0
4.707085624E0,-3.477326334E-1,4.636045456E0,1.881427050E0,5.015336798E0
4.712090780E0,-1.798164994E-1,4.859535694E0,1.026402235E0,4.970002282E0
4.717095936E0,-2.503364682E-1,4.542097092E0,6.487199068E-1,4.595013804E0
4.722101092E0,-3.386769891E-1,4.263117790E0,5.702962875E-1,4.314407636E0
4.727106249E0,-4.359382987E-1,3.745092869E0,9.300535321E-1,3.883395727E0
4.732111405E0,-6.781459451E-1,3.499854088E0,1.523461580E0,3.876828052E0
4.737116561E0,-4.483623505E-1,3.029668331E0,1.192495942E0,3.286634383E0
4.742121717E0,-1.593172699E-1,3.286678314E0,2.748073101E0,4.287136819E0
4.747126874E0,3.795495033E-1,2.567459106E0,1.232157350E-1,2.598285243E0
4.752132030E0,5.667360425E-1,2.465809822E0,3.259503841E-2,2.530310308E0
4.757137186E0,4.375590384E-1,2.378694534E0,-7.241595984E-1,2.524688639E0
4.762142342E0,4.144934714E-1,2.043370724E0,-7.471680641E-1,2.214820279E0
4.767147499E0,2.176677585E-1,2.679704666E0,-1.314320683E0,2.992596734E0
4.772152655E0,1.755474508E-1,2.134357929E0,-6.167762280E-1,2.228612482E0
4.777157863E0,-1.641235650E-1,1.862721920E0,-8.663129807E-2,1.871944037E0
4.782163124E0,-5.669152737E-1,1.424465179E0,4.055142403E-1,1.585854903E0
4.787168384E0,-8.607919216E-1,1.101892471E0,9.941437840E-1,1.715649036E0
4.792173645E0,-1.102959871E0,7.560529709E-1,1.326170444E0,1.883312141E0
4.797178905E0,-1.205932140E0,5.398349762E-1,1.886584878E0,2.303236121E0
4.802184165E0,-9.324775934E-1,3.907709122E-1,1.901967406E0,2.153995446E0
4.807189426E0,-8.278796673E-1,1.890287399E-1,2.441236973E0,2.584715568E0
4.812194686E0,-9.051351547E-1,-4.118633270E-2,2.655684948E0,2.805998665E0
4.817199947E0,-8.765311241E-1,-2.757883072E-1,2.812557459E0,2.958858811E0
4.822205207E0,-1.030037642E0,-3.569488525E-1,3.112615824E0,3.297994435E0
4.827210467E0,-1.232656479E0,-5.718383789E-1,3.263968468E0,3.535524188E0
4.832215728E0,-1.575622320E0,-1.054162025E0,3.280744553E0,3.789080111E0
4.837220988E0,-1.852335334E0,-6.222095490E-1,3.214768410E0,3.762050882E0
4.842226249E0,-2.250491858E0,5.936126709E-1,3.373066664E0,4.098129857E0
4.847231509E0,-2.732779026E0,1.389904022E-1,2.630821705E0,3.795869120E0
4.852236770E0,-2.858456135E0,-5.061311722E-1,2.322679996E0,3.717765808E0
4.857242030E0,-2.665418625E0,-1.274541855E0,1.888339043E0,3.506385279E0
4.862247290E0,-2.330631733E0,-1.969946861E0,1.776741028E0,3.531195774E0
4.867252551E0,-1.725165963E0,-2.539922714E0,2.007096052E0,3.668220217E0
4.872157759E0,-1.103917718E0,-2.936922073E0,2.598838091E0,4.074077198E0
4.877070988E0,-7.451569438E-1,-3.041730881E0,3.456795931E0,4.664421050E0
4.881995572E0,-5.059821010E-1,-3.079586983E0,4.103200436E0,5.155203942E0
4.886934270E0,-3.347104192E-1,-3.045749664E0,4.083632469E0,5.105357600E0
4.891889217E0,-7.869769633E-2,-2.902080536E0,4.006716251E0,4.947932890E0
4.896861770E0,2.629746497E-2,-2.457431793E0,3.968587399E0,4.667906224E0
4.901852499E0,3.383487463E-3,-1.745635986E0,3.950316906E0,4.318826241E0
4.906861249E0,1.675789803E-1,-7.860612869E-1,3.903530836E0,3.985414414E0
4.911887186E0,5.141831636E-1,-1.289262772E-1,3.779963017E0,3.816952543E0
4.916928801E0,1.133985519E0,-6.551361084E-2,3.583961487E0,3.759653592E0
4.921984009E0,1.735140920E0,-3.798980713E-1,2.923778772E0,3.421040611E0
4.927050259E0,2.284977913E0,-8.516540527E-1,1.924629092E0,3.106547252E0
4.932124686E0,2.468629122E0,-1.040664673E0,1.041825414E0,2.874458713E0
4.937204165E0,2.287535191E0,-7.895669937E-1,4.865906835E-1,2.468401057E0
4.942285520E0,2.154740095E0,-2.471990585E-1,-2.356833220E-2,2.169001549E0
4.947336613E0,2.118397474E0,5.519485474E-2,-1.488214135E-1,2.124335695E0
4.952341822E0,2.259811640E0,1.320791245E-1,2.643400431E-2,2.263822497E0
4.957347030E0,2.253554821E0,9.362506866E-2,2.209725380E-1,2.266297387E0
4.962352238E0,2.128562450E0,2.149963379E-2,9.740489721E-2,2.130898415E0
4.967357447E0,1.895145774E0,-2.178449631E-1,-2.234534025E-1,1.920667945E0
4.972362655E0,1.548909664E0,-6.240625381E-1,-4.752822518E-1,1.736222456E0
4.977367863E0,1.066451550E0,-1.024784088E0,-4.335184097E-1,1.541246102E0
4.982373072E0,5.872603655E-1,-1.367490768E0,-5.953471661E-1,1.602917336E0
4.987378280E0,-5.986651778E-2,-1.652226448E0,-2.013612032E0,2.605392418E0
4.992383488E0,-1.280201197E0,-1.419625282E0,-4.701199055E0,5.074990010E0
4.997388697E0,-1.332069397E0,-6.368665695E-1,-5.826292992E0,6.010465700E0
5.002393905E0,-1.493409634E0,-1.266143799E0,-6.196074963E0,6.498056432E0
5.007399113E0,-1.579130054E0,-2.210939407E0,-6.881679535E0,7.398609194E0
5.012404322E0,-1.558259010E0,-2.743989944E0,-7.969818115E0,8.571794022E0
5.017409530E0,-1.576884866E0,-3.190799713E0,-7.773753643E0,8.549796161E0
5.022414738E0,-1.511474252E0,-3.197422981E0,-6.599196911E0,7.487153531E0
5.027419947E0,-1.337905884E0,-2.945996284E0,-5.664251804E0,6.523238058E0
5.032425155E0,-1.506882906E0,-2.661500931E0,-5.398325920E0,6.204531089E0
5.037430363E0,-1.662431002E0,-2.535293579E0,-5.073873997E0,5.910633443E0
5.042435572E0,-1.741708279E0,-2.610204697E0,-4.562122822E0,5.537118468E0
5.047440780E0,-2.456121922E0,-3.024706841E0,-3.849513531E0,5.477238427E0
5.052445988E0,-3.156133890E0,-3.615829468E0,-3.263978243E0,5.804218969E0
5.057451197E0,-3.459907770E0,-4.000861168E0,-3.119115353E0,6.140580791E0
5.062456405E0,-3.409228086E0,-3.936201096E0,-2.708137274E0,5.869456764E0
5.067461613E0,-3.836267948E0,-3.561055183E0,-1.626341105E0,5.481154183E0
5.072463124E0,-3.749687433E0,-2.914205551E0,-2.428058386E0,5.333687033E0
5.077464634E0,-3.590851784E0,-2.574876785E0,-3.037343025E0,5.361870909E0
5.082466561E0,-3.054428101E0,-1.906531334E0,-2.814867973E0,4.570325421E0
5.087469009E0,-2.385390759E0,-1.497679710E0,-2.241738796E0,3.599795330E0
5.092472082E0,-1.188156605E0,-1.185203552E0,-1.515997171E0,2.261563840E0
5.097475832E0,-1.886676550E-1,-1.126399040E0,-7.682018280E-1,1.376409943E0
5.102480311E0,8.253824711E-1,-9.474859238E-1,-2.862553000E-1,1.288769916E0
5.107485520E0,1.709078550E0,-7.345151901E-1,-2.659797668E-2,1.860421863E0
5.112491405E0,2.385601997E0,-5.400571823E-1,1.640804410E-1,2.451465081E0
5.117497915E0,3.007792473E0,-4.846668243E-2,3.013609946E-1,3.023240485E0
5.122504999E0,3.091436386E0,2.951803207E-1,4.729886651E-1,3.141310018E0
5.127512551E0,2.732028008E0,7.588863373E-1,4.416506290E-1,2.869658653E0
5.132520467E0,2.379325867E0,1.572044373E0,2.184664011E-1,2.860112351E0
5.137528592E0,2.463593245E0,2.298992157E0,2.734215558E-1,3.380741924E0
5.142536822E0,2.564374208E0,2.040549755E0,3.734036684E-1,3.298376674E0
5.147545051E0,2.469573736E0,1.873567104E0,6.384937763E-1,3.164920605E0
5.152550467E0,2.663534880E0,2.371712685E0,1.258866489E-1,3.568653326E0
5.157555676E0,3.122336149E0,4.515136719E0,-2.983246446E-1,5.497675892E0
5.162560884E0,3.399059772E0,2.783009052E0,-2.118728757E-1,4.398140157E0
5.167566092E0,3.005104542E0,1.919040203E0,-1.225018799E-1,3.567684868E0
5.172571301E0,3.185128689E0,2.376423836E0,7.383890450E-2,3.974655607E0
5.177576509E0,3.644524574E0,3.292852402E0,-3.433206677E-2,4.911885076E0
5.182581717E0,3.520629883E0,3.735219002E0,-2.837544084E-1,5.140740445E0
5.187586926E0,3.013461113E0,3.598473549E0,-4.395531118E-2,4.693814209E0
5.192592134E0,2.328295708E0,3.499862671E0,-6.040332913E-1,4.246746500E0
5.197597342E0,1.783581018E0,3.936497211E0,-8.550467491E-1,4.405482549E0
5.202602551E0,1.283389568E0,3.999066830E0,-8.740875721E-1,4.289947946E0
5.207607759E0,6.285946369E-1,3.845736027E0,-8.002302051E-1,3.978088132E0
5.212612967E0,1.221848428E-1,3.605834961E0,-4.896231294E-1,3.640975928E0
5.217618176E0,1.423118412E-1,3.800766468E0,-9.918890893E-2,3.804722966E0
5.222623384E0,1.157867312E-1,3.454359055E0,3.339530230E-1,3.472395091E0
5.227628592E0,2.778589725E-1,3.122090816E0,7.246170640E-1,3.217099091E0
5.232633801E0,2.067716569E-1,3.091009617E0,1.342102647E0,3.376141953E0
5.237639009E0,2.364620864E-1,2.906544209E0,1.636795759E0,3.344101361E0
5.242644217E0,3.665132821E-1,2.525918007E0,1.608806968E0,3.017093572E0
5.247649426E0,5.214102268E-1,2.389373779E0,1.732546568E0,2.997114161E0
5.252654634E0,5.337188244E-1,2.625788689E0,1.568512917E0,3.104811555E0
5.257659842E0,7.230574489E-1,2.488728523E0,1.342821479E0,2.918861295E0
5.262665051E0,6.337078810E-1,2.189151287E0,1.002893925E0,2.489932782E0
5.267670259E0,4.128149450E-1,1.832551479E0,6.120016575E-1,1.975653596E0
5.272671717E0,-2.070754766E-3,1.246847153E0,1.897120178E-1,1.261198937E0
5.277673176E0,-3.951561749E-1,8.148832321E-1,-2.313029766E-1,9.347107315E-1
5.282675051E0,-3.421314657E-1,1.491050720E-1,-5.174549818E-1,6.380015051E-1
5.287677447E0,-6.520800591E-1,-2.384929657E-1,-4.867618978E-1,8.479530902E-1
5.292680467E0,-4.483740926E-1,-7.165927887E-1,-3.505284488E-1,9.151036800E-1
5.297684165E0,-1.715819538E-1,-1.552946091E0,-1.280136704E-1,1.567631789E0
5.302688592E0,-9.916439652E-2,-2.144579887E0,2.232843190E-1,2.158451380E0
5.307693749E0,-1.839209199E-1,-3.032229424E0,4.632679224E-1,3.072923583E0
5.312699634E0,3.173026443E-2,-2.623108864E0,5.309115648E-1,2.676485384E0
5.317706197E0,9.711348414E-1,-2.013931274E-1,1.406147361E0,1.720730215E0
5.322713332E0,1.505172253E0,1.260676384E0,2.176677465E0,2.931343249E0
5.327720936E0,1.685179591E0,1.960412502E0,2.628929853E0,3.687047546E0
5.332728905E0,2.008427143E0,2.071001530E0,2.507690668E0,3.822478177E0
5.337737082E0,2.187878609E0,1.803712845E0,2.092638731E0,3.524106935E0
5.342745363E0,2.144242525E0,1.732978821E0,1.682408214E0,3.229781571E0
5.347753645E0,2.339001656E0,1.777280807E0,1.471534729E0,3.285585225E0
5.352758905E0,2.715169907E0,1.840876102E0,1.454740524E0,3.588487486E0
5.357764113E0,2.846591234E0,1.574708939E0,1.502370477E0,3.583281589E0
5.362769322E0,2.809481859E0,1.548394203E0,1.800404072E0,3.678609486E0
5.367774530E0,2.903492212E0,1.307399750E0,2.152585745E0,3.843590317E0
5.372779738E0,2.936813354E0,7.467718124E-1,2.712374210E0,4.066880214E0
5.377784947E0,2.852496624E0,1.872844696E-1,3.278833628E0,4.350007175E0
5.382790155E0,2.775328159E0,-1.559381485E-1,3.685330629E0,4.616104954E0
5.387795363E0,2.490696669E0,-7.233009338E-1,3.536887646E0,4.385921608E0
5.392800572E0,2.057677746E0,-1.490777016E0,3.189975500E0,4.078283647E0
5.397805780E0,1.396326780E0,-2.142608643E0,2.675426006E0,3.701135581E0
5.402810988E0,5.325077772E-1,-2.722097397E0,2.181741476E0,3.528933924E0
5.407816197E0,-3.552667499E-1,-2.951989174E0,2.015742302E0,3.592168088E0
5.412821405E0,-1.423923969E0,-3.024011612E0,2.071661472E0,3.932427616E0
5.417826613E0,-2.241144180E0,-2.981415749E0,2.334542513E0,4.400188160E0
5.422831822E0,-2.950291395E0,-3.039548874E0,2.507142782E0,4.922280122E0
5.427837030E0,-3.489943027E0,-3.045219421E0,2.674995184E0,5.348706656E0
5.432842238E0,-3.884743690E0,-3.098910332E0,2.818024397E0,5.712769931E0
5.437847447E0,-4.260132790E0,-3.167046547E0,3.058572769E0,6.126482074E0
5.442852655E0,-4.434446335E0,-3.039191246E0,3.179022551E0,6.245573000E0
5.447857863E0,-4.284348011E0,-2.792142868E0,2.896263361E0,5.877077601E0
5.452863072E0,-3.802623987E0,-2.593445778E0,2.005317926E0,5.020678259E0
5.457868280E0,-3.077993155E0,-2.524325371E0,6.900656819E-1,4.040105331E0
5.462873488E0,-2.207873106E0,-2.436345100E0,-1.265028596E0,3.522893477E0
5.467878697E0,-1.351062417E0,-2.286415100E0,-2.672451258E0,3.767633128E0
5.472880103E0,-1.019991398E0,-2.347085953E0,-2.924635172E0,3.886217417E0
5.477881509E0,-9.600310326E-1,-2.641965866E0,-2.531304121E0,3.782742890E0
5.482883332E0,-8.884375691E-1,-3.098997116E0,-1.958176136E0,3.771943560E0
5.487885728E0,-9.149454832E-1,-3.823186874E0,-1.321576953E0,4.147342373E0
5.492888749E0,-5.095563531E-1,-4.508063316E0,-8.054200411E-1,4.607709190E0
5.497892447E0,8.277159929E-2,-4.818899155E0,-4.406175017E-2,4.819811370E0
5.502896874E0,3.508393764E-1,-4.780180931E0,6.725172997E-1,4.839989413E0
5.507902030E0,1.957463026E-1,-4.229906082E0,1.131904244E0,4.383107265E0
5.512907915E0,-8.376598358E-3,-3.508382797E0,6.031982303E-1,3.559869116E0
5.517914478E0,-2.281314135E-1,-3.113100052E0,-1.217329264E0,3.350421826E0
5.522921613E0,4.675332606E-1,-2.818490982E0,-2.965967894E0,4.118184589E0
5.527929217E0,1.073912621E0,-2.824705124E0,-4.014547348E0,5.024822162E0
5.532937186E0,6.296378374E-1,-3.614178658E0,-4.044681549E0,5.460602532E0
5.537945363E0,9.892949462E-2,-4.004808426E0,-4.392200470E0,5.944720560E0
5.542953645E0,-3.197069168E-1,-4.193523407E0,-4.366608620E0,6.062600260E0
5.547961926E0,-6.486459970E-1,-4.133147240E0,-3.802011251E0,5.653223619E0
5.552967238E0,-6.331662536E-1,-3.628232002E0,-3.116899014E0,4.824937971E0
5.557972447E0,-4.364508390E-1,-2.837245941E0,-2.880064249E0,4.066352659E0
5.562977655E0,-2.231985927E-1,-2.128699303E0,-3.273793459E0,3.911381079E0
5.567982863E0,-6.649804115E-2,-1.722401619E0,-3.626867056E0,4.015626224E0
5.572988072E0,4.591911137E-1,-1.895360947E0,-3.718943596E0,4.199260776E0
5.577993280E0,6.405357122E-1,-2.111239433E0,-3.670010090E0,4.282124707E0
5.582998436E0,4.751847982E-1,-2.006619453E0,-3.619549036E0,4.165748126E0
5.588003592E0,2.053425908E-1,-1.715887070E0,-3.453294516E0,3.861564065E0
5.593008749E0,6.715191901E-2,-1.401885033E0,-2.879826546E0,3.203621694E0
5.598013905E0,2.263996005E-2,-1.136342049E0,-2.536507845E0,2.779506767E0
5.603019061E0,5.240640044E-2,-8.139438629E-1,-2.481592894E0,2.612193395E0
5.608024217E0,7.531222701E-2,-4.586448669E-1,-2.332756996E0,2.378609310E0
5.613029374E0,1.916691065E-1,-2.091569901E-1,-2.056587458E0,2.076062539E0
5.618034530E0,4.386898279E-1,-1.036014557E-1,-1.815236688E0,1.870365274E0
5.623039686E0,6.809456348E-1,-1.746845245E-2,-1.703604817E0,1.834737441E0
5.628044842E0,6.510229707E-1,3.122797012E-1,-1.548180699E0,1.708277787E0
5.633049999E0,5.089958310E-1,7.083959579E-1,-1.428520918E0,1.673790191E0
5.638055155E0,2.571959496E-1,4.965133667E-1,-1.534632325E0,1.633331458E0
5.643060311E0,1.244166344E-1,-7.384872437E-2,-1.487905741E0,1.494923619E0
5.648065467E0,1.537000239E-1,-1.031188965E-1,-1.039888144E0,1.056231298E0
5.653070624E0,-1.686798930E-1,-7.020664215E-2,-2.525505722E-1,3.117108763E-1
5.658075780E0,-3.751500547E-1,3.439426422E-2,7.555937767E-1,8.442999966E-1
5.663080936E0,-7.449309826E-1,-7.636165619E-2,1.659119368E0,1.820283040E0
5.668086092E0,-1.111625910E0,9.033489227E-2,2.045693874E0,2.329964803E0
5.673091249E0,-1.759301186E0,5.101261139E-1,1.880089760E0,2.624901297E0
5.678096405E0,-2.478044510E0,1.120443344E0,1.898041606E0,3.316422744E0
5.683101561E0,-2.698559284E0,1.495395660E0,1.650165915E0,3.498782351E0
5.688106717E0,-3.267514467E0,2.185308933E0,1.449418783E0,4.189634917E0
5.693111874E0,-3.428002596E0,2.898075581E0,9.280951023E-1,4.583819847E0
5.698117030E0,-3.620776653E0,3.705409050E0,3.355567455E-1,5.191596877E0
5.703122186E0,-3.353945971E0,4.234200954E0,-2.366089821E-1,5.406791572E0
5.708127342E0,-2.705568314E0,4.274389744E0,-7.740888000E-1,5.117589379E0
5.713132499E0,-2.263877392E0,4.008312702E0,-1.281932235E0,4.778604589E0
5.718137707E0,-1.945055127E0,3.785416603E0,-1.765253544E0,4.607465505E0
5.723142915E0,-1.508086681E0,3.787214279E0,-2.197134733E0,4.630844250E0
5.728148124E0,-1.000953078E0,4.003791332E0,-2.343597889E0,4.746019718E0
5.733153332E0,-3.678359091E-1,4.607114792E0,-2.323474169E0,5.172943280E0
5.738158540E0,1.546282470E-1,5.085143566E0,-2.034955263E0,5.479382986E0
5.743163749E0,4.558985531E-1,5.452520370E0,-1.520168304E0,5.678796840E0
5.748168957E0,4.733976722E-1,5.589896202E0,-1.022980213E0,5.702414701E0
5.753174165E0,3.842487335E-1,5.416243553E0,-6.587010622E-1,5.469664378E0
5.758179374E0,2.984099090E-1,5.386255264E0,-4.851375222E-1,5.416285873E0
5.763184582E0,3.732372224E-1,5.418522835E0,-5.495463610E-1,5.459093051E0
5.768189790E0,5.696370602E-1,5.417426109E0,-7.841914892E-1,5.503448766E0
5.773194999E0,6.524188519E-1,5.368669510E0,-8.880787492E-1,5.480597279E0
5.778200207E0,4.732956588E-1,5.301036835E0,-5.744904876E-1,5.353040223E0
5.783205415E0,7.993710041E-2,5.181163788E0,-3.026750088E-1,5.190612709E0
5.788210624E0,-7.377046347E-2,4.497468948E0,-3.832949996E-1,4.514375270E0
5.793215832E0,-1.736227572E-1,3.528011322E0,-5.480833650E-1,3.574549500E0
5.798221040E0,-5.956318378E-1,2.641359329E0,-3.614344597E-1,2.731701166E0
5.803226249E0,-8.839871287E-1,2.062314510E0,1.202255487E-1,2.247004354E0
5.808231457E0,-9.425118566E-1,1.781054974E0,7.111604214E-1,2.136874953E0
5.813236665E0,-7.278904915E-1,1.424185753E0,1.306170344E0,2.064996512E0
5.818241874E0,-4.076973498E-1,1.250000954E0,1.708696246E0,2.156006117E0
5.823247082E0,-1.883678138E-1,1.105177879E0,2.090420246E0,2.372078705E0
5.828252290E0,-1.359662116E-1,9.417476654E-1,2.704244614E0,2.866760263E0
5.833257499E0,-1.209712625E-1,6.496429443E-1,3.487023354E0,3.549084652E0
5.838262707E0,-4.553323686E-1,2.719001770E-1,4.063768387E0,4.098227760E0
5.843267915E0,-8.029096127E-1,-2.107152939E-1,4.366393089E0,4.444598226E0
5.848273124E0,-9.703789949E-1,-8.460769653E-1,4.351519585E0,4.537973592E0
5.853278332E0,-1.151633024E0,-9.406795502E-1,4.253717422E0,4.506134546E0
5.858283540E0,-1.234739661E0,-5.573616028E-1,4.217561722E0,4.429792418E0
5.863288749E0,-9.036809206E-1,-2.513694763E-1,4.081748962E0,4.188138060E0
5.868293957E0,-5.426759720E-1,1.784200668E-1,3.828576088E0,3.870959286E0
5.873299165E0,-3.114978671E-1,4.210834503E-1,3.515873671E0,3.554674368E0
5.878304374E0,9.449130297E-2,4.195480347E-1,3.225265026E0,3.253810635E0
5.883309582E0,1.669776738E-1,5.806579590E-1,2.990151882E0,3.050582483E0
5.888314790E0,4.014068842E-2,6.554346085E-1,2.819461346E0,2.894921084E0
5.893319999E0,-5.212712288E-2,4.047622681E-1,2.386849880E0,2.421487576E0
5.898325207E0,-1.485013366E-1,-7.069778442E-2,1.757989883E0,1.765666801E0
5.903330415E0,6.180173159E-2,-3.593692780E-1,1.736652017E0,1.774521332E0
5.908335624E0,1.812006831E-1,-4.996471405E-1,2.255779266E0,2.317546343E0
5.913340832E0,3.154618144E-1,-7.116136551E-1,2.818534374E0,2.924046198E0
5.918346040E0,4.645843804E-1,-1.033447266E0,3.195333958E0,3.390281846E0
5.923351249E0,6.713576317E-1,-9.628229141E-1,3.420098543E0,3.615912482E0
5.928356457E0,7.290352583E-1,-9.448919296E-1,3.564812183E0,3.759281723E0
5.933361665E0,8.909006119E-1,-8.791227341E-1,3.514716148E0,3.730923516E0
5.938366874E0,1.313389301E0,-6.125135422E-1,3.527147770E0,3.813257884E0
5.943372082E0,1.708101273E0,-3.412504196E-1,3.453583241E0,3.867983842E0
5.948377290E0,2.122077942E0,2.168788910E-1,3.216827393E0,3.859822498E0
5.953382499E0,2.492451668E0,6.169052124E-1,2.712086201E0,3.734742149E0
5.958387707E0,2.967860460E0,8.446292877E-1,2.245294571E0,3.816142300E0
5.963392915E0,3.199276686E0,8.955163956E-1,1.993581057E0,3.874491755E0
5.968398124E0,3.158662796E0,6.357994080E-1,1.573454618E0,3.585686961E0
5.973403332E0,3.047768831E0,5.535087585E-1,1.127400517E0,3.296406941E0
5.978408540E0,2.967996120E0,3.899755478E-1,6.256989241E-1,3.058198987E0
5.983413749E0,2.685226440E0,2.791290283E-1,-1.761630177E-1,2.705436649E0
5.988418957E0,2.390703440E0,4.217586517E-1,-8.288773894E-1,2.565225336E0
5.993424165E0,2.069520950E0,6.740846634E-1,-9.842917919E-1,2.388752274E0
5.998429374E0,1.846369028E0,8.062896729E-1,-1.059926987E0,2.276538346E0
6.003434582E0,1.926215172E0,1.148623466E0,-1.036127210E0,2.470465614E0
6.008439790E0,2.149281025E0,1.375990868E0,-1.030541062E0,2.752230854E0
6.013444999E0,2.155065775E0,1.283239365E0,-1.227944374E0,2.792643756E0
6.018450207E0,1.794794083E0,8.039350510E-1,-1.326116562E0,2.371957525E0
6.023455415E0,9.550148249E-1,1.010112762E-1,-1.033261895E0,1.410633453E0
6.028460624E0,3.052461147E-2,-6.820821762E-1,-4.837048054E-1,8.367426042E-1
6.033465832E0,-5.313302279E-1,-1.430857658E0,1.566839218E-2,1.526404582E0
6.038471040E0,-7.951261997E-1,-2.002266884E0,1.872948408E-1,2.162493400E0
6.043476249E0,-1.027344465E0,-2.171794891E0,2.050887346E-1,2.411263380E0
6.048481457E0,-1.380573153E0,-2.150117874E0,-2.249090672E-1,2.565067873E0
6.053486665E0,-1.791790485E0,-2.205039024E0,-9.228906631E-1,2.987379691E0
6.058491874E0,-2.140286446E0,-2.297892570E0,-1.708696127E0,3.575021509E0
6.063497082E0,-2.492347479E0,-2.461890221E0,-2.398640156E0,4.245724203E0
6.068502290E0,-2.747098684E0,-2.749436378E0,-3.202323437E0,5.035953432E0
6.073507499E0,-2.880697966E0,-3.231992722E0,-4.027738094E0,5.913279283E0
6.078512707E0,-2.884004831E0,-3.861408234E0,-4.596545696E0,6.660044276E0
6.083517915E0,-2.667248249E0,-4.599216461E0,-4.956543446E0,7.268722598E0
6.088523124E0,-2.266155720E0,-5.014858246E0,-4.998276234E0,7.434179866E0
6.093528332E0,-2.342925072E0,-4.931872368E0,-4.723012924E0,7.219384602E0
6.098533540E0,-2.777297497E0,-4.532952309E0,-4.237595558E0,6.798400851E0
6.103538749E0,-2.729999542E0,-4.015108109E0,-3.945420027E0,6.256223287E0
6.108543957E0,-2.678277731E0,-3.785491943E0,-3.474653244E0,5.794509127E0
6.113549165E0,-2.869800568E0,-3.686388969E0,-2.889914989E0,5.493343934E0
6.118554374E0,-3.122502327E0,-3.808794975E0,-2.274839401E0,5.425111450E0
6.123559582E0,-3.350942612E0,-4.181253433E0,-1.956649899E0,5.704399661E0
6.128564790E0,-3.909018993E0,-4.588409424E0,-1.837202907E0,6.301527200E0
6.133569999E0,-4.575870514E0,-4.819932938E0,-1.899717927E0,6.912255253E0
6.138576040E0,-5.023696423E0,-4.713135719E0,-1.935823083E0,7.155318656E0
6.143580624E0,-5.158925533E0,-4.048083305E0,-1.783385873E0,6.795730739E0
6.148585207E0,-4.735163212E0,-3.202866554E0,-1.748638511E0,5.978115209E0
6.153589790E0,-3.860845089E0,-2.598022461E0,-1.634724379E0,4.932359405E0
6.158594426E0,-2.935013533E0,-2.060677528E0,-1.775189638E0,4.001499040E0
6.163599113E0,-2.001914978E0,-1.456519127E0,-1.914526463E0,3.129620284E0
6.168603905E0,-1.062950015E0,-1.230036736E0,-1.823334217E0,2.442826390E0
6.173608801E0,8.309769630E-2,-1.375875473E0,-2.092704296E0,2.505863088E0
6.178613801E0,1.130377531E0,-1.257429123E0,-2.174318075E0,2.754367523E0
6.183618905E0,2.050843239E0,-7.458648682E-1,-1.973846078E0,2.942505859E0
6.188624113E0,2.740345955E0,-2.578649521E-1,-1.269941449E0,3.031293712E0
6.193629426E0,3.333668232E0,1.586341858E-1,-2.848007083E-1,3.349570141E0
6.198634842E0,3.653607368E0,4.176445007E-1,5.198436379E-1,3.713961650E0
6.203640363E0,3.900859356E0,6.772403717E-1,8.578090668E-1,4.051073269E0
6.208645936E0,4.176166534E0,9.803962708E-1,9.930000305E-1,4.403134433E0
6.213651561E0,4.442172527E0,1.317314148E0,9.685802460E-1,4.733535784E0
6.218657238E0,4.652231216E0,1.749908447E0,8.515789509E-1,5.042878303E0
6.223662915E0,4.739748955E0,2.579273224E0,8.097686172E-1,5.456518646E0
6.228668592E0,4.632823944E0,3.489280701E0,8.101763129E-1,5.856152590E0
6.233674061E0,4.326651096E0,4.508515358E0,7.817501426E-1,6.297440252E0
6.238679270E0,4.280675888E0,5.091589451E0,5.243170261E-1,6.672584023E0
6.243684426E0,4.059099674E0,5.401645660E0,3.397576213E-1,6.765316049E0
6.248689582E0,3.494763374E0,5.477237701E0,1.277443767E-1,6.498447700E0
6.253694738E0,2.660273552E0,5.256395340E0,-1.360954046E-1,5.892815057E0
6.258699895E0,1.739159584E0,4.854070187E0,-4.005188346E-1,5.171758770E0
6.263705051E0,1.140004516E0,4.399374008E0,-6.804797649E-1,4.595340539E0
6.268710207E0,7.586727142E-1,4.093074322E0,-8.708262444E-1,4.252902543E0
6.273715363E0,4.620736837E-1,3.977932453E0,-1.014269948E0,4.131126023E0
6.278720520E0,3.841221929E-1,4.058516026E0,-1.225786924E0,4.256953814E0
6.283725676E0,3.091929555E-1,4.186378002E0,-1.376554251E0,4.417721434E0
6.288730832E0,2.803684473E-1,4.380616188E0,-1.318967462E0,4.583457191E0
6.293735988E0,2.246757746E-1,4.660408020E0,-1.211272120E0,4.820483613E0
6.298741145E0,4.500091076E-2,4.451895714E0,-1.048463821E0,4.573912648E0
6.303746301E0,-1.400256753E-1,4.171842098E0,-7.684383392E-1,4.244334007E0
6.308751457E0,-4.167835116E-1,3.624262810E0,-6.192603111E-1,3.700334139E0
6.313756613E0,-5.117687583E-1,3.435906410E0,-3.368405998E-1,3.490103396E0
6.318761770E0,-5.011866093E-1,2.936742306E0,-1.496593207E-1,2.982958481E0
6.323766926E0,-4.168843031E-1,2.557461739E0,1.681124866E-1,2.596664182E0
6.328772082E0,-2.523363233E-1,2.087397099E0,3.445721269E-1,2.130640800E0
6.333777238E0,1.132006645E-1,1.870960712E0,4.762634635E-1,1.933942932E0
6.338782395E0,6.119758487E-1,1.845757961E0,5.017015338E-1,2.008243342E0
6.343787551E0,8.935874701E-1,1.566906929E0,7.660645247E-1,1.959732315E0
6.348792707E0,9.964758754E-1,1.139971733E0,1.207207918E0,1.936453118E0
6.353797863E0,1.106440783E0,8.282489777E-1,1.513947845E0,2.049937963E0
6.358803020E0,1.102353573E0,5.360412598E-1,1.552091479E0,1.977754179E0
6.363808176E0,1.017202616E0,3.542137146E-1,1.541300416E0,1.880365786E0
6.368813332E0,6.877896786E-1,1.678695679E-1,1.470531583E0,1.632083935E0
6.373818488E0,5.643615723E-1,2.447757721E-1,1.337745667E0,1.472407087E0
6.378823645E0,3.974978328E-1,1.255092621E-1,1.481588364E0,1.539110516E0
6.383828801E0,3.939318657E-2,-1.514415741E-1,1.777701497E0,1.784575296E0
6.388833957E0,4.090614915E-1,2.605733871E-1,1.527287960E0,1.602447599E0
6.393839113E0,1.065854788E0,1.937704086E-1,1.471626878E0,1.827369439E0
6.398844270E0,1.459273100E0,-2.221193314E-1,1.628657222E0,2.198030783E0
6.403849426E0,1.919731617E0,-4.414653778E-1,1.897666216E0,2.735214476E0
6.408854582E0,2.251013041E0,-8.470945358E-1,2.365589380E0,3.373520709E0
6.413859738E0,2.487494707E0,-1.438807487E0,2.822503805E0,4.027942978E0
6.418864895E0,2.883923531E0,-1.580366135E0,3.445694685E0,4.763127535E0
6.423870051E0,3.205714226E0,-1.578409195E0,4.267612457E0,5.566012520E0
6.428875207E0,3.237229109E0,-1.610058784E0,4.940937996E0,6.122483963E0
6.433880363E0,3.112521410E0,-1.723118782E0,5.320367813E0,6.400253240E0
6.438885520E0,2.784435987E0,-2.175790787E0,5.554653168E0,6.583412575E0
6.443890676E0,2.445227623E0,-2.666404724E0,5.392628670E0,6.493789052E0
6.448895832E0,2.061844349E0,-3.099261284E0,5.019824982E0,6.249421211E0
6.453901040E0,1.678408980E0,-3.354864120E0,4.488051891E0,5.849340112E0
6.458906249E0,1.123802185E0,-3.304290771E0,4.044725895E0,5.342384900E0
6.463911457E0,4.945899844E-1,-3.172704697E0,3.767796040E0,4.950450620E0
6.468916665E0,-1.313688159E-1,-3.065513611E0,3.509608984E0,4.661757896E0
6.473921874E0,-4.925494194E-1,-3.016141891E0,3.212984800E0,4.434296806E0
6.478927082E0,-8.987194300E-1,-2.378784180E0,3.019965649E0,3.947974583E0
6.483932290E0,-1.598315954E0,-1.785233498E0,2.746350050E0,3.644737457E0
6.488937499E0,-2.309302807E0,-1.426731110E0,2.844873905E0,3.932143010E0
6.493942707E0,-2.932107687E0,-8.964271545E-1,2.911835432E0,4.228430290E0
6.498947915E0,-3.415184736E0,-3.522653580E-1,2.630257845E0,4.325024161E0
6.503953124E0,-3.802081823E0,3.492603302E-1,1.621026635E0,4.147955680E0
6.508958332E0,-4.100254059E0,9.595355988E-1,1.544808596E-2,4.211060502E0
6.513963540E0,-4.326043129E0,7.759132385E-1,-1.807023048E0,4.752054588E0
6.518968749E0,-4.017755508E0,5.261173248E-1,-2.882671118E0,4.972821286E0
6.523973957E0,-3.454313040E0,2.768363953E-1,-2.982889175E0,4.572367527E0
6.528979165E0,-3.078202963E0,-3.451871872E-1,-2.559513569E0,4.018158457E0
6.533984374E0,-2.802563429E0,-1.334733009E0,-2.006163597E0,3.696020341E0
6.538986145E0,-2.541788816E0,-2.323021889E0,-1.475981355E0,3.746417227E0
6.543987915E0,-2.535362244E0,-2.673946381E0,-9.065080285E-1,3.794707862E0
6.548990103E0,-1.879134655E0,-3.603025436E0,-1.349319518E-1,4.065851200E0
6.553992811E0,-9.060244560E-1,-4.626294136E0,2.827500105E-1,4.722650243E0
6.558996092E0,3.912329674E-3,-5.375221252E0,-1.979202777E-1,5.378865239E0
6.564000051E0,6.673011184E-1,-5.749613762E0,-1.634035587E0,6.014434428E0
6.569004686E0,1.068981051E0,-5.912545204E0,-3.582399130E0,6.995319493E0
6.574009999E0,1.280175686E0,-5.921778679E0,-5.546223164E0,8.213823950E0
6.579015936E0,1.009376407E0,-6.189074516E0,-6.636704445E0,9.130680697E0
6.584022447E0,1.348080635E-1,-6.996750832E0,-6.747073650E0,9.720889787E0
6.589029478E0,-1.058005691E0,-8.119699478E0,-6.073204517E0,1.019473927E1
6.594036926E0,-2.070108175E0,-8.601003647E0,-5.198955536E0,1.026117685E1
6.599044686E0,-2.254687309E0,-8.670902252E0,-3.412357330E0,9.587092535E0
6.604052655E0,-1.798637390E0,-8.052501678E0,-2.430731535E0,8.601531000E0
6.609060676E0,-1.563933849E0,-6.713023186E0,-2.268656492E0,7.256539923E0
6.614068072E0,-1.286841154E0,-4.615043640E0,-2.910823822E0,5.606022055E0
6.619073280E0,-8.588573933E-1,-2.452832222E0,-3.399798393E0,4.279328341E0
6.624078436E0,-1.804734766E-1,-8.911361694E-1,-3.779148817E0,3.886985996E0
6.629083592E0,3.992130756E-1,-3.921794891E-2,-3.804770470E0,3.825857741E0
6.634088749E0,1.048625588E0,2.998867035E-1,-3.195021152E0,3.376049144E0
6.639093905E0,1.239506483E0,7.389049530E-1,-2.858817577E0,3.202373306E0
6.644099061E0,2.560866117E0,-1.573123932E-1,-6.831720471E-1,2.655090678E0
6.649104217E0,2.735671997E0,1.856546402E-1,-1.291749716E0,3.031004165E0
6.654109374E0,2.032945156E0,6.762552261E-1,-2.670308590E0,3.423555915E0
6.659114530E0,1.297234654E0,1.687528610E0,-2.972681284E0,3.656146137E0
6.664119686E0,7.691766024E-1,2.271900654E0,-2.649007797E0,3.573570698E0
6.669124842E0,2.641385496E-1,2.855450630E0,-2.105359554E0,3.557514066E0
6.674129999E0,2.741454840E-1,2.634619713E0,-1.240361214E0,2.924871402E0
6.679135155E0,4.839192629E-1,2.375522614E0,-2.353316545E-1,2.435706577E0
6.684140311E0,3.664789200E-1,2.164199352E0,5.181494951E-1,2.255336900E0
6.689145467E0,4.769440591E-1,2.081902027E0,1.087061882E0,2.396559038E0
6.694150624E0,3.896892369E-1,2.243294239E0,1.184061408E0,2.566364776E0
6.699155780E0,-1.019185185E-1,2.059939861E0,1.449389696E0,2.520807432E0
6.704160936E0,-5.336958766E-1,2.034558773E0,1.518073201E0,2.593994397E0
6.709166092E0,-7.428230047E-1,2.167082310E0,1.111896396E0,2.546437776E0
6.714171249E0,-9.880040884E-1,2.165637493E0,5.706001520E-1,2.447799494E0
6.719176405E0,-1.384175420E0,1.939565182E0,1.365876198E-2,2.382864085E0
6.724181561E0,-1.523986816E0,1.766550064E0,-5.016788244E-1,2.386402436E0
6.729186717E0,-1.427605748E0,1.986123562E0,-6.601523161E-1,2.533484963E0
6.734191874E0,-1.709773660E0,2.076619625E0,-8.454273939E-1,2.819649360E0
6.739193488E0,-2.113521576E0,2.286942959E0,-9.141595364E-1,3.245422809E0
6.744195103E0,-2.184327364E0,2.731793404E0,-9.672384262E-1,3.628984900E0
6.749197134E0,-2.396075964E0,3.181393147E0,-1.014589667E0,4.109967709E0
6.754199686E0,-2.523116589E0,3.415742874E0,-8.935214281E-1,4.339561872E0
6.759202863E0,-2.230223179E0,3.568935394E0,-6.896845102E-1,4.264605492E0
6.764206717E0,-1.875491142E0,3.875412464E0,-7.667185068E-1,4.373116287E0
6.769211249E0,-1.496210337E0,4.258509636E0,-8.999626637E-1,4.602551736E0
6.774216457E0,-1.125827193E0,4.651169777E0,-7.641496658E-1,4.846111005E0
6.779222342E0,-7.748441696E-1,5.067639828E0,-5.071799755E-1,5.151561748E0
6.784228853E0,-4.965854883E-1,5.325970650E0,-2.186474800E-1,5.353537824E0
6.789235884E0,-1.575199664E-1,5.502811432E0,-1.706444025E-1,5.507709661E0
6.794243332E0,2.209493518E-2,5.612610817E0,-1.667822599E-1,5.615131761E0
6.799251092E0,-6.783857942E-3,5.578889847E0,2.312123775E-2,5.578941883E0
6.804259061E0,-5.804218352E-2,5.373025894E0,1.511133909E-1,5.375463832E0
6.809267134E0,-1.084141135E-1,5.176885128E0,3.375914097E-1,5.189013510E0
6.814275207E0,-1.148822308E-1,4.837386608E0,4.010336995E-1,4.855340889E0
6.819280363E0,-9.200595319E-2,4.378623009E0,4.420020580E-1,4.401837158E0
6.824285520E0,-5.919437110E-2,3.915576458E0,4.122341871E-1,3.937661742E0
6.829290676E0,-4.082712531E-2,3.472229958E0,2.729488611E-1,3.483180847E0
6.834295832E0,-2.639245987E-2,3.134607792E0,1.103093624E-1,3.136659166E0
6.839300988E0,-1.111176312E-1,2.907353878E0,-5.194222927E-2,2.909940153E0
6.844306145E0,-2.273189574E-1,2.656419754E0,-1.566829681E-1,2.670728247E0
6.849311301E0,-3.514296710E-1,2.271855354E0,-2.903958559E-1,2.317144648E0
6.854316457E0,-5.550916791E-1,1.854212284E0,-3.429807425E-1,1.965671833E0
6.859321613E0,-8.806685805E-1,1.398634911E0,-3.377480507E-1,1.686958953E0
6.864326770E0,-1.298174977E0,1.005468369E0,-2.307403088E-1,1.658151381E0
6.869331926E0,-1.610454440E0,5.167016983E-1,6.495380402E-2,1.692561120E0
6.874337082E0,-1.763852000E0,-1.441173553E-1,5.449267030E-1,1.851725898E0
6.879342238E0,-1.695737123E0,-1.034120560E0,1.194439769E0,2.317674715E0
6.884347395E0,-9.909796715E-1,-2.841590881E0,2.112870216E0,3.677077644E0
6.889352551E0,-1.740615487E0,-3.188302040E0,2.905817747E0,4.651751171E0
6.894357707E0,-2.499444723E0,-2.606555939E0,3.384742737E0,4.949529390E0
6.899362863E0,-2.484810352E0,-1.704588890E0,3.668323278E0,4.747262521E0
6.904368020E0,-2.227301598E0,-4.348306656E-1,3.746746540E0,4.380417760E0
6.909373176E0,-1.918346167E0,6.331253052E-1,3.745137453E0,4.255226693E0
6.914378332E0,-1.635146976E0,1.743350029E0,3.745537758E0,4.443200204E0
6.919383488E0,-1.560988903E0,2.431834221E0,3.824414015E0,4.793396144E0
6.924388645E0,-1.305263877E0,2.531617165E0,3.761787891E0,4.718458159E0
6.929393801E0,-8.229470849E-1,2.134137630E0,3.634835958E0,4.294626617E0
6.934398957E0,-8.389650583E-1,1.636835098E0,3.587345123E0,4.031393871E0
6.939400520E0,-1.156659722E0,1.178503036E0,3.413632870E0,3.792047005E0
6.944402082E0,-1.259530187E0,7.494783401E-1,3.257603407E0,3.572130181E0
6.949404061E0,-1.483334899E0,1.679048538E-1,3.081575871E0,3.424118034E0
6.954406561E0,-1.531082392E0,-6.282501221E-1,2.757101774E0,3.215668158E0
6.959409686E0,-1.431399584E0,-1.447425842E0,2.480580330E0,3.208928966E0
6.964413488E0,-1.107862115E0,-2.308710098E0,2.337928295E0,3.467478839E0
6.969418280E0,-9.567846060E-1,-3.135514259E0,2.314637184E0,4.013032737E0
6.974423749E0,-3.699917197E-1,-3.674368858E0,2.395706892E0,4.401964549E0
6.979429842E0,5.900076628E-1,-3.786951065E0,3.121474743E0,4.942945679E0
6.984436509E0,2.389346361E0,-3.124901772E0,4.696070671E0,6.125933958E0
6.989443697E0,3.283822298E0,-2.708035469E0,5.075672626E0,6.624152595E0
6.994451301E0,3.282502651E0,-2.024250984E0,4.934901237E0,6.263039671E0
6.999459165E0,2.770201683E0,-7.963647842E-1,4.591712952E0,5.421442803E0
7.004467186E0,2.155983925E0,4.729328156E-1,4.315918922E0,4.847585819E0
7.009475259E0,2.146417618E0,1.405888557E0,4.067140579E0,4.808873435E0
7.014482082E0,2.300635815E0,1.577323914E0,3.887781143E0,4.784947032E0
7.019487238E0,2.355788231E0,1.217729568E0,3.543721199E0,4.426122844E0
7.024492395E0,2.336075544E0,7.629213333E-1,2.993085623E0,3.872706993E0
7.029497551E0,1.847915530E0,3.803586960E-1,2.040630102E0,2.779142990E0
7.034502707E0,1.157263279E0,2.899646759E-1,1.331360817E0,1.787696684E0
7.039507863E0,9.492660761E-1,2.187147141E-1,1.344459057E0,1.660274786E0
7.044513020E0,1.369960070E0,2.381515503E-1,1.510047555E0,2.052742159E0
7.049518176E0,1.952765107E0,2.572202682E-1,1.649822235E0,2.569312600E0
7.054523332E0,2.224676847E0,-4.447174072E-2,1.376785517E0,2.616620563E0
7.059528488E0,2.148491621E0,-7.046718597E-1,7.034048438E-1,2.367985864E0
7.064533645E0,2.127771378E0,-1.263664246E0,-1.055258811E-1,2.476972764E0
7.069538801E0,2.219194651E0,-1.869698524E0,-1.044033051E0,3.083926471E0
7.074543957E0,1.886243582E0,-2.517808914E0,-1.733056068E0,3.591762786E0
7.079549113E0,1.158301711E0,-2.968729019E0,-2.323499203E0,3.943813305E0
7.084554270E0,5.913071632E-1,-3.093563080E0,-2.949950933E0,4.315320058E0
7.089559426E0,-7.231001556E-2,-2.959729195E0,-3.730696678E0,4.762701266E0
7.094564582E0,-7.350455523E-1,-2.902385712E0,-4.888306141E0,5.732335624E0
7.099569738E0,-1.160397887E0,-3.093671799E0,-5.975181580E0,6.827893040E0
7.104574895E0,-1.041492939E0,-3.284698486E0,-6.887874126E0,7.701737575E0
7.109580051E0,-7.779577374E-1,-3.384730339E0,-7.561990738E0,8.321377388E0
7.114585207E0,-6.415553093E-1,-3.250502586E0,-8.149375916E0,8.797140904E0
7.119590363E0,-8.238583207E-1,-2.982797623E0,-8.304702759E0,8.862500330E0
7.124595520E0,-1.155986309E0,-3.284785271E0,-7.592693806E0,8.353150175E0
7.129600676E0,-1.350371003E0,-3.357009888E0,-6.015823841E0,7.020196131E0
7.134605832E0,-1.467430830E0,-3.472235680E0,-4.478250504E0,5.853588765E0
7.139607342E0,-1.426615357E0,-3.582506180E0,-3.499340296E0,5.207203128E0
7.144608853E0,-1.218353510E0,-3.802590370E0,-3.021990299E0,5.007644573E0
7.149610780E0,-7.913376093E-1,-3.716339111E0,-2.858262062E0,4.754687542E0
7.154613228E0,-4.718571305E-1,-3.123391151E0,-2.847109556E0,4.252558555E0
7.159616301E0,-8.766430020E-1,-3.253551483E0,-2.910860777E0,4.452775614E0
7.164620051E0,-1.554478526E0,-3.431689262E0,-2.743984461E0,4.660723699E0
7.169624530E0,-2.591064215E0,-3.337434769E0,-2.534339666E0,4.926962771E0
7.174629738E0,-2.763151646E0,-3.071673393E0,-2.516523361E0,4.837672403E0
7.179635624E0,-2.410112858E0,-2.950270653E0,-2.509197950E0,4.561668036E0
7.184642134E0,-2.152324915E0,-2.934717178E0,-2.289262295E0,4.299510357E0
7.189649165E0,-1.967164874E0,-2.556126595E0,-1.993137956E0,3.791585383E0
7.194656665E0,-1.783766270E0,-1.948788643E0,-1.637796640E0,3.108372100E0
7.199664478E0,-1.039559841E0,-1.194180489E0,-1.422039390E0,2.128132451E0
7.204672499E0,-7.574669123E-1,-2.587919235E-1,-1.370574594E0,1.587200082E0
7.209680624E0,-5.188645720E-1,8.047208786E-1,-1.402054191E0,1.697808025E0
7.214688749E0,-4.652370811E-1,1.565967560E0,-1.318498373E0,2.099318437E0
7.219693905E0,-3.340372443E-1,1.944061756E0,-1.161079407E0,2.288899819E0
7.224699061E0,2.784810662E-1,1.872289658E0,-1.111037254E0,2.194863104E0
7.229704217E0,9.833784699E-1,1.719017029E0,-7.810415030E-1,2.128867913E0
7.234709374E0,1.136923909E0,1.283123970E0,-4.300404191E-1,1.767466509E0
7.239714530E0,1.068510413E0,1.287041664E0,-1.862641871E-1,1.683117671E0
7.244719686E0,1.074249983E0,1.433626175E0,-1.821587384E-1,1.800688435E0
7.249724842E0,1.688506842E0,2.038321018E0,-1.291819215E-1,2.649999226E0
7.254729999E0,2.201269865E0,2.655841827E0,-1.787121892E-1,3.454131277E0
7.259735155E0,2.530987740E0,3.267040730E0,-1.712046266E-1,4.136274301E0
7.264740311E0,2.749823332E0,3.785852909E0,-1.193563938E-1,4.680647023E0
7.269745467E0,2.944282055E0,4.408476830E0,3.547739983E-2,5.301388820E0
7.274750624E0,3.742496967E0,5.312353134E0,2.877134323E0,7.106706782E0
7.279755780E0,3.700333357E0,5.804574013E0,1.780185699E0,7.110176337E0
7.284760936E0,2.907150507E0,5.077090740E0,6.763652563E-1,5.889468942E0
7.289766092E0,2.016743898E0,3.934275150E0,-4.808996916E-1,4.447138566E0
7.294771249E0,7.554619312E-1,2.849937916E0,-7.499660254E-1,3.042255396E0
7.299776405E0,5.544258356E-1,2.082116604E0,-1.521816254E-1,2.160036297E0
7.304781561E0,4.918657243E-1,1.649471283E0,3.438344002E-1,1.755251976E0
7.309786717E0,4.592598677E-1,1.542267799E0,7.000840902E-1,1.754886698E0
7.314791874E0,3.672848344E-1,1.836895466E0,7.111173868E-1,2.003689357E0
7.319797030E0,1.594887972E-1,2.231739044E0,5.202807188E-1,2.297126001E0
7.324802186E0,-1.251851618E-1,2.540262222E0,1.508886814E-1,2.547816884E0
7.329807342E0,-2.096351981E-1,2.748265743E0,-3.737291098E-1,2.781471725E0
7.334812499E0,8.656144142E-2,2.631066799E0,-6.428505182E-1,2.709845415E0
7.339817655E0,4.505272508E-1,2.337035179E0,-1.414031506E0,2.768427953E0
7.344822811E0,4.865522385E-1,1.669753551E0,-3.817324638E0,4.194851296E0
7.349827967E0,3.159387708E-1,1.365903854E0,-2.969723463E0,3.284017067E0
7.354833124E0,1.335635185E-1,1.391664505E0,-2.434007406E0,2.806948764E0
7.359838280E0,-4.806844592E-1,1.460062027E0,-2.767802477E0,3.166002088E0
7.364843436E0,-4.987235069E-1,1.834328175E0,-2.237458944E0,2.935933841E0
7.369848592E0,-9.828847647E-2,2.050650597E0,-1.258054972E0,2.407806223E0
7.374853749E0,5.131654739E-1,2.826908588E0,-4.692176580E-1,2.911170930E0
7.379858905E0,1.279749870E0,3.684204578E0,8.253121376E-2,3.901017112E0
7.384864061E0,1.353839636E0,3.618178844E0,2.017643452E-1,3.868437509E0
7.389869217E0,1.296624184E0,3.237434387E0,4.963116646E-1,3.522575897E0
7.394874374E0,1.530484915E0,2.767456532E0,1.631436586E0,3.558480724E0
7.399879530E0,1.684063315E0,2.467016697E0,3.018774509E0,4.246791750E0
7.404884686E0,1.757228732E0,1.982316017E0,2.751068830E0,3.819137248E0
7.409889842E0,1.464905262E0,1.495293140E0,2.404494047E0,3.188015154E0
7.414894999E0,1.226195097E0,1.010769844E0,2.309820652E0,2.803655032E0
7.419900155E0,9.961045384E-1,7.918291092E-1,2.424316168E0,2.737978537E0
7.424905311E0,8.920069933E-1,5.081424713E-1,2.145613194E0,2.378558644E0
7.429910467E0,8.931009769E-1,3.556957245E-1,1.947366238E0,2.171723755E0
7.434915624E0,1.070521116E0,3.007507324E-1,2.015813828E0,2.302166773E0
7.439920780E0,1.428502321E0,2.568883896E-1,2.173099756E0,2.613230391E0
7.444925936E0,1.746899009E0,2.000312805E-1,2.442706823E0,3.009731763E0
7.449931092E0,2.031225443E0,2.496366501E-1,2.919876814E0,3.565652236E0
7.454936249E0,2.359539986E0,3.719530106E-1,3.728181601E0,4.427766484E0
7.459941405E0,2.570901394E0,4.998121262E-1,4.288052559E0,5.024613506E0
7.464946561E0,2.633113861E0,6.903715134E-1,4.809398174E0,5.526319954E0
7.469951717E0,2.704882860E0,7.136869431E-1,5.754964828E0,6.398856188E0
7.474956874E0,2.896462917E0,5.791292191E-1,6.677762032E0,7.301876049E0
7.479962030E0,2.644227266E0,1.813030243E-1,7.260149002E0,7.728814408E0
7.484967186E0,1.435247302E0,-3.070459366E-1,6.455392838E0,6.620144161E0
7.489972342E0,6.027922630E-1,2.814197540E-1,4.263073921E0,4.314667409E0
7.494977499E0,9.870815873E-1,2.567806244E-1,3.402003288E0,3.551604246E0
7.499982655E0,1.590439081E0,2.362899780E-1,3.242592335E0,3.619355533E0
7.504987811E0,1.892934203E0,-6.362886429E-1,3.921271324E0,4.400503600E0
7.509992967E0,1.015995264E0,-1.565413475E0,3.224062443E0,3.725230779E0
7.514998124E0,2.230761647E-1,-2.033681870E0,2.605854750E0,3.313020359E0
7.520003280E0,-6.304939389E-1,-2.007768631E0,2.265187740E0,3.091881786E0
7.525008436E0,-9.975659847E-1,-1.765746117E0,1.848533034E0,2.744097597E0
7.530013592E0,-1.299839258E0,-1.399299622E0,2.019411564E0,2.779504379E0
7.535018749E0,-1.634148002E0,-1.100604057E0,2.162250519E0,2.925251491E0
7.540023905E0,-1.987455964E0,-9.372205734E-1,2.316601753E0,3.192962151E0
7.545029061E0,-2.456735373E0,-8.856029510E-1,2.507302999E0,3.620277560E0
7.550034217E0,-2.684202433E0,-1.022542000E0,2.848238945E0,4.045120509E0
7.555039374E0,-2.796378374E0,-1.276215553E0,2.894204617E0,4.221951979E0
7.560044530E0,-2.790997267E0,-1.679845810E0,2.494158030E0,4.102727381E0
7.565049686E0,-2.833693504E0,-1.831228256E0,1.170548439E0,3.571190201E0
7.570054842E0,-2.989309072E0,-1.825971603E0,-4.983498454E-1,3.538148329E0
7.575059999E0,-2.953415155E0,-1.716546059E0,-2.401772738E0,4.175847667E0
7.580065155E0,-2.694344282E0,-1.526770592E0,-3.172650099E0,4.433534504E0
7.585070311E0,-2.734449387E0,-1.366580963E0,-2.836434603E0,4.170146068E0
7.590075467E0,-2.580640316E0,-1.513151169E0,-2.294995546E0,3.770455604E0
7.595080624E0,-2.434352875E0,-1.946796417E0,-1.731354713E0,3.565624679E0
7.600085780E0,-2.367956161E0,-2.638296127E0,-1.203501225E0,3.743826657E0
7.605091092E0,-2.115117788E0,-3.419784546E0,-7.308905125E-1,4.086912103E0
7.610096353E0,-1.760137081E0,-4.094922066E0,-3.809580803E-1,4.473432500E0
7.615101509E0,-1.563668847E0,-4.548982620E0,-2.632735074E-1,4.817428368E0
7.620106665E0,-1.292025924E0,-4.877931595E0,-8.014828563E-1,5.109395502E0
7.625111822E0,-1.198091149E0,-4.666065216E0,-2.644430876E0,5.495507407E0
7.630116978E0,-7.641589642E-1,-3.995721817E0,-4.973174572E0,6.425122340E0
7.635122134E0,-1.673748791E-1,-3.513593674E0,-6.855502605E0,7.705275519E0
7.640127290E0,5.783113837E-2,-3.277456284E0,-7.522143841E0,8.205346555E0
7.645132447E0,-8.971434832E-2,-3.201537132E0,-6.707702637E0,7.433112628E0
7.650137603E0,-2.426484525E-1,-3.563341141E0,-5.052120209E0,6.187099236E0
7.655142759E0,-3.919766545E-1,-4.366661072E0,-3.588849068E0,5.665793170E0
7.660147915E0,-6.220442653E-1,-4.409212112E0,-3.686090469E0,5.780601480E0
7.665153072E0,6.393516064E-2,-3.954227448E0,-4.176718712E0,5.751954590E0
7.670158176E0,1.082458377E0,-3.150630951E0,-4.186409950E0,5.350160726E0
7.675163280E0,1.764403939E0,-2.233428001E0,-4.201310158E0,5.074675255E0
7.680168384E0,1.859544396E0,-1.207804680E0,-4.042179585E0,4.610413572E0
7.685173488E0,1.699056149E0,-3.895664215E-1,-3.923434019E0,4.293237507E0
7.690178592E0,1.739203453E0,-4.133319855E-2,-3.849521160E0,4.224375723E0
7.695183697E0,1.555571079E0,8.155632019E-2,-3.623939037E0,3.944538878E0
7.700188801E0,1.423070908E0,-1.081752777E-2,-3.336925983E0,3.627715927E0
7.705193905E0,1.361968994E0,-4.280376434E-1,-2.638236046E0,2.999744189E0
7.710199009E0,1.305997968E0,-4.044723511E-1,-2.401754856E0,2.763630757E0
7.715204113E0,1.059939623E0,7.381820679E-2,-2.118930340E0,2.370398050E0
7.720209217E0,7.971167564E-1,2.602977753E-1,-2.122838020E0,2.282452916E0
7.725214322E0,4.864828587E-1,6.481075287E-2,-2.057538033E0,2.115260920E0
7.730219426E0,2.114375830E-1,-3.300771713E-1,-1.874114394E0,1.914670090E0
7.735224530E0,-4.148626328E-2,-6.322135925E-1,-1.657722235E0,1.774671278E0
7.740229634E0,-1.532354355E-1,-7.987251282E-1,-1.302646279E0,1.535685599E0
7.745234738E0,-2.256243229E-1,-9.638290405E-1,-8.906750679E-1,1.331606110E0
7.750239842E0,-2.359871864E-1,-1.204156876E0,-4.275782108E-1,1.299425588E0
7.755244947E0,-4.289317131E-1,-1.476576805E0,-1.029574871E-2,1.537649986E0
7.760250051E0,-4.370490313E-1,-1.350681305E0,3.549637198E-1,1.463335603E0
7.765255155E0,-5.783833265E-1,-8.941373825E-1,7.096915245E-1,1.279715199E0
7.770260259E0,-9.556574225E-1,-6.575717926E-1,9.662936926E-1,1.509769940E0
7.775265363E0,-1.331134796E0,-3.395338058E-1,1.271923661E0,1.872162613E0
7.780270467E0,-1.687047839E0,2.151584625E-2,1.434457183E0,2.214556559E0
7.785275572E0,-2.029077530E0,4.015016556E-1,1.401472569E0,2.498496460E0
7.790280676E0,-2.337975502E0,9.104061127E-1,1.345670462E0,2.847068269E0
7.795285780E0,-2.374443054E0,1.457186699E0,1.171900511E0,3.022370543E0
7.800290884E0,-2.635598660E0,2.099186420E0,1.005384207E0,3.516214061E0
7.805196092E0,-3.020196438E0,2.726286411E0,8.323572874E-1,4.152955908E0
7.810109322E0,-3.029505730E0,3.262064934E0,7.347168326E-1,4.512070636E0
7.815033905E0,-3.232958794E0,4.022185802E0,6.365177035E-1,5.199534208E0
7.819972655E0,-3.377205849E0,4.786247730E0,5.430302620E-1,5.882904771E0
7.824927655E0,-3.621050119E0,5.568363190E0,4.071410894E-1,6.654655246E0
7.829900259E0,-3.424937248E0,6.028703213E0,2.537600994E-1,6.938288821E0
7.834891040E0,-3.172257423E0,6.416231155E0,2.318880558E-1,7.161355421E0
7.839899842E0,-2.552241325E0,6.740508080E0,2.750878334E-1,7.212770499E0
7.844925832E0,-2.026153564E0,6.714591980E0,3.107740879E-1,7.020514529E0
7.849967447E0,-1.429341793E0,6.654563904E0,3.321444988E-1,6.814437517E0
7.855022603E0,-1.073531389E0,6.507980347E0,1.946322918E-1,6.598799858E0
7.860088801E0,-6.991784573E-1,6.447342873E0,2.087074518E-1,6.488500553E0
7.865163124E0,-4.678022265E-1,6.247919083E0,2.258629799E-1,6.269477320E0
7.870242499E0,-5.354729295E-1,5.967334270E0,1.942595243E-1,5.994459635E0
7.875323749E0,-4.747990370E-1,5.610533237E0,2.149595022E-1,5.634689425E0
7.880374530E0,-3.865992427E-1,5.215777397E0,3.983881474E-1,5.245236501E0
7.885379686E0,-4.726812243E-1,4.888198376E0,6.920239329E-1,4.959516914E0
7.890384842E0,-3.650044799E-1,4.488870621E0,8.095294237E-1,4.575863373E0
7.895389999E0,-6.713752151E-1,4.027348995E0,8.329561353E-1,4.167025382E0
7.900395103E0,-6.653727889E-1,3.494018555E0,8.534266353E-1,3.657762107E0
7.905400207E0,-5.153464675E-1,2.965270519E0,8.910319209E-1,3.138845189E0
7.910405311E0,-6.709343195E-1,2.297587395E0,9.459211826E-1,2.573679774E0
7.915410415E0,-7.266808152E-1,1.658408642E0,9.363819957E-1,2.038429658E0
7.920415520E0,-5.448742509E-1,1.057048798E0,7.386229038E-1,1.399929964E0
7.925420624E0,-3.350436091E-1,3.833637238E-1,3.873445988E-1,6.397326027E-1
7.930425728E0,-3.141046166E-1,-5.152883530E-1,3.845993280E-1,7.156119340E-1
7.935430832E0,-7.344039679E-1,-1.451604843E0,6.172286272E-1,1.739964651E0
7.940435936E0,-8.348483443E-1,-2.248123169E0,8.095961213E-1,2.531101622E0
7.945441040E0,-1.098055601E0,-2.818548203E0,9.697219729E-1,3.176523379E0
7.950446145E0,-1.561264992E0,-3.224915504E0,1.172544360E0,3.769945445E0
7.955451249E0,-1.776021719E0,-3.380870819E0,1.327205658E0,4.043020591E0
7.960456353E0,-2.156077623E0,-2.889191628E0,1.537941217E0,3.919357367E0
7.965461457E0,-2.063490868E0,-2.625462532E0,1.813598394E0,3.800024632E0
7.970466561E0,-1.617474794E0,-2.201540947E0,2.386683941E0,3.627570466E0
7.975471665E0,-1.365001798E0,-1.555491447E0,2.854295254E0,3.525590014E0
7.980476770E0,-1.530490637E0,-8.841047287E-1,3.271426201E0,3.718369555E0
7.985481874E0,-1.668918848E0,-2.308187485E-1,3.510495186E0,3.893859765E0
7.990486978E0,-1.685999393E0,5.330076218E-1,3.635319471E0,4.042553492E0
7.995492082E0,-1.737266064E0,1.071932793E0,3.833483696E0,4.343124513E0
8.000497186E0,-1.532521367E0,1.524510384E0,3.909806252E0,4.467587556E0
8.005498957E0,-1.385192633E0,1.837750912E0,3.889521599E0,4.519343460E0
8.010500728E0,-1.321202159E0,1.844042301E0,3.883753538E0,4.497733729E0
8.015502915E0,-1.313100934E0,1.567453384E0,3.673172712E0,4.203967406E0
8.020505624E0,-1.084348202E0,1.357259750E0,3.340268612E0,3.765017856E0
8.025508905E0,-7.555450201E-1,9.884157181E-1,2.915028095E0,3.169416777E0
8.030512811E0,-4.845432043E-1,3.701963425E-1,2.584980488E0,2.655927629E0
8.035517395E0,5.465674400E-2,-4.157066345E-1,2.331254482E0,2.368659289E0
8.040522655E0,5.611318946E-1,-1.512460709E0,2.115623474E0,2.660501660E0
8.045528540E0,1.165037513E0,-2.814293861E0,2.023829460E0,3.656972522E0
8.050534999E0,1.857062101E0,-3.909521103E0,2.045542240E0,4.787199386E0
8.055541978E0,2.527442694E0,-4.444456100E0,2.257133722E0,5.588900539E0
8.060549374E0,2.994295597E0,-4.290643692E0,2.643681526E0,5.862122604E0
8.065557082E0,3.239351749E0,-3.491842270E0,3.127842903E0,5.698224585E0
8.070564999E0,3.407258987E0,-2.211321831E0,3.503514528E0,5.364137591E0
8.075572967E0,3.723283291E0,-8.035793304E-1,3.632415295E0,5.263365756E0
8.080580363E0,3.817173481E0,3.484077454E-1,3.543784142E0,5.220211431E0
8.085585520E0,3.703729391E0,1.225798607E0,3.061252117E0,4.958977531E0
8.090590624E0,3.648298264E0,2.025146961E0,2.606813669E0,4.920038408E0
8.095595728E0,3.710809469E0,2.306843758E0,2.146973610E0,4.868380708E0
8.100600832E0,3.728989601E0,2.105195522E0,1.541987181E0,4.551366399E0
8.105605936E0,3.691009998E0,1.846245289E0,1.025834441E0,4.252588950E0
8.110611040E0,3.538553715E0,1.558657646E0,6.364790797E-1,3.918658146E0
8.115616145E0,3.329554558E0,1.142246246E0,4.203183651E-1,3.545042675E0
8.120621249E0,3.074027538E0,5.017900467E-1,3.086063862E-1,3.129964290E0
8.125626353E0,2.762680054E0,-2.904109955E-1,2.946730852E-1,2.793487400E0
8.130631457E0,2.347589970E0,-1.138342857E0,3.676156998E-1,2.634794950E0
8.135636561E0,1.829280734E0,-2.060853004E0,2.106741667E-1,2.763650976E0
8.140641665E0,1.357017040E0,-2.875759125E0,-3.688086271E-1,3.201172534E0
8.145646770E0,9.838858843E-1,-3.530102730E0,-1.349294305E0,3.905157082E0
8.150651874E0,2.516057491E-1,-3.741515160E0,-2.813817501E0,4.688263012E0
8.155656978E0,-6.994982362E-1,-3.534510612E0,-4.579350948E0,5.826878938E0
8.160662082E0,-1.548185825E0,-3.101472855E0,-6.326270103E0,7.213716562E0
8.165667186E0,-2.122256994E0,-2.806898117E0,-7.633744240E0,8.405754155E0
8.170672290E0,-2.426671267E0,-2.713476181E0,-8.134152412E0,8.911572358E0
8.175677395E0,-2.490555286E0,-2.807153702E0,-7.786529064E0,8.643668921E0
8.180682499E0,-2.323933840E0,-3.202728271E0,-7.307742119E0,8.310308764E0
8.185687603E0,-2.061497450E0,-3.627367973E0,-7.013173103E0,8.160402388E0
8.190692707E0,-1.794809341E0,-3.837164879E0,-6.444030285E0,7.711724917E0
8.195697811E0,-1.739951491E0,-3.841753960E0,-5.454998016E0,6.895180058E0
8.200702915E0,-1.892078161E0,-3.707917213E0,-4.461874485E0,6.102207285E0
8.205704686E0,-2.213051319E0,-3.473880768E0,-4.165228367E0,5.857864037E0
8.210706457E0,-2.784182310E0,-3.149410248E0,-4.372938156E0,6.065727010E0
8.215708645E0,-3.400015593E0,-2.739606857E0,-4.456991196E0,6.239416822E0
8.220711353E0,-3.851329565E0,-2.469497681E0,-4.445858479E0,6.379405601E0
8.225714634E0,-4.129645348E0,-2.496827126E0,-4.248406410E0,6.429391372E0
8.230718540E0,-4.274682999E0,-2.763934135E0,-4.108191013E0,6.541366833E0
8.235723124E0,-4.355387211E0,-3.026766777E0,-4.081225395E0,6.692317656E0
8.240728384E0,-4.325734615E0,-2.998510361E0,-3.874097347E0,6.535416942E0
8.245734270E0,-4.082310200E0,-2.818133354E0,-3.395946026E0,6.011620545E0
8.250740728E0,-3.602354527E0,-2.547777176E0,-2.676463604E0,5.160579822E0
8.255747707E0,-3.073385000E0,-2.220677376E0,-1.837207913E0,4.213364010E0
8.260755103E0,-2.376430750E0,-1.917851448E0,-1.018767357E0,3.219233482E0
8.265762811E0,-1.544822574E0,-1.552956581E0,-2.651832104E-1,2.206461661E0
8.270770728E0,-7.126159668E-1,-1.293275833E0,3.989465833E-1,1.529556234E0
8.275778697E0,2.896714211E-2,-1.152886391E0,8.918838501E-1,1.457889889E0
8.280785988E0,6.797689199E-1,-1.198536873E0,1.323736072E0,1.910720704E0
8.285791145E0,1.397456169E0,-1.334362030E0,1.685222030E0,2.563860188E0
8.290796301E0,2.095873594E0,-1.330771446E0,1.914708734E0,3.135242941E0
8.295801405E0,2.718329668E0,-1.087667465E0,2.070489168E0,3.585981329E0
8.300806509E0,3.261327982E0,-5.051136017E-1,2.005222321E0,3.861646865E0
