"Time (s)","Linear Acceleration x (m/s^2)","Linear Acceleration y (m/s^2)","Linear Acceleration z (m/s^2)","Absolute acceleration (m/s^2)"
2.257194400E-2,0.000000000E0,0.000000000E0,0.000000000E0,0.000000000E0
2.757210000E-2,8.485692739E-2,-2.515339851E-2,1.455450058E-1,1.703430078E-1
3.257262100E-2,1.782793999E-1,-6.405043602E-2,4.508442879E-1,4.890261493E-1
3.757366300E-2,2.540322244E-1,-5.873227119E-2,6.073455811E-1,6.609466738E-1
4.257533000E-2,3.135163188E-1,-7.552337646E-2,6.476635933E-1,7.235083915E-1
4.757772500E-2,3.660838902E-1,-2.292633057E-2,9.165148735E-1,9.871892142E-1
5.258090300E-2,3.861289024E-1,1.635339260E-1,1.284191608E0,1.350920783E0
5.758491300E-2,3.843597770E-1,3.320791721E-1,1.565773010E0,1.646102711E0
6.258975700E-2,3.240184784E-1,3.698351383E-1,1.662052155E0,1.733258021E0
6.759538200E-2,3.036925197E-1,2.116379738E-1,1.579693317E0,1.622482898E0
7.260173600E-2,3.702024817E-1,-1.118698120E-1,1.364032745E0,1.417797610E0
7.760871500E-2,4.097130001E-1,-5.450534821E-1,1.077054977E0,1.274753100E0
8.261621500E-2,3.563264608E-1,-9.622952938E-1,7.938413620E-1,1.297368447E0
8.762413200E-2,2.148771584E-1,-1.236167192E0,5.542817116E-1,1.371681354E0
9.263230900E-2,-1.985225081E-2,-1.347538471E0,3.436055183E-1,1.390797899E0
9.764059000E-2,-3.317729533E-1,-1.356393218E0,1.802692413E-1,1.407967632E0
1.026486110E-1,-7.293290496E-1,-1.200777531E0,1.051597595E-1,1.408845668E0
1.076533500E-1,-1.090276957E0,-9.290254116E-1,7.659912109E-2,1.434454420E0
1.126580900E-1,-1.361433148E0,-6.041785479E-1,1.054277420E-1,1.493200236E0
1.176628300E-1,-1.595651031E0,-2.543138266E-1,1.887674332E-1,1.626779296E0
1.226675690E-1,-1.814312100E0,8.464288712E-2,2.877321243E-1,1.838935179E0
1.276723090E-1,-2.050391912E0,3.964864016E-1,4.109525681E-1,2.128424411E0
1.326770480E-1,-2.239158392E0,6.286569834E-1,6.172137260E-1,2.406240364E0
1.376817880E-1,-2.291523218E0,7.668310404E-1,8.393793106E-1,2.558059055E0
1.426865280E-1,-2.126621723E0,6.771852970E-1,9.164237976E-1,2.412660867E0
1.476912670E-1,-1.854603052E0,6.674350500E-1,1.065664291E0,2.240683469E0
1.526960070E-1,-1.557253838E0,5.455224514E-1,1.326164246E0,2.116918956E0
1.577007460E-1,-1.187510252E0,3.753546476E-1,1.509874344E0,1.957240978E0
1.627054860E-1,-7.965970039E-1,1.171203852E-1,1.656796455E0,1.842079929E0
1.677102250E-1,-3.832534552E-1,-1.339123249E-1,1.847174644E0,1.891261454E0
1.727149650E-1,2.108812332E-2,-3.412572145E-1,2.024454117E0,2.053123393E0
1.777197050E-1,3.867802620E-1,-5.295786858E-1,2.203393936E0,2.298912220E0
1.827244440E-1,6.856201887E-1,-6.575601101E-1,2.412173271E0,2.592496911E0
1.877291840E-1,9.359386563E-1,-6.664969921E-1,2.668838501E0,2.905666594E0
1.927339230E-1,1.172870278E0,-5.691360235E-1,3.060748100E0,3.326818215E0
1.977386630E-1,1.282489538E0,-4.242651463E-1,3.365882874E0,3.626837169E0
2.027434030E-1,1.225326419E0,-2.843574286E-1,3.572918892E0,3.787879801E0
2.077481420E-1,1.088202000E0,-1.910486221E-1,3.731043816E0,3.891191478E0
2.127528820E-1,8.323099613E-1,-3.583276272E-2,3.790076256E0,3.880554327E0
2.177576210E-1,4.883177280E-1,1.986529827E-1,3.798955917E0,3.835359602E0
2.227623610E-1,5.142763257E-3,3.987163305E-1,3.697978973E0,3.719415229E0
2.277671000E-1,-5.322638750E-1,5.236475468E-1,3.480135918E0,3.559333869E0
2.327718400E-1,-1.064589381E0,5.664374828E-1,3.161810875E0,3.383969560E0
2.377765800E-1,-1.548047423E0,5.762606859E-1,2.786961555E0,3.239703986E0
2.427813710E-1,-1.990658641E0,5.823746920E-1,2.459372520E0,3.217203024E0
2.477861630E-1,-2.413857222E0,6.318329573E-1,2.224487305E0,3.342792746E0
2.527909550E-1,-2.819028854E0,6.441608667E-1,2.126939774E0,3.589671253E0
2.577957460E-1,-3.057764530E0,7.041032314E-1,2.229463577E0,3.849180838E0
2.628005380E-1,-3.049625874E0,6.085059643E-1,2.326415062E0,3.883645777E0
2.678053300E-1,-2.518879414E0,4.676330090E-2,1.868671417E0,3.136697813E0
2.728101210E-1,-2.879054070E0,2.544193268E-1,2.143216133E0,3.598201901E0
2.778149130E-1,-3.065071344E0,2.404088974E-1,2.088842392E0,3.716950541E0
2.828197050E-1,-2.890946388E0,1.372212172E-1,1.955414772E0,3.492856655E0
2.878244960E-1,-2.609983444E0,7.538723946E-2,2.049066544E0,3.319091821E0
2.928292880E-1,-2.329439163E0,-8.078384399E-2,2.186509132E0,3.195877818E0
2.978340800E-1,-2.068813562E0,-4.411807060E-1,2.136213303E0,3.006332857E0
3.028388710E-1,-1.602085352E0,-7.040603161E-1,1.990474701E0,2.650352418E0
3.078436630E-1,-9.094909430E-1,-1.376531005E0,1.524581909E0,2.246410777E0
3.128484550E-1,-4.372363091E-1,-1.944909334E0,1.138918877E0,2.295862390E0
3.178532460E-1,-4.944032431E-1,-2.065322638E0,8.560743332E-1,2.289728243E0
3.228580380E-1,-4.893397689E-1,-2.266889572E0,5.150823593E-1,2.375616042E0
3.278628300E-1,-3.310333490E-1,-2.336623669E0,5.089492798E-1,2.414212629E0
3.328676210E-1,-4.113888741E-2,-2.235075951E0,7.066230774E-1,2.344477146E0
3.378724130E-1,5.554038286E-2,-1.985126495E0,1.083157539E0,2.262088016E0
3.428772050E-1,3.077197671E-1,-1.855677843E0,1.609227180E0,2.475448208E0
3.478819960E-1,6.063036919E-1,-1.847982526E0,2.302722931E0,3.014162650E0
3.528867880E-1,9.398851991E-1,-2.061591864E0,2.992303848E0,3.753322198E0
3.578915800E-1,1.041837215E0,-2.264084101E0,3.617534637E0,4.392955549E0
3.628963710E-1,9.937168360E-1,-2.414938927E0,3.797791481E0,4.608972044E0
3.679011630E-1,8.304663897E-1,-2.586440802E0,3.634395599E0,4.537420172E0
3.729059550E-1,5.902978778E-1,-2.703341961E0,3.311968803E0,4.315744049E0
3.779107460E-1,3.282349706E-1,-2.636053324E0,3.116044044E0,4.094660646E0
3.829155380E-1,3.058701754E-2,-2.403791666E0,2.869662285E0,3.743542649E0
3.879203300E-1,-1.594021320E-1,-1.421360016E0,2.690683365E0,3.047203686E0
3.929251210E-1,-1.784214973E-1,-2.499825954E-1,2.657152176E0,2.674842652E0
3.979299130E-1,-1.953637600E-1,4.044240713E-1,2.585627556E0,2.624346716E0
4.029347050E-1,-3.646057844E-1,8.517355919E-1,2.644362450E0,2.801971388E0
4.079394960E-1,-2.947162390E-1,1.379863381E0,2.309386253E0,2.706315850E0
4.129442880E-1,-5.482589006E-1,2.066825867E0,1.321643829E0,2.513781891E0
4.179490800E-1,-8.099303246E-1,2.427060366E0,3.712234497E-1,2.585423756E0
4.229538710E-1,-9.900993109E-1,2.380750656E0,-4.167490005E-1,2.611886303E0
4.279586630E-1,-1.370929718E0,1.532601953E0,-1.074429512E0,2.320068062E0
4.329634550E-1,-2.724824429E0,-5.259141922E-1,-1.253849030E0,3.045224342E0
4.379682460E-1,-4.289484978E0,-2.753910065E0,-1.124689102E0,5.220021800E0
4.429730380E-1,-5.179987907E0,-3.641660213E0,-1.606297493E0,6.532545864E0
4.479778300E-1,-5.745932579E0,-1.169340849E0,-1.689978600E0,6.102386983E0
4.529826210E-1,-4.349652290E0,3.758556843E-1,2.885904312E0,5.233467898E0
4.579874130E-1,-3.061556101E0,1.776409030E0,1.348407745E0,3.787737880E0
4.629922050E-1,-8.348118067E-1,8.819737434E-1,-1.447454453E0,1.889421295E0
4.679969960E-1,7.572423220E-1,-3.225708008E-1,-3.165196896E0,3.270464683E0
4.730017880E-1,1.387971640E0,-9.786396027E-1,-3.516998768E0,3.905570519E0
4.780065800E-1,1.271032810E0,-1.571795464E0,-3.386951923E0,3.944300789E0
4.830113710E-1,1.029610157E0,-1.806365252E0,-3.333160877E0,3.928487486E0
4.880161630E-1,1.036236644E0,-2.010801554E0,-2.225800514E0,3.173530715E0
4.930209550E-1,1.608427763E0,-1.815639019E0,1.003782272E0,2.625102620E0
4.980257460E-1,1.654481649E0,-7.891490459E-1,-9.663591385E-1,2.072176568E0
5.030305380E-1,2.021452188E0,-1.670322418E-1,-2.834209442E0,3.485242012E0
5.080353300E-1,2.828920126E0,3.194413185E-1,-2.751912117E0,3.959526756E0
5.130401210E-1,3.267778873E0,5.731045008E-1,-2.686141491E0,4.268744973E0
5.180449130E-1,3.359073639E0,7.855129242E-1,-2.973435402E0,4.554308329E0
5.230497050E-1,3.592671156E0,5.385389328E-1,-3.435695171E0,5.000131151E0
5.280544960E-1,4.195958614E0,3.581707478E-1,-4.451138973E0,6.127560129E0
5.330592880E-1,4.386816502E0,5.490386486E-2,-5.578725338E0,7.097136736E0
5.380640800E-1,3.946852922E0,-2.505098581E-1,-6.637819767E0,7.726645743E0
5.430688710E-1,2.425157070E0,-5.810838938E-1,-7.017830849E0,7.447751011E0
5.480736630E-1,1.017552018E0,-5.769280195E-1,-6.948230743E0,7.046003726E0
5.530784550E-1,4.905879498E-1,-3.317904472E-2,-7.115952492E0,7.132920668E0
5.580832460E-1,6.010981798E-1,6.371459961E-1,-7.366281033E0,7.418178368E0
5.630880380E-1,1.341599822E0,1.106269360E0,-7.673826218E0,7.868375359E0
5.680928300E-1,1.477434039E0,1.244022846E0,-7.652823448E0,7.892788538E0
5.730976210E-1,1.204816222E0,1.167248249E0,-7.490805626E0,7.676341546E0
5.781024130E-1,1.128219604E0,9.626169205E-1,-7.449867249E0,7.596053767E0
5.831072050E-1,1.042144060E0,6.964117289E-1,-7.405782700E0,7.511103177E0
5.881119960E-1,9.000260234E-1,4.151285887E-1,-7.397220612E0,7.463327097E0
5.931167880E-1,5.978763103E-1,-1.533997059E-2,-7.567231655E0,7.590829093E0
5.981215800E-1,3.289048672E-1,-5.706598759E-1,-8.029083252E0,8.056054181E0
6.031263710E-1,1.373801231E-1,-1.025955200E0,-8.861123085E0,8.921376559E0
6.081311630E-1,-8.279085159E-2,-1.252241135E0,-9.646550179E0,9.727841103E0
6.131359550E-1,-2.127680779E-1,-1.197194338E0,-1.013800144E1,1.021066197E1
6.181407460E-1,-2.872231007E-1,-1.012194514E0,-1.026149368E1,1.031529386E1
6.231455380E-1,-6.170808077E-1,-4.462738037E-1,-1.085590839E1,1.088258683E1
6.281503300E-1,-1.087990284E0,5.061858892E-2,-1.149328136E1,1.154477378E1
6.331551210E-1,-1.330802917E0,6.435936689E-2,-1.182575607E1,1.190057500E1
6.381599130E-1,-1.418709755E0,-2.203913927E-1,-1.204988480E1,1.213511571E1
6.431647050E-1,-1.500674486E0,-6.871111393E-1,-1.216085815E1,1.227235172E1
6.481694960E-1,-1.481825113E0,-1.006766319E0,-1.198758984E1,1.212071343E1
6.531742880E-1,-1.398247957E0,-1.243134737E0,-1.160824680E1,1.175805576E1
6.581790800E-1,-1.237442493E0,-1.293783784E0,-1.120068550E1,1.134286102E1
6.631838710E-1,-1.333627939E0,-1.271265507E0,-1.109867668E1,1.125056903E1
6.681886630E-1,-1.376946926E0,-1.201988578E0,-1.104486275E1,1.119507715E1
6.731934550E-1,-1.332679272E0,-1.012088060E0,-1.097347260E1,1.110033590E1
6.781982460E-1,-1.498485088E0,-6.311351061E-1,-1.093577194E1,1.105598919E1
6.832030380E-1,-1.625072718E0,-6.340111494E-1,-1.087648106E1,1.101547419E1
6.882078300E-1,-1.502382517E0,-1.140647054E0,-1.079274940E1,1.095635289E1
6.932126210E-1,-1.522980213E0,-1.891041517E0,-1.061622620E1,1.089035194E1
6.982174130E-1,-1.774453163E0,-2.594000340E0,-1.026630974E1,1.073660269E1
7.032222050E-1,-2.157260180E0,-3.193363190E0,-9.735288620E0,1.047030011E1
7.082269960E-1,-2.444366932E0,-3.813959122E0,-9.191709518E0,1.024737712E1
7.132317880E-1,-2.506477594E0,-4.560751438E0,-8.688310623E0,1.012766632E1
7.182365800E-1,-2.282900333E0,-5.604605675E0,-8.100629807E0,1.011154993E1
7.232413710E-1,-1.880943060E0,-6.835022926E0,-7.351340771E0,1.021262436E1
7.282461630E-1,-1.398154259E0,-8.056821823E0,-6.272252560E0,1.030574429E1
7.332509550E-1,-1.073659897E0,-9.208816528E0,-4.719525814E0,1.040331540E1
7.382557460E-1,-9.322524071E-1,-1.007751465E1,-2.972282887E0,1.054797903E1
7.432605380E-1,-9.275856018E-1,-1.056931877E1,-1.181492329E0,1.067552521E1
7.482653300E-1,-9.516720772E-1,-1.070505810E1,4.885034561E-1,1.075837275E1
7.532701210E-1,-9.042363167E-1,-1.072903442E1,1.825798273E0,1.092077664E1
7.582749130E-1,-7.574901581E-1,-1.144517517E1,1.495389700E0,1.156728215E1
7.632797050E-1,7.017159462E-1,-1.045647335E1,2.777846098E0,1.084189417E1
7.682844960E-1,1.901910305E0,-9.791294098E0,3.375369787E0,1.052994891E1
7.732892880E-1,3.291975021E0,-8.843063354E0,4.633583546E0,1.051222933E1
7.782940800E-1,4.124637604E0,-8.419925690E0,5.686308384E0,1.096548617E1
7.832988710E-1,4.701005936E0,-8.636810303E0,6.044428825E0,1.154248972E1
7.883036630E-1,5.066843510E0,-8.923917770E0,5.873872757E0,1.182419522E1
7.933084550E-1,5.566269398E0,-9.322723389E0,6.261981010E0,1.253431021E1
7.983132460E-1,6.264407635E0,-1.022717762E1,6.310069561E0,1.355193503E1
8.033180380E-1,7.131622314E0,-1.102094650E1,6.122803688E0,1.448482046E1
8.083228300E-1,7.742161751E0,-1.103625488E1,5.735521317E0,1.465046741E1
8.133276210E-1,8.498687744E0,-1.012052155E1,5.147973537E0,1.418288692E1
8.183324130E-1,9.756732941E0,-8.904192924E0,5.356416702E0,1.425376053E1
8.233372050E-1,1.115420341E1,-7.557849884E0,6.233824730E0,1.484580478E1
8.283419960E-1,1.199224854E1,-6.074522018E0,7.390851974E0,1.534074756E1
8.333467880E-1,1.203969574E1,-4.696871281E0,8.181385040E0,1.529542201E1
8.383515800E-1,1.192583275E1,-3.777868271E0,8.475692749E0,1.511076249E1
8.433563710E-1,1.190695572E1,-3.347770691E0,8.415927887E0,1.496031434E1
8.483611630E-1,1.167325401E1,-3.221122742E0,8.125616074E0,1.458307675E1
8.533659550E-1,1.114191628E1,-3.298535347E0,7.571087837E0,1.386881411E1
8.583707460E-1,1.053593063E1,-3.466847420E0,6.766918659E0,1.299292321E1
8.633755380E-1,9.938620567E0,-3.690223217E0,5.647638798E0,1.201206686E1
8.683803300E-1,9.299253464E0,-3.904710770E0,4.321404457E0,1.097257571E1
8.733851210E-1,8.528717041E0,-4.051915169E0,2.954095840E0,9.893619820E0
8.783899130E-1,7.871295452E0,-4.226385117E0,1.744395971E0,9.102886386E0
8.833947050E-1,7.640605450E0,-4.470138550E0,7.332551479E-1,8.882491396E0
8.883994960E-1,7.491131306E0,-4.734652519E0,-6.221151352E-2,8.862158484E0
8.934042880E-1,7.270481110E0,-4.871230125E0,-7.294867039E-1,8.781852273E0
8.984090800E-1,7.056052685E0,-4.898580551E0,-1.227742672E0,8.677057276E0
9.034138710E-1,6.967926502E0,-4.954379082E0,-1.564607382E0,8.691712609E0
9.084186630E-1,6.963735104E0,-5.194809914E0,-1.848796368E0,8.882437990E0
9.134234550E-1,6.772841454E0,-5.499240875E0,-1.988866687E0,8.948107188E0
9.184282460E-1,6.587285995E0,-5.691033363E0,-2.116997719E0,8.958899311E0
9.234330380E-1,6.445093632E0,-5.723476410E0,-2.111827135E0,8.874526916E0
9.284378300E-1,6.322855473E0,-5.683480263E0,-1.735408306E0,8.677101544E0
9.334426210E-1,6.274022102E0,-5.662312508E0,-1.053117394E0,8.516700800E0
9.384474130E-1,6.303792477E0,-5.641448975E0,-1.495572925E-1,8.460857729E0
9.434521530E-1,6.312427521E0,-5.788282394E0,8.568974733E-1,8.607277593E0
9.484568920E-1,6.552738190E0,-5.721682549E0,1.762799978E0,8.876006576E0
9.534616320E-1,6.941663265E0,-5.486703873E0,2.721825838E0,9.257372422E0
9.584663710E-1,7.400534630E0,-5.070951462E0,3.700009584E0,9.704253318E0
9.634711110E-1,8.016864777E0,-4.457188606E0,4.852727890E0,1.037716816E1
9.684758500E-1,8.852678299E0,-3.756687164E0,6.019373894E0,1.134528420E1
9.734805900E-1,9.697669029E0,-2.941632271E0,6.950392723E0,1.228844758E1
9.784853300E-1,1.039507866E1,-2.103141785E0,7.503797531E0,1.299183756E1
9.834900690E-1,1.091858196E1,-1.088645935E0,7.878701687E0,1.350831308E1
9.884948090E-1,1.138066864E1,1.107025146E-1,8.078815460E0,1.395704600E1
9.934995480E-1,1.169319344E1,1.422445297E0,8.093852043E0,1.429211546E1
9.985042880E-1,1.155879307E1,2.583545685E0,7.600277424E0,1.407283278E1
1.003509028E0,1.098798084E1,3.256007671E0,6.492376328E0,1.317149420E1
1.008513767E0,1.027456665E1,3.894604206E0,5.171448708E0,1.214407442E1
1.013518507E0,9.719911575E0,4.861001492E0,3.761644363E0,1.150026021E1
1.018523246E0,9.161724091E0,5.695636749E0,2.326267958E0,1.103580486E1
1.023527986E0,8.457998276E0,6.141658306E0,8.960757852E-1,1.049097962E1
1.028532725E0,7.496817112E0,6.163213253E0,-6.453912258E-1,9.726458464E0
1.033537465E0,6.448822021E0,5.777724266E0,-2.180422783E0,8.928809925E0
1.038542205E0,5.312901497E0,5.112707138E0,-3.530637026E0,8.175089871E0
1.043546944E0,3.970230341E0,4.443464279E0,-4.500699520E0,7.467489533E0
1.048551684E0,2.574894428E0,3.853632450E0,-5.089159012E0,6.883320698E0
1.053556423E0,1.432274580E0,3.416755199E0,-5.234222889E0,6.412699573E0
1.058561163E0,6.256957054E-1,3.176750183E0,-5.081220150E0,6.025117016E0
1.063565903E0,1.457982063E-1,3.014575958E0,-4.894340515E0,5.750086469E0
1.068570642E0,-2.683949471E-2,3.025824547E0,-4.407891750E0,5.346573130E0
1.073575382E0,-7.841420174E-2,3.362625599E0,-3.638797760E0,4.955224399E0
1.078580121E0,-6.219220161E-2,3.951666832E0,-3.105232239E0,5.026132298E0
1.083584861E0,-1.529769897E-1,4.456679821E0,-2.933228970E0,5.337530250E0
1.088589600E0,-3.481993675E-1,4.747859955E0,-2.810165167E0,5.528150253E0
1.093594340E0,-4.865038395E-1,4.906351089E0,-2.648041010E0,5.596524653E0
1.098599080E0,-4.551343918E-1,4.946320534E0,-2.143455744E0,5.409957178E0
1.103603819E0,-4.569678307E-1,4.943664551E0,-1.366085052E0,5.149255010E0
1.108608559E0,-3.356659412E-1,4.783504486E0,-5.623037815E-1,4.828123065E0
1.113613350E0,-1.117980480E-1,4.585180759E0,1.136125326E-1,4.587950436E0
1.118618142E0,1.759872437E-1,4.458355427E0,6.372817755E-1,4.507109127E0
1.123622934E0,4.129765034E-1,4.412115574E0,1.079710722E0,4.561040306E0
1.128627725E0,5.326066017E-1,4.407853603E0,1.411601305E0,4.658912043E0
1.133632517E0,5.495710373E-1,4.373763561E0,1.622972846E0,4.697433009E0
1.138637309E0,5.737016201E-1,4.286011219E0,1.685106277E0,4.640970683E0
1.143642100E0,6.670196056E-1,4.206823826E0,1.698477745E0,4.585532522E0
1.148646892E0,7.387504578E-1,4.055158138E0,1.663216591E0,4.444811491E0
1.153651684E0,7.850360870E-1,3.922182083E0,1.688962460E0,4.341933687E0
1.158656475E0,6.591734886E-1,3.746198654E0,1.613429546E0,4.131787621E0
1.163661267E0,3.393487930E-1,3.532604218E0,1.312837601E0,3.783912357E0
1.168666059E0,1.179363728E-1,3.410548210E0,8.835256696E-1,3.525105061E0
1.173670850E0,3.724527359E-2,3.322404385E0,4.267633557E-1,3.349908218E0
1.178675642E0,-8.477067947E-2,3.201303959E0,-1.179546714E-1,3.204597699E0
1.183680434E0,-2.331938744E-1,3.023876667E0,-6.390111446E-1,3.099442647E0
1.188685225E0,-3.980371952E-1,2.733450890E0,-1.215963840E0,3.018071476E0
1.193690017E0,-5.311539173E-1,2.488159180E0,-1.480140567E0,2.943446396E0
1.198694809E0,-5.840713978E-1,2.412243843E0,-1.532227397E0,2.916809996E0
1.203699600E0,-5.804462433E-1,2.543400764E0,-1.477571011E0,2.998169672E0
1.208704392E0,-5.637686253E-1,2.632768631E0,-1.606837273E0,3.135479508E0
1.213709184E0,-3.959829807E-1,2.632855415E0,-1.656377316E0,3.135652400E0
1.218713975E0,-7.322716713E-2,2.582112312E0,-1.621428251E0,3.049868159E0
1.223718767E0,2.364962101E-1,2.547339439E0,-1.559409261E0,2.996101787E0
1.228723559E0,5.279750824E-1,2.571138382E0,-1.380193472E0,2.965542832E0
1.233728350E0,8.340032101E-1,2.609942436E0,-1.209423542E0,2.995006875E0
1.238733142E0,1.253932953E0,2.582155228E0,-1.058084011E0,3.059316140E0
1.243737934E0,1.776997328E0,2.473259926E0,-9.705274105E-1,3.196350672E0
1.248742725E0,2.354388475E0,2.316639900E0,-9.851295352E-1,3.446802246E0
1.253747517E0,2.847061872E0,2.055078030E0,-9.295754433E-1,3.632246897E0
1.258752309E0,3.074415445E0,1.689135551E0,-8.372083902E-1,3.606400855E0
1.263757100E0,3.185769796E0,1.386417389E0,-6.260609031E-1,3.530330668E0
1.268761892E0,3.338573933E0,1.165691853E0,-3.815774918E-1,3.556756216E0
1.273766684E0,3.536639929E0,1.031152248E0,-1.272565126E-1,3.686094297E0
1.278771475E0,3.760061502E0,8.485722542E-1,9.799528122E-2,3.855870907E0
1.283776267E0,3.922504902E0,5.796957016E-1,2.597931623E-1,3.973610990E0
1.288781059E0,3.980599642E0,4.009542465E-1,3.957388401E-1,4.020267037E0
1.293785850E0,3.905434847E0,3.164119720E-1,5.626565218E-1,3.958423959E0
1.298790642E0,3.768287659E0,2.204246521E-1,6.793109179E-1,3.835367287E0
1.303795434E0,3.640254021E0,5.081653595E-2,5.749788284E-1,3.685733619E0
1.308800225E0,3.534980059E0,-1.303157806E-1,3.658516407E-1,3.556249941E0
1.313805017E0,3.432655096E0,-3.469495773E-1,1.203366518E-1,3.452242159E0
1.318809809E0,3.380815029E0,-6.180744171E-1,-5.564820766E-2,3.437298790E0
1.323814600E0,3.370028734E0,-9.625015259E-1,-7.135927677E-2,3.505509236E0
1.328819392E0,3.386861324E0,-1.417918205E0,6.702160835E-2,3.672303577E0
1.333824184E0,3.432910442E0,-1.907116890E0,1.336990595E-1,3.929356738E0
1.338828975E0,3.409515381E0,-2.262495995E0,1.425758600E-1,4.094387761E0
1.343833767E0,3.403762817E0,-2.431762695E0,1.508523226E-1,4.185908210E0
1.348838559E0,3.382858038E0,-2.529897690E0,7.708549500E-2,4.224932307E0
1.353843350E0,3.270740509E0,-2.628709793E0,5.000567436E-2,4.196469852E0
1.358848142E0,3.144134998E0,-2.780664444E0,7.434248924E-3,4.197348557E0
1.363852934E0,3.003365517E0,-3.033173561E0,-5.065107346E-2,4.268830262E0
1.368857725E0,2.844285965E0,-3.433344841E0,-1.578439474E-1,4.461248050E0
1.373862517E0,2.692072392E0,-3.951437950E0,-2.189301252E-1,4.786339524E0
1.378867309E0,2.490668774E0,-4.495766640E0,-3.249727488E-1,5.149850086E0
1.383872100E0,2.193392277E0,-4.941702843E0,-4.185513854E-1,5.422783596E0
1.388876892E0,1.853377819E0,-5.155661583E0,-4.368303418E-1,5.496060084E0
1.393881684E0,1.566106796E0,-5.267150879E0,-4.746867418E-1,5.515514154E0
1.398886475E0,1.369281769E0,-5.338609695E0,-5.556991696E-1,5.539358050E0
1.403891267E0,1.195157051E0,-5.365685463E0,-7.035619617E-1,5.542019514E0
1.408896059E0,1.067009449E0,-5.377403259E0,-8.656560183E-1,5.550165342E0
1.413900850E0,1.008161545E0,-5.378722191E0,-9.796845913E-1,5.559390615E0
1.418905642E0,9.180073738E-1,-5.345825195E0,-1.088410258E0,5.532198609E0
1.423910434E0,7.634463310E-1,-5.264328003E0,-1.014962196E0,5.415362212E0
1.428915225E0,6.646542549E-1,-5.253334045E0,-9.845472574E-1,5.385964832E0
1.433920017E0,5.884199142E-1,-5.183628082E0,-1.011973023E0,5.314162915E0
1.438924809E0,5.872535706E-1,-5.079188347E0,-1.092259169E0,5.228388959E0
1.443929600E0,6.175346375E-1,-4.878228188E0,-1.124521494E0,5.044106251E0
1.448934392E0,6.505093575E-1,-4.609595299E0,-1.046301246E0,4.771402052E0
1.453939184E0,7.339720726E-1,-4.421415329E0,-9.345321655E-1,4.578316162E0
1.458943975E0,8.201937675E-1,-4.189342499E0,-7.851594090E-1,4.340481965E0
1.463948767E0,9.712886810E-1,-4.099588394E0,-9.085833430E-1,4.309936240E0
1.468953559E0,1.120525360E0,-3.836590767E0,-8.269272447E-1,4.081521097E0
1.473958350E0,1.163065910E0,-3.420006752E0,-7.606961727E-1,3.691588704E0
1.478963142E0,1.213116646E0,-2.784003258E0,-6.289854646E-1,3.101281808E0
1.483967934E0,1.212783813E0,-2.263771057E0,-6.899995804E-1,2.659248653E0
1.488972673E0,1.376452446E0,-2.064480782E0,-7.190835476E-1,2.583366676E0
1.493977413E0,1.550424576E0,-1.865780830E0,-7.031015754E-1,2.525728865E0
1.498982153E0,1.647677898E0,-1.682697296E0,-1.062518835E0,2.583652245E0
1.503986892E0,1.590115070E0,-1.305811882E0,-1.526209831E0,2.561821043E0
1.508991632E0,1.262782097E0,-8.652935028E-1,-1.321449041E0,2.022270763E0
1.513996371E0,1.068155766E0,-6.856441498E-1,-1.291154861E0,1.810564971E0
1.519001111E0,9.735741615E-1,-5.887899399E-1,-1.263074636E0,1.699964052E0
1.524005850E0,8.404994011E-1,-4.406948090E-1,-1.313341260E0,1.620344538E0
1.529010590E0,7.587323189E-1,-2.133865356E-1,-1.527186155E0,1.718576765E0
1.534015330E0,7.794823647E-1,2.556514740E-2,-1.879543066E0,2.034927141E0
1.539020069E0,8.485898972E-1,1.943960190E-1,-2.321511984E0,2.479377445E0
1.544024809E0,9.457435608E-1,4.313993454E-1,-2.784854889E0,2.972533100E0
1.549029548E0,1.036154747E0,7.550015450E-1,-3.187089682E0,3.435285233E0
1.554034288E0,1.142442226E0,1.054809570E0,-3.507601261E0,3.836803888E0
1.559039028E0,1.268428326E0,1.278127670E0,-3.640404940E0,4.061412178E0
1.564043767E0,1.428114891E0,1.410788059E0,-3.661854029E0,4.176004073E0
1.569048507E0,1.912651539E0,1.658160686E0,-3.515291214E0,4.331859311E0
1.574053246E0,2.052157402E0,1.580321789E0,-3.782939434E0,4.584691671E0
1.579057986E0,1.405188560E0,1.369761944E0,-3.327595234E0,3.863119557E0
1.584062725E0,1.031363487E0,1.052003860E0,-3.516442299E0,3.812583010E0
1.589067465E0,6.964116096E-1,7.662763596E-1,-3.510685921E0,3.660202757E0
1.594072205E0,2.246489525E-1,4.749951363E-1,-3.376821280E0,3.417456581E0
1.599076944E0,-3.851747513E-2,3.793978691E-1,-3.186517239E0,3.209255124E0
1.604081684E0,-2.265062332E-1,3.408026695E-1,-2.978327751E0,3.006307989E0
1.609086423E0,-2.293214798E-1,4.688987732E-1,-2.656953335E0,2.707739911E0
1.614091163E0,-2.314329147E-2,5.052461624E-1,-2.119073391E0,2.178596184E0
1.619095903E0,4.989233017E-1,-4.037027359E-1,-3.532907963E-1,7.326081809E-1
1.624100642E0,1.494771957E0,-1.484516144E0,2.175707340E0,3.028503561E0
1.629105382E0,5.624341965E-2,-1.408746719E0,8.310716152E-1,1.636585064E0
1.634110121E0,-2.018824577E0,-8.344497681E-1,2.912518978E-1,2.203811870E0
1.639114861E0,-2.570224047E0,-8.753738403E-1,8.565870523E-1,2.847116504E0
1.644119600E0,-2.754864454E0,-7.501277924E-1,1.362697124E0,3.163686666E0
1.649124340E0,-3.399454117E0,-1.730580330E-1,1.667627573E0,3.790411468E0
1.654129080E0,-3.893105507E0,3.041892052E-1,1.880430222E0,4.334145750E0
1.659133819E0,-4.342486382E0,5.762658119E-1,2.030838728E0,4.828413425E0
1.664138559E0,-4.586450577E0,7.673873901E-1,2.177419424E0,5.134741245E0
1.669143298E0,-4.659991741E0,9.488711357E-1,2.235315800E0,5.254761287E0
1.674148038E0,-4.660109520E0,1.086586952E0,2.229209661E0,5.278888866E0
1.679152778E0,-4.649934769E0,1.213385105E0,2.145275116E0,5.262737129E0
1.684157517E0,-4.625774384E0,1.323663235E0,1.965173602E0,5.197285858E0
1.689162257E0,-4.626802921E0,1.469366074E0,1.709597588E0,5.146752942E0
1.694167048E0,-4.606151104E0,1.616353989E0,1.418361068E0,5.083402043E0
1.699171840E0,-4.578732014E0,1.668848515E0,1.097555280E0,4.995444906E0
1.704176632E0,-4.501799583E0,1.646196842E0,7.388018370E-1,4.849947596E0
1.709181423E0,-4.433040619E0,1.648848534E0,4.150418043E-1,4.747926949E0
1.714186215E0,-4.477707863E0,1.705275059E0,4.113388062E-2,4.791609618E0
1.719191007E0,-4.668654442E0,1.830085278E0,-4.292891026E-1,5.032875476E0
1.724195798E0,-4.885908604E0,1.866005421E0,-9.467903972E-1,5.315119112E0
1.729200590E0,-5.004537106E0,1.694881916E0,-1.424203038E0,5.472327717E0
1.734205382E0,-5.119497299E0,1.423359394E0,-1.779685974E0,5.603792174E0
1.739210173E0,-5.287199974E0,1.205566406E0,-2.065561533E0,5.802966342E0
1.744214965E0,-5.387396336E0,1.171151638E0,-2.233897686E0,5.948607762E0
1.749219757E0,-5.410396099E0,1.272264004E0,-2.256261110E0,5.998479461E0
1.754224548E0,-5.318137169E0,1.355708122E0,-2.238591909E0,5.927210237E0
1.759229340E0,-5.168346882E0,1.387855053E0,-2.167209148E0,5.773625086E0
1.764234132E0,-4.980343819E0,1.344586849E0,-2.014703035E0,5.538119416E0
1.769238923E0,-4.844931602E0,1.216180801E0,-1.806499600E0,5.311863965E0
1.774243715E0,-4.680714607E0,9.882569313E-1,-1.577419400E0,5.037260462E0
1.779248507E0,-4.477980614E0,6.562900543E-1,-1.323768139E0,4.715441559E0
1.784253298E0,-4.294064045E0,2.205023766E-1,-1.098696947E0,4.437875877E0
1.789258090E0,-4.267327309E0,-1.852025986E-1,-7.546855807E-1,4.337503048E0
1.794262882E0,-4.296791077E0,-4.416451454E-1,-2.507076263E-1,4.326698315E0
1.799267673E0,-4.301048279E0,-7.164459229E-1,7.294797897E-2,4.360921057E0
1.804272465E0,-4.394826889E0,-1.028687000E0,4.793188572E-1,4.538991837E0
1.809277257E0,-4.415497780E0,-9.580841064E-1,8.006120920E-1,4.588630027E0
1.814282048E0,-4.678643703E0,-1.217137337E0,9.282513857E-1,4.922680249E0
1.819286840E0,-5.135329247E0,-1.975887775E0,9.114683867E-1,5.577321363E0
1.824291632E0,-5.545414925E0,-2.768341541E0,9.712779522E-1,6.273653038E0
1.829296423E0,-5.802925110E0,-3.392548084E0,1.111629009E0,6.813152089E0
1.834301215E0,-5.754494190E0,-3.470916271E0,1.105629802E0,6.810571225E0
1.839306007E0,-5.563171387E0,-3.649503708E0,9.002159834E-1,6.714025768E0
1.844310798E0,-5.515029907E0,-3.998603344E0,6.194889545E-1,6.840186412E0
1.849315590E0,-5.756705761E0,-3.947145939E0,4.675858021E-1,6.995588522E0
1.854320382E0,-5.843620300E0,-4.207431793E0,3.797163963E-1,7.210725695E0
1.859325173E0,-5.834408760E0,-4.526309013E0,3.332647085E-1,7.391810619E0
1.864329965E0,-5.725643158E0,-4.881085873E0,2.903511524E-1,7.529428442E0
1.869334757E0,-5.570542336E0,-5.153196335E0,2.545994520E-1,7.592838419E0
1.874339548E0,-5.369444847E0,-5.338761806E0,2.534238100E-1,7.576116368E0
1.879344340E0,-5.175004005E0,-5.304480553E0,2.194983959E-1,7.413930128E0
1.884349132E0,-5.011001587E0,-5.241781712E0,2.300767899E-1,7.255297909E0
1.889353923E0,-4.977026939E0,-5.259773731E0,3.955329657E-1,7.252066132E0
1.894358715E0,-4.914070129E0,-5.409692287E0,5.623481274E-1,7.330013049E0
1.899363507E0,-4.639678001E0,-5.427365780E0,8.551735878E-1,7.191260886E0
1.904368298E0,-4.077143669E0,-5.312526703E0,1.301975727E0,6.822109737E0
1.909373090E0,-3.480349779E0,-5.114005566E0,1.848315954E0,6.456172192E0
1.914377882E0,-3.036466122E0,-4.900689125E0,2.420058727E0,6.252484678E0
1.919382673E0,-2.626431465E0,-4.793634415E0,2.804639339E0,6.143539287E0
1.924387465E0,-2.107513905E0,-4.626518726E0,2.949185610E0,5.877413219E0
1.929392257E0,-1.509503365E0,-4.391085148E0,3.035747528E0,5.547611399E0
1.934397048E0,-8.671183586E-1,-4.251049995E0,3.026988029E0,5.290177392E0
1.939401840E0,-2.720255852E-1,-4.216543198E0,2.971477032E0,5.165550329E0
1.944406632E0,2.798895836E-1,-4.230692387E0,2.932128668E0,5.155043625E0
1.949411423E0,7.882466316E-1,-4.317744732E0,2.760858059E0,5.185228013E0
1.954416215E0,1.176537991E0,-4.434717655E0,2.438872099E0,5.196061916E0
1.959421007E0,1.430921078E0,-4.538320541E0,2.071870804E0,5.190042109E0
1.964425798E0,1.623579025E0,-4.604449272E0,1.679455996E0,5.163093491E0
1.969430538E0,1.878826618E0,-4.556478500E0,1.335140824E0,5.106279155E0
1.974435278E0,2.134060383E0,-4.437593460E0,1.084003091E0,5.041975023E0
1.979440017E0,2.355236530E0,-4.305386066E0,8.755117655E-1,4.984978350E0
1.984444757E0,2.546437740E0,-4.145908833E0,6.871901751E-1,4.913769994E0
1.989449496E0,2.764378071E0,-4.083683968E0,4.820488691E-1,4.954859431E0
1.994454236E0,3.037014008E0,-4.104462624E0,3.038185835E-1,5.114916739E0
1.999458975E0,3.373219013E0,-4.213164330E0,2.002997398E-1,5.400877722E0
2.004463715E0,3.724439144E0,-4.357506752E0,1.328734159E-1,5.733844031E0
2.009468455E0,3.961548805E0,-4.494468689E0,1.300327778E-1,5.992580934E0
2.014473194E0,3.965871811E0,-4.542535782E0,1.675019264E-1,6.032481036E0
2.019477934E0,3.748641014E0,-4.458198547E0,3.449995518E-1,5.834969446E0
2.024482673E0,3.388701916E0,-4.326584816E0,6.276707649E-1,5.531420020E0
2.029487413E0,2.941059113E0,-3.974604607E0,8.945268393E-1,5.024687926E0
2.034492153E0,2.440832138E0,-3.363774776E0,1.221311688E0,4.331771521E0
2.039496892E0,2.108493328E0,-2.647448540E0,1.592427492E0,3.740394792E0
2.044501632E0,2.024505615E0,-1.945889473E0,2.044073105E0,3.473232455E0
2.049506371E0,2.110706806E0,-1.346120834E0,2.492568493E0,3.532707491E0
2.054511111E0,2.236178875E0,-7.726707458E-1,2.840267420E0,3.696570716E0
2.059515850E0,2.327754021E0,-2.312364578E-1,3.071245432E0,3.860629169E0
2.064520590E0,2.384838104E0,2.158136368E-1,3.246814489E0,4.034331746E0
2.069525330E0,2.387938976E0,5.446486473E-1,3.361494303E0,4.159151194E0
2.074530069E0,2.341786385E0,7.030177116E-1,3.395573378E0,4.184270060E0
2.079534809E0,2.269881248E0,8.058142662E-1,3.373022556E0,4.144753151E0
2.084539548E0,2.176566601E0,9.150862694E-1,3.284140587E0,4.044799679E0
2.089544288E0,1.946457386E0,1.040023804E0,3.100502253E0,3.805714136E0
2.094549028E0,1.631689548E0,1.199352264E0,2.774425268E0,3.434864219E0
2.099553767E0,1.289565086E0,1.359534264E0,2.406968117E0,3.050378180E0
2.104558507E0,9.632267952E-1,1.472961426E0,2.085114479E0,2.728575381E0
2.109563246E0,6.240849495E-1,1.530347824E0,1.752307773E0,2.408740131E0
2.114567986E0,2.819099426E-1,1.450793266E0,1.366393089E0,2.012785232E0
2.119572725E0,-4.846239090E-2,1.254085541E0,8.711799979E-1,1.527754475E0
2.124577465E0,-3.756666183E-1,1.022336483E0,2.491921782E-1,1.117315548E0
2.129582205E0,-7.272899151E-1,8.470892906E-1,-2.591014504E-1,1.146143293E0
2.134586944E0,-1.106947184E0,7.766928673E-1,-6.431026459E-1,1.497386019E0
2.139591684E0,-1.427990198E0,7.874407768E-1,-1.011885524E0,1.919148586E0
2.144596423E0,-1.609284401E0,8.745198250E-1,-1.311923385E0,2.252936789E0
2.149601163E0,-1.708549976E0,1.052134991E0,-1.480696678E0,2.493710832E0
2.154605903E0,-1.749899864E0,1.267516136E0,-1.528194070E0,2.646530522E0
2.159610642E0,-1.747493029E0,1.463343620E0,-1.512615919E0,2.735527985E0
2.164615382E0,-1.620324612E0,1.754170895E0,-1.449163675E0,2.793321094E0
2.169620121E0,-1.316422701E0,2.106095791E0,-1.367278695E0,2.835147128E0
2.174624861E0,-9.085416794E-1,2.456413269E0,-1.277368307E0,2.913946452E0
2.179629600E0,-4.598333836E-1,2.775961399E0,-1.261329651E0,3.083563023E0
2.184634340E0,-9.075689316E-2,3.083370686E0,-1.324376345E0,3.356990364E0
2.189639080E0,1.313228607E-1,3.464240074E0,-1.414344549E0,3.744138818E0
2.194643819E0,2.776660919E-1,3.817741871E0,-1.683836937E0,4.181812798E0
2.199648559E0,2.431459427E-1,4.062790394E0,-2.088455677E0,4.574607398E0
2.204653298E0,6.221103668E-2,4.176284790E0,-2.521364450E0,4.878780949E0
2.209658038E0,-1.398427486E-1,4.206961632E0,-2.933161259E0,5.130449993E0
2.214662830E0,-3.191154003E-1,4.189185143E0,-3.274622679E0,5.326749523E0
2.219667621E0,-5.372693539E-1,4.195278168E0,-3.601959229E0,5.555459256E0
2.224672413E0,-7.217679024E-1,4.249679565E0,-3.909616947E0,5.819435539E0
2.229677205E0,-7.712473869E-1,4.281414032E0,-4.148900032E0,6.011547232E0
2.234681996E0,-7.473769188E-1,4.310173035E0,-4.257328033E0,6.104179374E0
2.239686788E0,-6.834597588E-1,4.317240715E0,-4.200882912E0,6.062433659E0
2.244691580E0,-6.226551533E-1,4.254921913E0,-4.094511509E0,5.937767630E0
2.249696371E0,-5.412728786E-1,4.123265266E0,-3.928957462E0,5.721101251E0
2.254701163E0,-4.396784306E-1,3.917421818E0,-3.757310390E0,5.445814190E0
2.259705955E0,-3.372378349E-1,3.680312634E0,-3.556342125E0,5.128937487E0
2.264710746E0,-2.964065075E-1,3.469028473E0,-3.302849293E0,4.799044573E0
2.269715538E0,-2.601246834E-1,3.345292091E0,-2.987979412E0,4.492957266E0
2.274720330E0,-1.526150703E-1,3.251179695E0,-2.698206186E0,4.227739040E0
2.279725121E0,1.556849480E-2,3.138319969E0,-2.381573200E0,3.939693581E0
2.284729913E0,2.146885395E-1,2.996615887E0,-2.077151775E0,3.652445405E0
2.289734705E0,3.724608421E-1,2.811314106E0,-1.795665741E0,3.356580036E0
2.294739496E0,5.269012451E-1,2.596497536E0,-1.590717077E0,3.090275909E0
2.299744288E0,6.014857292E-1,2.399899483E0,-1.410024881E0,2.847713605E0
2.304749080E0,7.063391209E-1,2.240494728E0,-1.244655013E0,2.658551802E0
2.309753871E0,8.940343857E-1,2.165935516E0,-1.028173685E0,2.558850381E0
2.314758663E0,1.159550905E0,2.166291237E0,-7.090572715E-1,2.557369398E0
2.319763455E0,1.507523775E0,2.078774929E0,-4.414602518E-1,2.605536469E0
2.324768246E0,1.875863075E0,1.846169949E0,-4.555070400E-1,2.671084503E0
2.329773038E0,2.164843559E0,1.555025101E0,-6.170846224E-1,2.735953971E0
2.334777830E0,2.289375067E0,1.310975075E0,-8.155828714E-1,2.761352796E0
2.339782621E0,2.250617743E0,1.138263702E0,-1.083750606E0,2.745075564E0
2.344787413E0,2.154571772E0,9.702754021E-1,-1.477694750E0,2.786968900E0
2.349792205E0,2.073286533E0,8.170294762E-1,-1.875786185E0,2.912838483E0
2.354796996E0,1.963710546E0,6.644425392E-1,-2.233502388E0,3.047322746E0
2.359801788E0,1.826035261E0,4.602069855E-1,-2.540347576E0,3.162208256E0
2.364806580E0,1.746809483E0,2.095556259E-1,-2.719264984E0,3.238774303E0
2.369811371E0,1.692984581E0,-1.061925888E-1,-2.760385990E0,3.239938961E0
2.374816163E0,1.617071867E0,-4.293022156E-1,-2.758934021E0,3.226598634E0
2.379820955E0,1.547924042E0,-7.213945389E-1,-2.647539377E0,3.150546567E0
2.384825746E0,1.576627970E0,-9.824876785E-1,-2.455422163E0,3.078982915E0
2.389830538E0,1.645794868E0,-1.184084892E0,-2.212163925E0,3.000727747E0
2.394835330E0,1.669442892E0,-1.359907150E0,-1.942640543E0,2.900041259E0
2.399840121E0,1.733323097E0,-1.467333794E0,-1.619048238E0,2.789049053E0
2.404844913E0,1.894215107E0,-1.540317535E0,-1.361713290E0,2.795512845E0
2.409849705E0,2.041483879E0,-1.574480057E0,-1.137532830E0,2.817911428E0
2.414854496E0,2.179423571E0,-1.632324219E0,-9.229946136E-1,2.875115391E0
2.419859288E0,2.336358786E0,-1.761800766E0,-7.614293098E-1,3.023621820E0
2.424864080E0,2.469074965E0,-1.929476738E0,-5.816550851E-1,3.187088687E0
2.429868871E0,2.519801378E0,-1.982608795E0,-3.553937674E-1,3.225901634E0
2.434873663E0,2.516967297E0,-1.931229591E0,-1.167341471E-1,3.174649424E0
2.439878403E0,2.575083733E0,-1.904739380E0,1.003594398E-1,3.204553066E0
2.444883142E0,2.655823946E0,-1.888852119E0,2.758285999E-1,3.270664241E0
2.449887882E0,2.740329266E0,-1.845325470E0,4.372125864E-1,3.332534384E0
2.454892621E0,2.790461540E0,-1.783800125E0,5.551444292E-1,3.358095268E0
2.459897361E0,2.791994333E0,-1.718652725E0,5.720241070E-1,3.328094218E0
2.464902100E0,2.740346909E0,-1.750127792E0,4.406660795E-1,3.281255105E0
2.469906840E0,2.769455910E0,-1.849269867E0,1.714692116E-1,3.334529467E0
2.474911580E0,2.879266739E0,-1.872382164E0,-2.150293589E-1,3.441254066E0
2.479916319E0,2.973961830E0,-1.843395233E0,-6.027425528E-1,3.550472298E0
2.484921059E0,3.015313625E0,-1.814806938E0,-9.520432949E-1,3.645823215E0
2.489925798E0,3.036861897E0,-1.872480392E0,-1.228368282E0,3.773274657E0
2.494930538E0,3.095762253E0,-1.992318153E0,-1.435718656E0,3.951501437E0
2.499935278E0,3.196309566E0,-2.131237984E0,-1.602039576E0,4.162343209E0
2.504940017E0,3.256960154E0,-2.384818077E0,-1.707897067E0,4.383156294E0
2.509944757E0,3.268372297E0,-2.747957230E0,-1.800889254E0,4.634299139E0
2.514949496E0,3.250694752E0,-3.157884598E0,-1.832883596E0,4.888631074E0
2.519954236E0,3.109705448E0,-3.494448662E0,-1.731836319E0,4.988055379E0
2.524958975E0,2.913819075E0,-3.661684990E0,-1.497841001E0,4.913431207E0
2.529963715E0,2.850240469E0,-3.688402176E0,-1.241624594E0,4.823879453E0
2.534968455E0,2.909241199E0,-3.627575874E0,-9.165851474E-1,4.739527341E0
2.539973194E0,2.946737528E0,-3.508449554E0,-5.720980167E-1,4.617334347E0
2.544977934E0,2.885715961E0,-3.341075897E0,-2.140070200E-1,4.419948389E0
2.549982673E0,2.769141912E0,-3.159188271E0,1.616960764E-1,4.204136425E0
2.554987413E0,2.678172827E0,-2.934287071E0,4.827045202E-1,4.001956267E0
2.559992153E0,2.574313641E0,-2.623635292E0,8.150492907E-1,3.764951289E0
2.564996892E0,2.524465561E0,-2.265756607E0,1.138444662E0,3.578077084E0
2.570001632E0,2.518665791E0,-1.927910805E0,1.384557486E0,3.460854933E0
2.575006371E0,2.580247402E0,-1.629453659E0,1.509607553E0,3.404660166E0
2.580011111E0,2.612552881E0,-1.342026711E0,1.542310596E0,3.317407153E0
2.585015850E0,2.667118073E0,-1.085106850E0,1.445129514E0,3.221703742E0
2.590020590E0,2.747728586E0,-8.684825897E-1,1.281308889E0,3.153732212E0
2.595025330E0,2.743727446E0,-6.349191666E-1,1.099568367E0,3.023278558E0
2.600030069E0,2.688341618E0,-3.654193878E-1,9.149724245E-1,2.863195159E0
2.605034809E0,2.605090380E0,-1.031723022E-1,6.757838726E-1,2.693292456E0
2.610039548E0,2.498144627E0,1.229820251E-1,4.020596743E-1,2.533279127E0
2.615044288E0,2.304908991E0,3.225679398E-1,4.057645798E-3,2.327374486E0
2.620049028E0,2.010727167E0,5.051536560E-1,-4.831383824E-1,2.128761765E0
2.625053767E0,1.725523710E0,6.183128357E-1,-9.716494679E-1,2.074571167E0
2.630058507E0,1.420845509E0,6.433515549E-1,-1.359431028E0,2.068998768E0
2.635063246E0,1.102017403E0,5.091152191E-1,-1.654811859E0,2.052326229E0
2.640067986E0,7.651140690E-1,3.310489655E-1,-1.823481917E0,2.005013531E0
2.645072725E0,4.065966606E-1,1.431922913E-1,-1.836708069E0,1.886616391E0
2.650077465E0,2.770376205E-2,2.722930908E-2,-1.714255095E0,1.714695152E0
2.655082205E0,-3.705379963E-1,-1.671123505E-2,-1.466825962E0,1.512995729E0
2.660086944E0,-6.679739952E-1,-7.768630981E-3,-1.210375071E0,1.382482340E0
2.665091684E0,-9.408917427E-1,1.399993896E-3,-9.793232679E-1,1.358069694E0
2.670096423E0,-1.236794710E0,-2.262401581E-2,-7.887033224E-1,1.467046670E0
2.675101163E0,-1.498098612E0,1.458168030E-3,-5.913292170E-1,1.610581206E0
2.680105903E0,-1.772374630E0,1.070747375E-1,-3.925262094E-1,1.818475640E0
2.685110642E0,-1.973554850E0,2.701339722E-1,-1.927179694E-1,2.001257435E0
2.690115382E0,-2.159245253E0,4.760837555E-1,2.826869488E-3,2.211109177E0
2.695120121E0,-2.310520172E0,7.390670776E-1,2.605932355E-1,2.439801723E0
2.700124861E0,-2.379701138E0,9.872145653E-1,5.226023197E-1,2.628817850E0
2.705129600E0,-2.381751060E0,1.201134205E0,7.974939346E-1,2.784144046E0
2.710134340E0,-2.383958340E0,1.414159775E0,1.007922173E0,2.949408812E0
2.715139080E0,-2.434607029E0,1.626012802E0,1.177312136E0,3.155517847E0
2.720143819E0,-2.591219902E0,1.827010632E0,1.224317312E0,3.398726425E0
2.725148559E0,-2.762826204E0,1.998048306E0,1.220939636E0,3.621615560E0
2.730153350E0,-2.958575726E0,2.168083191E0,1.172363281E0,3.850738982E0
2.735158142E0,-3.115999222E0,2.351626396E0,1.083688021E0,4.051416738E0
2.740162934E0,-3.182559013E0,2.520051003E0,9.317183495E-1,4.165025572E0
2.745167725E0,-3.282721281E0,2.635191441E0,7.268751264E-1,4.271866148E0
2.750172517E0,-3.506946325E0,2.749890804E0,5.029634833E-1,4.484812619E0
2.755177309E0,-3.696759224E0,2.854854107E0,3.362835050E-1,4.682873832E0
2.760182100E0,-3.870520830E0,2.897960186E0,2.122429013E-1,4.839850389E0
2.765186892E0,-4.003736019E0,2.970489979E0,1.019725204E-1,4.986392606E0
2.770191684E0,-4.105527878E0,3.020159721E0,1.149773598E-3,5.096736723E0
2.775196475E0,-4.170652390E0,3.085613251E0,-6.088095903E-2,5.188357831E0
2.780201267E0,-4.179918289E0,3.095258713E0,-1.126053333E-1,5.202405536E0
2.785206059E0,-4.147647858E0,3.092311859E0,-1.014181674E-1,5.174520367E0
2.790210850E0,-4.040599346E0,3.062383652E0,-3.731381893E-2,5.070111343E0
2.795215642E0,-3.906879902E0,3.014986038E0,1.127422452E-1,4.936249811E0
2.800220434E0,-3.756422043E0,2.911728859E0,2.717638612E-1,4.760538531E0
2.805225225E0,-3.632304907E0,2.757468700E0,4.680842161E-1,4.584362050E0
2.810230017E0,-3.534661055E0,2.537847996E0,6.534398794E-1,4.400168735E0
2.815234809E0,-3.473017693E0,2.415481091E0,8.418184519E-1,4.313358216E0
2.820239600E0,-3.409331799E0,2.380475521E0,1.042382121E0,4.286813211E0
2.825244392E0,-3.277294159E0,2.398886204E0,1.159537554E0,4.223723400E0
2.830249184E0,-3.120628595E0,2.374689579E0,1.193301439E0,4.098956178E0
2.835253975E0,-2.963952541E0,2.307597160E0,1.129688263E0,3.922526596E0
2.840258767E0,-2.850639820E0,2.221409798E0,1.079231024E0,3.771677144E0
2.845263559E0,-2.737684488E0,2.144811630E0,1.004114389E0,3.619858974E0
2.850268350E0,-2.625037909E0,2.015717506E0,9.004242420E-1,3.429971560E0
2.855273142E0,-2.493325710E0,1.877413750E0,7.783795595E-1,3.216711088E0
2.860277934E0,-2.313819408E0,1.758662701E0,6.479969025E-1,2.977676063E0
2.865282725E0,-2.091292620E0,1.702528477E0,4.477720559E-1,2.733607113E0
2.870287517E0,-1.868957520E0,1.680198193E0,2.026285231E-1,2.521334269E0
2.875292309E0,-1.689936876E0,1.643784046E0,-4.834014177E-2,2.358018110E0
2.880297100E0,-1.506290913E0,1.469067097E0,-2.617040873E-1,2.120273444E0
2.885301892E0,-1.313014030E0,1.194664955E0,-4.321405590E-1,1.827012770E0
2.890306684E0,-1.081164598E0,9.212608337E-1,-4.782782197E-1,1.498795673E0
2.895311475E0,-8.060786724E-1,7.109236717E-1,-3.620605469E-1,1.134135412E0
2.900316267E0,-5.073013306E-1,5.154757500E-1,-1.369798183E-1,7.360933089E-1
2.905321059E0,-1.851286888E-1,2.103796005E-1,9.043490887E-2,2.944667731E-1
2.910325850E0,5.054426193E-2,-1.707315445E-1,4.049663544E-1,4.423818835E-1
2.915330642E0,1.525502205E-1,-6.131525040E-1,7.386628985E-1,9.720341766E-1
2.920335434E0,1.600952148E-1,-9.873218536E-1,1.009656429E0,1.421211112E0
2.925340173E0,1.502518654E-1,-1.254884720E0,1.241235852E0,1.771433805E0
2.930344913E0,1.183967590E-1,-1.516340256E0,1.451847196E0,2.102656853E0
2.935349653E0,1.696863174E-1,-1.852982521E0,1.683199644E0,2.509083241E0
2.940354392E0,2.563514709E-1,-2.264563560E0,1.901233435E0,2.967937460E0
2.945359132E0,2.589640617E-1,-2.674371719E0,2.101140976E0,3.410882566E0
2.950363871E0,2.737331390E-1,-3.082145691E0,2.297789812E0,3.854139322E0
2.955368611E0,3.631620407E-1,-3.449439049E0,2.476848602E0,4.262076421E0
2.960373350E0,5.224590302E-1,-3.680657387E0,2.623574734E0,4.550093034E0
2.965378090E0,6.751384735E-1,-3.780765533E0,2.675697088E0,4.680742984E0
2.970382830E0,8.067107201E-1,-3.721411705E0,2.619221926E0,4.621689167E0
2.975387569E0,9.934449196E-1,-3.617762566E0,2.521755219E0,4.520441148E0
2.980392309E0,1.363965988E0,-3.556161880E0,2.369290829E0,4.485557888E0
2.985397048E0,1.897901535E0,-3.470135689E0,2.143244505E0,4.498596330E0
2.990401788E0,2.421526432E0,-3.279183388E0,1.806095243E0,4.458566359E0
2.995406528E0,2.895018101E0,-3.017765045E0,1.426155925E0,4.418365806E0
3.000411267E0,3.297955036E0,-2.782289505E0,1.133592963E0,4.461241455E0
3.005416007E0,3.629474163E0,-2.711802483E0,9.815304875E-1,4.635769354E0
3.010420746E0,3.836808681E0,-2.810914993E0,9.597844481E-1,4.852167572E0
3.015425486E0,4.001822948E0,-2.950033188E0,9.906677604E-1,5.069389049E0
3.020430225E0,4.125032425E0,-3.023666382E0,1.034794092E0,5.218165358E0
3.025434965E0,4.206353664E0,-3.103680611E0,1.029328942E0,5.327829066E0
3.030439705E0,4.278892040E0,-3.261967659E0,9.167124033E-1,5.457995212E0
3.035444444E0,4.232095718E0,-3.522597313E0,7.354381084E-1,5.555195335E0
3.040449184E0,4.056634903E0,-3.880608559E0,5.863844156E-1,5.644400429E0
3.045453923E0,3.729637146E0,-4.340227127E0,4.984660149E-1,5.744234773E0
3.050458663E0,3.295897484E0,-4.781031609E0,5.432652831E-1,5.832352924E0
3.055463403E0,2.633294106E0,-5.135142326E0,6.055911779E-1,5.802642952E0
3.060468142E0,1.777808666E0,-5.243878365E0,6.471599936E-1,5.574735869E0
3.065472882E0,1.013823986E0,-5.183128357E0,6.491359472E-1,5.321093508E0
3.070477621E0,5.193014145E-1,-4.947778702E0,6.264705658E-1,5.014245049E0
3.075482361E0,2.366938591E-1,-4.633611679E0,5.750017166E-1,4.675147928E0
3.080487100E0,1.271085739E-1,-4.365223885E0,5.096995234E-1,4.396718067E0
3.085491840E0,7.029914856E-2,-4.262309074E0,4.115719199E-1,4.282710831E0
3.090496580E0,3.235673904E-2,-4.291348457E0,3.043928742E-1,4.302252150E0
3.095501319E0,-7.279014587E-2,-4.294404030E0,2.273002267E-1,4.301031245E0
3.100506059E0,-1.877031326E-1,-4.032551765E0,2.815981507E-1,4.046727533E0
3.105510798E0,-2.503545284E-1,-3.573268890E0,4.384856820E-1,3.608766776E0
3.110515538E0,-2.802708149E-1,-2.917090416E0,7.397302985E-1,3.022444233E0
3.115520278E0,-2.350814342E-1,-2.165085793E0,1.101769924E0,2.440646786E0
3.120525017E0,-9.199881554E-2,-1.442232132E0,1.407909632E0,2.017599275E0
3.125529757E0,1.427836418E-1,-8.733968735E-1,1.618634582E0,1.844772933E0
3.130534496E0,4.437463284E-1,-4.255552292E-1,1.742843986E0,1.848110715E0
3.135539236E0,7.565121651E-1,-3.234195709E-2,1.784416676E0,1.938427076E0
3.140543975E0,1.041159630E0,3.773164749E-1,1.704781175E0,2.032894476E0
3.145548715E0,1.277121067E0,8.457927704E-1,1.551868439E0,2.180527294E0
3.150553455E0,1.410630703E0,1.281642437E0,1.302286148E0,2.308340427E0
3.155558194E0,1.383694172E0,1.565072060E0,9.995430112E-1,2.315846788E0
3.160562934E0,1.124972820E0,1.715493202E0,5.822037458E-1,2.132473206E0
3.165567673E0,8.317613602E-1,1.857801437E0,6.589159369E-2,2.036564471E0
3.170572413E0,5.669271946E-1,2.040128231E0,-4.423643649E-1,2.163149527E0
3.175577153E0,3.070139885E-1,2.186191082E0,-9.217377305E-1,2.392339750E0
3.180581892E0,1.411914825E-2,2.238913059E0,-1.279881001E0,2.578958397E0
3.185586632E0,-3.635892868E-1,2.222740650E0,-1.639997721E0,2.786102240E0
3.190591371E0,-8.583602905E-1,2.224398136E0,-1.953275323E0,3.082209263E0
3.195596111E0,-1.348988056E0,2.287645817E0,-2.213979959E0,3.457571318E0
3.200600850E0,-1.724163294E0,2.408311367E0,-2.368846416E0,3.792642357E0
3.205605590E0,-1.916273355E0,2.567665100E0,-2.422338963E0,4.016557442E0
3.210610330E0,-2.045052767E0,2.636634827E0,-2.355815411E0,4.084599157E0
3.215615069E0,-2.177620649E0,2.648818016E0,-2.303679466E0,4.131005647E0
3.220619809E0,-2.333390474E0,2.628108978E0,-2.266057968E0,4.181708577E0
3.225624548E0,-2.474090576E0,2.665414810E0,-2.157027721E0,4.228277295E0
3.230629288E0,-2.623610258E0,2.698457718E0,-1.944015265E0,4.236059512E0
3.235634028E0,-2.719666719E0,2.732004166E0,-1.752361774E0,4.234525430E0
3.240638767E0,-2.810215235E0,2.780282974E0,-1.539935827E0,4.242485761E0
3.245643507E0,-2.919201136E0,2.804942131E0,-1.326613188E0,4.260204007E0
3.250648246E0,-3.008007288E0,2.844371319E0,-1.175005674E0,4.303393356E0
3.255652986E0,-3.042959213E0,2.826932430E0,-1.032480478E0,4.279855567E0
3.260657725E0,-3.047778606E0,2.800647736E0,-8.894475698E-1,4.233638996E0
3.265662465E0,-3.046509981E0,2.808463573E0,-7.751300335E-1,4.215390525E0
3.270667205E0,-3.010493994E0,2.912456036E0,-6.848725080E-1,4.244352082E0
3.275671944E0,-2.983118057E0,3.107557774E0,-7.047553062E-1,4.364927113E0
3.280676684E0,-2.979190588E0,3.321757317E0,-7.193801403E-1,4.519641138E0
3.285681423E0,-2.903515100E0,3.449687958E0,-6.088293791E-1,4.549881334E0
3.290686163E0,-2.794704437E0,3.419604301E0,-4.359065294E-1,4.437801367E0
3.295690903E0,-2.585923910E0,3.274665833E0,-2.493154407E-1,4.180023561E0
3.300695642E0,-2.425545692E0,3.124946117E0,-1.404610276E-1,3.958319017E0
3.305700382E0,-2.385224342E0,3.023036480E0,-5.663740635E-2,3.851136523E0
3.310705173E0,-2.383592606E0,2.987968922E0,-4.062384367E-2,3.822449775E0
3.315709965E0,-2.334497213E0,3.014902592E0,-2.512794733E-2,3.813154375E0
3.320714757E0,-2.195303917E0,3.084516048E0,-1.101963520E-1,3.787577296E0
3.325719548E0,-2.062608242E0,3.134252071E0,-2.571869493E-1,3.760855479E0
3.330724340E0,-1.874837875E0,3.125644207E0,-3.272407055E-1,3.659474723E0
3.335729132E0,-1.747110367E0,3.111250401E0,-3.395112753E-1,3.584346746E0
3.340733923E0,-1.669778585E0,3.095864773E0,-3.800293207E-1,3.537931811E0
3.345738715E0,-1.609117031E0,3.003072262E0,-4.582161307E-1,3.437682745E0
3.350743507E0,-1.603097200E0,2.852262974E0,-5.975308418E-1,3.326013802E0
3.355748298E0,-1.660558224E0,2.696447849E0,-6.826945543E-1,3.239499417E0
3.360753090E0,-1.685153484E0,2.598131180E0,-7.132492065E-1,3.177853414E0
3.365757882E0,-1.633457184E0,2.500068665E0,-6.652384400E-1,3.059586227E0
3.370762673E0,-1.438455105E0,2.373642921E0,-5.532216430E-1,2.830086217E0
3.375767465E0,-1.167203188E0,2.242730141E0,-3.877775669E-1,2.557845423E0
3.380772257E0,-9.104626179E-1,2.097726345E0,-2.083495259E-1,2.296259463E0
3.385777048E0,-6.873660088E-1,1.967262745E0,-1.158690453E-1,2.087108136E0
3.390781840E0,-4.120018482E-1,1.832099438E0,-1.149890423E-1,1.881370871E0
3.395786632E0,-7.499909401E-2,1.630028248E0,-2.199398875E-1,1.646508581E0
3.400791423E0,2.516937256E-1,1.490199089E0,-3.682091236E-1,1.555513104E0
3.405796215E0,4.771232605E-1,1.369461060E0,-5.020843744E-1,1.534652703E0
3.410801007E0,6.110510826E-1,1.200915337E0,-7.024720907E-1,1.519555234E0
3.415805798E0,7.161803246E-1,9.657835960E-1,-9.255591631E-1,1.517337133E0
3.420810590E0,8.117604256E-1,7.551569939E-1,-1.165667653E0,1.608725630E0
3.425815382E0,8.882060051E-1,5.738210678E-1,-1.355340481E0,1.719048674E0
3.430820173E0,9.213323593E-1,3.738451004E-1,-1.470117331E0,1.774784055E0
3.435824965E0,9.209685326E-1,1.123476028E-1,-1.514580607E0,1.776164249E0
3.440829757E0,9.259872437E-1,-1.720600128E-1,-1.464926720E0,1.741570360E0
3.445834548E0,9.512243271E-1,-4.074220657E-1,-1.355027437E0,1.704969154E0
3.450839340E0,8.964419365E-1,-5.507345200E-1,-1.185382843E0,1.584944523E0
3.455844132E0,7.618422508E-1,-5.973978043E-1,-9.137660861E-1,1.331261136E0
3.460848923E0,6.717405319E-1,-6.337509155E-1,-6.126633883E-1,1.108256285E0
3.465853715E0,6.642050743E-1,-7.699451447E-1,-3.165602684E-1,1.064985591E0
3.470858507E0,7.244720459E-1,-9.917287827E-1,-3.110933304E-2,1.228557493E0
3.475863246E0,7.613039017E-1,-1.213144302E0,2.332191467E-1,1.451100927E0
3.480867986E0,7.554192543E-1,-1.381740570E0,4.997375607E-1,1.652150987E0
3.485872725E0,7.499155998E-1,-1.497646332E0,7.820915580E-1,1.848508898E0
3.490877465E0,7.543244362E-1,-1.541870117E0,1.027033448E0,2.000291608E0
3.495882205E0,8.163647652E-1,-1.610215187E0,1.172029018E0,2.152416409E0
3.500886944E0,8.546328545E-1,-1.702692032E0,1.259847879E0,2.284025865E0
3.505891684E0,9.312310219E-1,-1.757147789E0,1.304945230E0,2.378579749E0
3.510896423E0,1.017150879E0,-1.812022209E0,1.297868013E0,2.449996281E0
3.515901163E0,1.111928463E0,-1.862740517E0,1.234299421E0,2.495933132E0
3.520905903E0,1.177118301E0,-1.976342201E0,1.138384819E0,2.566603980E0
3.525910642E0,1.083652973E0,-2.162323952E0,1.000665665E0,2.617495064E0
3.530915382E0,9.710464478E-1,-2.329392433E0,7.546792030E-1,2.634111048E0
3.535920121E0,9.211525917E-1,-2.458126068E0,4.155296683E-1,2.657737905E0
3.540924861E0,8.865470886E-1,-2.548284531E0,1.177856326E-1,2.700665334E0
3.545929600E0,9.107885361E-1,-2.633093834E0,-1.335641146E-1,2.789365209E0
3.550934340E0,9.511933327E-1,-2.750551224E0,-3.859971166E-1,2.935863513E0
3.555939080E0,1.027083397E0,-2.929173470E0,-6.059076190E-1,3.162606767E0
3.560943819E0,1.100512981E0,-3.159101486E0,-8.504626751E-1,3.451715195E0
3.565948559E0,1.124292374E0,-3.396843910E0,-1.085655212E0,3.739148183E0
3.570953298E0,1.094136715E0,-3.536834717E0,-1.324778795E0,3.932095347E0
3.575958038E0,1.134168625E0,-3.650912285E0,-1.566562891E0,4.131539456E0
3.580962778E0,1.272561073E0,-3.810888290E0,-1.795467257E0,4.400679938E0
3.585967517E0,1.427189827E0,-4.026490211E0,-1.934134245E0,4.689389033E0
3.590972257E0,1.506865501E0,-4.259439468E0,-1.886362553E0,4.896103747E0
3.595976996E0,1.473405361E0,-4.471471786E0,-1.676367640E0,4.997518560E0
3.600981736E0,1.370176792E0,-4.566977501E0,-1.324111819E0,4.948529079E0
3.605986475E0,1.264406681E0,-4.622670174E0,-9.072014689E-1,4.877583243E0
3.610991215E0,1.223249435E0,-4.643486023E0,-5.322490931E-1,4.831313561E0
3.615995955E0,1.232265472E0,-4.639213562E0,-1.620100737E-1,4.802814584E0
3.621000694E0,1.233862877E0,-4.600552559E0,1.738994122E-1,4.766313298E0
3.626005434E0,1.246908665E0,-4.479991913E0,5.226366520E-1,4.679557439E0
3.631010173E0,1.304226875E0,-4.321142197E0,7.924574614E-1,4.582713874E0
3.636014913E0,1.390933990E0,-4.105285645E0,9.683670998E-1,4.441373935E0
3.641019653E0,1.473204136E0,-3.875773430E0,1.088258743E0,4.286753690E0
3.646024392E0,1.545829773E0,-3.599435806E0,1.056165338E0,4.057217400E0
3.651029132E0,1.608232975E0,-3.257526398E0,9.773368835E-1,3.762057804E0
3.656033871E0,1.616580486E0,-2.927007675E0,8.424820900E-1,3.448257889E0
3.661038611E0,1.618239880E0,-2.651101112E0,6.567921638E-1,3.174651692E0
3.666043350E0,1.636993885E0,-2.501459122E0,4.112029076E-1,3.017637246E0
3.671048090E0,1.634517193E0,-2.420454025E0,9.205543995E-2,2.922108545E0
3.676052830E0,1.553582191E0,-2.259549141E0,-2.805131674E-1,2.756422969E0
3.681057569E0,1.523418665E0,-2.013835907E0,-6.237867475E-1,2.601047750E0
3.686062309E0,1.519747972E0,-1.630744934E0,-8.936024308E-1,2.401559544E0
3.691067048E0,1.551318645E0,-1.191927910E0,-1.098787665E0,2.243795003E0
3.696071788E0,1.559772491E0,-7.599000931E-1,-1.320121169E0,2.180150976E0
3.701076528E0,1.525159597E0,-3.970746994E-1,-1.547550082E0,2.208775989E0
3.706081267E0,1.418509722E0,-1.320581436E-1,-1.684817314E0,2.206403990E0
3.711086007E0,1.268845558E0,2.597141266E-2,-1.745714903E0,2.158278037E0
3.716090746E0,1.067106009E0,1.396207809E-1,-1.725094318E0,2.033263289E0
3.721095486E0,8.184502125E-1,2.759990692E-1,-1.661518335E0,1.872612991E0
3.726100225E0,4.944472313E-1,4.255323410E-1,-1.603158355E0,1.730801129E0
3.731104965E0,1.436376572E-1,5.405635834E-1,-1.564786553E0,1.661745384E0
3.736109705E0,-1.569254398E-1,6.308240891E-1,-1.489430547E0,1.625105528E0
3.741114444E0,-4.306290150E-1,6.726188660E-1,-1.387044907E0,1.600547113E0
3.746119184E0,-7.058095932E-1,6.804256439E-1,-1.195966959E0,1.546442112E0
3.751123923E0,-1.029943705E0,6.925458908E-1,-1.027029037E0,1.610960114E0
3.756128663E0,-1.364238262E0,7.377696037E-1,-8.903188705E-1,1.788328190E0
3.761133403E0,-1.779828548E0,8.162035942E-1,-8.198823929E-1,2.122777687E0
3.766138142E0,-2.242464781E0,8.897624016E-1,-7.636088729E-1,2.530498752E0
3.771142882E0,-2.669940710E0,9.540448189E-1,-7.121639252E-1,2.923347801E0
3.776147621E0,-3.013789415E0,9.854454994E-1,-6.706999540E-1,3.240967124E0
3.781152361E0,-3.335844517E0,1.041625500E0,-6.153421998E-1,3.548448724E0
3.786157100E0,-3.621412039E0,1.175361633E0,-5.126516819E-1,3.841732925E0
3.791161840E0,-3.832342148E0,1.372204781E0,-4.057147503E-1,4.090769702E0
3.796166580E0,-3.973565102E0,1.608131886E0,-2.946968079E-1,4.296760871E0
3.801171319E0,-4.069418430E0,1.820681095E0,-1.849527359E-1,4.461978656E0
3.806176059E0,-4.105920315E0,2.019254208E0,-9.596562386E-2,4.576590280E0
3.811180798E0,-4.059544563E0,2.194128990E0,-4.035830498E-3,4.614555274E0
3.816185538E0,-3.926107883E0,2.388147354E0,5.742144585E-2,4.595744566E0
3.821190278E0,-3.749488115E0,2.634414196E0,8.853220940E-2,4.583299819E0
3.826195017E0,-3.539988995E0,2.903830051E0,7.022786140E-2,4.579157455E0
3.831199757E0,-3.303065062E0,3.167373657E0,7.922601700E-2,4.576982789E0
3.836204496E0,-3.034682274E0,3.372122765E0,1.253159046E-1,4.538305027E0
3.841209236E0,-2.716431379E0,3.560832500E0,1.940745115E-1,4.482877698E0
3.846213975E0,-2.353905916E0,3.704435825E0,2.281407118E-1,4.394970538E0
3.851218715E0,-1.985927343E0,3.817010403E0,2.655665874E-1,4.310916543E0
3.856223455E0,-1.689448833E0,3.903102398E0,2.632580996E-1,4.261191209E0
3.861228194E0,-1.445562124E0,3.919476509E0,2.116161585E-1,4.182908959E0
3.866232934E0,-1.230402946E0,3.870898247E0,1.299837828E-1,4.063820915E0
3.871237673E0,-1.020128489E0,3.800408840E0,9.185194969E-3,3.934952840E0
3.876242413E0,-8.720533848E-1,3.645813465E0,-1.220221519E-1,3.750642923E0
3.881247153E0,-8.525512218E-1,3.431311131E0,-3.400837183E-1,3.551956728E0
3.886251892E0,-9.749190807E-1,3.162171364E0,-5.969935656E-1,3.362468775E0
3.891256632E0,-1.242343187E0,2.839274406E0,-9.352114201E-1,3.237208080E0
3.896261371E0,-1.595389843E0,2.530766010E0,-1.272776723E0,3.251154554E0
3.901266111E0,-1.941411972E0,2.309495449E0,-1.584950328E0,3.408066492E0
3.906270850E0,-2.188189507E0,2.090249062E0,-1.875880003E0,3.560370801E0
3.911275590E0,-2.315506697E0,1.907407761E0,-2.135499477E0,3.682408674E0
3.916280330E0,-2.413733244E0,1.751948357E0,-2.329837799E0,3.784649969E0
3.921285069E0,-2.501580477E0,1.734259605E0,-2.458676338E0,3.912882645E0
3.926289809E0,-2.569576502E0,1.801640511E0,-2.478822231E0,3.999148857E0
3.931294548E0,-2.641778469E0,1.791357994E0,-2.462264061E0,4.031215852E0
3.936299288E0,-2.689277172E0,1.612750053E0,-2.462105989E0,3.986870997E0
3.941304028E0,-2.664208412E0,1.356946468E0,-2.445017815E0,3.862307898E0
3.946308767E0,-2.557277441E0,1.014459133E0,-2.324473381E0,3.601662358E0
3.951313507E0,-2.383347988E0,7.812366486E-1,-2.090812206E0,3.265298457E0
3.956318246E0,-2.171711445E0,6.616210938E-1,-1.777356029E0,2.883239068E0
3.961322986E0,-2.004084826E0,5.786161423E-1,-1.379778028E0,2.500987811E0
3.966327725E0,-1.842466831E0,4.839844704E-1,-1.023282886E0,2.162413664E0
3.971332465E0,-1.610986948E0,3.293805122E-1,-7.513736486E-1,1.807853099E0
3.976337205E0,-1.310539484E0,9.034442902E-2,-5.596929193E-1,1.427911769E0
3.981341944E0,-9.803543091E-1,-1.619224548E-1,-3.433429599E-1,1.051283901E0
3.986346684E0,-6.167454720E-1,-3.611373901E-1,-1.407220364E-1,7.284215011E-1
3.991351423E0,-2.589898109E-1,-5.175437927E-1,6.728065014E-2,5.826267977E-1
3.996356163E0,1.016159058E-1,-6.365127563E-1,2.901735306E-1,7.068769052E-1
4.001360903E0,4.164929390E-1,-7.185811996E-1,5.180041194E-1,9.788531945E-1
4.006365642E0,6.946821213E-1,-7.068119049E-1,7.358229756E-1,1.234342647E0
4.011370382E0,9.404535294E-1,-6.542949677E-1,9.383574128E-1,1.480901543E0
4.016375121E0,1.177464485E0,-7.238979340E-1,1.105907202E0,1.770164278E0
4.021379861E0,1.396550179E0,-9.631357193E-1,1.223162889E0,2.091437369E0
4.026384600E0,1.555362701E0,-1.275794983E0,1.236824870E0,2.361470248E0
4.031389340E0,1.592628479E0,-1.517784119E0,1.137476563E0,2.476688724E0
4.036394080E0,1.585615158E0,-1.612232208E0,1.026329041E0,2.483308161E0
4.041398819E0,1.596944809E0,-1.697707176E0,8.800601959E-1,2.491374787E0
4.046403559E0,1.641241550E0,-1.874435425E0,7.037845254E-1,2.588917659E0
4.051408298E0,1.685406685E0,-2.118136406E0,5.165783167E-1,2.755712373E0
4.056413038E0,1.667861462E0,-2.423549652E0,3.905088902E-1,2.967802548E0
4.061417830E0,1.637088299E0,-2.718480110E0,2.971016765E-1,3.187234164E0
4.066422621E0,1.641410828E0,-3.031317711E0,2.078531981E-1,3.453450379E0
4.071427413E0,1.719039917E0,-3.323787689E0,8.911865950E-2,3.743074268E0
4.076432205E0,1.812390804E0,-3.500323296E0,-3.991287947E-2,3.941905204E0
4.081436996E0,1.830218792E0,-3.637775421E0,-1.167133451E-1,4.073908792E0
4.086441788E0,1.782091618E0,-3.817503929E0,-1.311807632E-1,4.215020187E0
4.091446580E0,1.721036911E0,-4.015316963E0,-6.392973661E-2,4.369076032E0
4.096451371E0,1.714519978E0,-4.168746948E0,7.989317179E-2,4.508260506E0
4.101456163E0,1.719742775E0,-4.196419716E0,1.942078471E-1,4.539291832E0
4.106460955E0,1.693862915E0,-4.088850021E0,2.879332900E-1,4.435174365E0
4.111465746E0,1.694353580E0,-3.903574944E0,3.419608474E-1,4.269153150E0
4.116470538E0,1.830825806E0,-3.736555099E0,3.659229279E-1,4.177040427E0
4.121475330E0,2.121355057E0,-3.626543045E0,3.170923591E-1,4.213372675E0
4.126480121E0,2.454518318E0,-3.564617157E0,2.340347767E-1,4.334273633E0
4.131484913E0,2.690384865E0,-3.517894745E0,1.843824387E-1,4.432578374E0
4.136489705E0,2.804564476E0,-3.414926529E0,1.351632178E-1,4.421037683E0
4.141494496E0,2.801697731E0,-3.255916595E0,1.585959494E-1,4.298331738E0
4.146499288E0,2.686841011E0,-3.098225594E0,1.975032389E-1,4.105742804E0
4.151504080E0,2.489483833E0,-2.994072914E0,2.519174218E-1,3.901982158E0
4.156508871E0,2.258215904E0,-2.962124825E0,3.029426336E-1,3.737043857E0
4.161513663E0,2.003708363E0,-3.039930344E0,3.699320257E-1,3.659627495E0
4.166518455E0,1.774844646E0,-3.159812927E0,4.002701640E-1,3.646190815E0
4.171523246E0,1.558204174E0,-3.177717209E0,3.843676150E-1,3.560003563E0
4.176528038E0,1.368509293E0,-3.131847382E0,3.648747802E-1,3.437210979E0
4.181532830E0,1.229854584E0,-2.969613075E0,3.889201880E-1,3.237653939E0
4.186537621E0,1.194712639E0,-2.777347565E0,4.554308653E-1,3.057517794E0
4.191542413E0,1.210170746E0,-2.564809799E0,5.156953931E-1,2.882482312E0
4.196547205E0,1.199548721E0,-2.360807419E0,5.597618818E-1,2.706596048E0
4.201551996E0,1.143885136E0,-2.112663269E0,5.924999714E-1,2.474444485E0
4.206556736E0,1.057412148E0,-1.767947197E0,6.330047846E-1,2.155099255E0
4.211561475E0,9.543581009E-1,-1.293415070E0,6.955797672E-1,1.751443159E0
4.216566215E0,7.818980217E-1,-7.037506104E-1,7.988177538E-1,1.320885779E0
4.221570955E0,6.067733765E-1,-1.284227371E-1,8.895598650E-1,1.084427537E0
4.226575694E0,4.810156822E-1,4.083251953E-1,9.146217108E-1,1.111142847E0
4.231580434E0,4.470129013E-1,9.014210701E-1,9.071797132E-1,1.354752934E0
4.236585173E0,4.990792274E-1,1.379179001E0,9.003279209E-1,1.720989587E0
4.241589913E0,5.692992210E-1,1.817267895E0,8.606997728E-1,2.089824946E0
4.246594653E0,6.616106033E-1,2.181857109E0,7.838530540E-1,2.410944762E0
4.251599392E0,7.942557335E-1,2.463067055E0,6.846643686E-1,2.676995851E0
4.256604132E0,9.518151283E-1,2.713116169E0,5.201234221E-1,2.921896603E0
4.261608871E0,1.070882797E0,2.921920300E0,3.145944774E-1,3.127839172E0
4.266613611E0,1.107401371E0,3.112972736E0,5.447188020E-2,3.304527839E0
4.271618350E0,1.036969662E0,3.238253593E0,-2.399725914E-1,3.408691723E0
4.276623090E0,8.786034584E-1,3.283458710E0,-5.339546204E-1,3.440661662E0
4.281627830E0,6.563696861E-1,3.296621323E0,-8.021628857E-1,3.455719694E0
4.286632569E0,3.610115051E-1,3.263622284E0,-1.052922726E0,3.448217798E0
4.291637309E0,2.167510986E-2,3.237377167E0,-1.208412170E0,3.455624503E0
4.296642048E0,-3.322596550E-1,3.160843849E0,-1.277400136E0,3.425358583E0
4.301646788E0,-6.570336819E-1,3.029660702E0,-1.264271021E0,3.347972288E0
4.306651528E0,-9.041974545E-1,2.825064182E0,-1.197863579E0,3.198974496E0
4.311656267E0,-1.168583393E0,2.619295597E0,-1.087954760E0,3.067562898E0
4.316661007E0,-1.439861059E0,2.436583519E0,-9.540851712E-1,2.986706820E0
4.321665746E0,-1.741230965E0,2.301093102E0,-7.682506442E-1,2.986155352E0
4.326670486E0,-1.957129240E0,2.193958282E0,-5.549590588E-1,2.991953770E0
4.331675225E0,-2.115908384E0,2.129662514E0,-2.478467226E-1,3.012301232E0
4.336679965E0,-2.222027779E0,2.084383011E0,6.605523825E-2,3.047363332E0
4.341684705E0,-2.294505119E0,2.038994789E0,3.953534961E-1,3.094924535E0
4.346689444E0,-2.361740589E0,1.945790291E0,7.052888870E-1,3.140278790E0
4.351694184E0,-2.428221226E0,1.886255741E0,9.804198742E-1,3.227296418E0
4.356698923E0,-2.421837807E0,1.803130627E0,1.257688046E0,3.270834395E0
4.361703663E0,-2.371196270E0,1.773051739E0,1.488199711E0,3.313762604E0
4.366708403E0,-2.333871126E0,1.776744366E0,1.623148561E0,3.352370240E0
4.371713142E0,-2.348285913E0,1.871457100E0,1.685819626E0,3.443658842E0
4.376717882E0,-2.390517950E0,1.975742340E0,1.651851773E0,3.513793982E0
4.381722621E0,-2.398371458E0,2.070458412E0,1.592937231E0,3.546326650E0
4.386727361E0,-2.400380850E0,2.131832123E0,1.480690718E0,3.535389855E0
4.391732100E0,-2.405831099E0,2.150510788E0,1.372819304E0,3.506758156E0
4.396736840E0,-2.419255495E0,2.179298401E0,1.178771257E0,3.462894793E0
4.401741580E0,-2.430735350E0,2.223166943E0,9.611451626E-1,3.431434921E0
4.406746319E0,-2.416217089E0,2.306113720E0,6.537626386E-1,3.403479263E0
4.411751059E0,-2.375689745E0,2.389896870E0,3.343378901E-1,3.386338825E0
4.416755798E0,-2.294830799E0,2.465005398E0,3.264552355E-2,3.368021042E0
4.421760538E0,-2.192995071E0,2.497923374E0,-2.456197143E-1,3.333043296E0
4.426765278E0,-2.117977381E0,2.455338955E0,-4.946666062E-1,3.280123873E0
4.431770017E0,-2.055441618E0,2.428267956E0,-7.327430844E-1,3.264695688E0
4.436774757E0,-1.957679510E0,2.416715145E0,-8.727532625E-1,3.230281631E0
4.441779496E0,-1.810821056E0,2.382218838E0,-9.811438918E-1,3.149076504E0
4.446784236E0,-1.663145781E0,2.353351116E0,-1.038099408E0,3.062999469E0
4.451788975E0,-1.510413408E0,2.296353817E0,-1.067266941E0,2.948499320E0
4.456793715E0,-1.372199774E0,2.196688175E0,-1.073274255E0,2.803620656E0
4.461798455E0,-1.229608297E0,2.039945602E0,-1.079839230E0,2.615218421E0
4.466803194E0,-1.059024811E0,1.821232796E0,-1.058487415E0,2.357714583E0
4.471807934E0,-8.417258263E-1,1.602538109E0,-1.028772354E0,2.082067077E0
4.476812673E0,-6.115956306E-1,1.402701855E0,-9.723587036E-1,1.813036998E0
4.481817413E0,-4.357080460E-1,1.216785908E0,-8.612617254E-1,1.553119830E0
4.486822153E0,-3.853964806E-1,1.059239864E0,-7.012682557E-1,1.327515237E0
4.491826892E0,-3.595261574E-1,8.920297623E-1,-5.459315777E-1,1.105901190E0
4.496831632E0,-3.334174156E-1,7.059888840E-1,-4.679113328E-1,9.102354051E-1
4.501836371E0,-2.874264717E-1,5.109782219E-1,-4.151550233E-1,7.183776258E-1
4.506841111E0,-2.164978981E-1,3.310713768E-1,-4.264166355E-1,5.816448603E-1
4.511845850E0,-1.682829857E-1,2.094197273E-1,-5.016722083E-1,5.690788962E-1
4.516850590E0,-9.455537796E-2,1.653485298E-1,-5.784359574E-1,6.089901581E-1
4.521855330E0,-1.446485519E-2,1.940417290E-1,-6.083064079E-1,6.386690149E-1
4.526860069E0,5.736637115E-2,1.900486946E-1,-6.867632270E-1,7.148798058E-1
4.531864809E0,1.445617676E-1,1.532368660E-1,-7.657032013E-1,7.941542887E-1
4.536869548E0,2.516393661E-1,7.396173477E-2,-8.160312176E-1,8.571462284E-1
4.541874288E0,3.401284218E-1,-1.432037354E-2,-8.468645811E-1,9.127277990E-1
4.546879028E0,3.621845245E-1,-8.290863037E-2,-8.102000952E-1,8.913336441E-1
4.551883767E0,3.368673325E-1,-1.223325729E-1,-7.823395133E-1,8.605230805E-1
4.556888507E0,3.358078003E-1,-1.279201508E-1,-7.390441298E-1,8.217765326E-1
4.561893246E0,3.585252762E-1,-1.286964417E-1,-7.281247377E-1,8.217473952E-1
4.566897986E0,4.763450623E-1,-1.679706573E-1,-7.162204385E-1,8.764077114E-1
4.571902725E0,6.456470490E-1,-2.173137665E-1,-7.465034723E-1,1.010620017E0
4.576907465E0,8.274173737E-1,-2.771482468E-1,-8.474649191E-1,1.216399379E0
4.581912205E0,1.006391525E0,-3.623714447E-1,-8.943545818E-1,1.394276545E0
4.586916944E0,1.124266148E0,-4.974489212E-1,-9.873920679E-1,1.576823673E0
4.591921684E0,1.204459190E0,-7.161464691E-1,-1.035202265E0,1.742191561E0
4.596926423E0,1.227701187E0,-9.993762970E-1,-1.009027362E0,1.877269135E0
4.601931163E0,1.180004597E0,-1.323007107E0,-1.071632266E0,2.071510166E0
4.606935903E0,1.104935169E0,-1.672369957E0,-1.193894625E0,2.333042515E0
4.611940642E0,1.046288967E0,-2.003943920E0,-1.212930083E0,2.565484598E0
4.616945382E0,9.666261673E-1,-2.312469959E0,-1.105160475E0,2.739208487E0
4.621950121E0,8.667955399E-1,-2.602273464E0,-1.000268817E0,2.919537531E0
4.626954861E0,7.572984695E-1,-2.868042946E0,-8.127103448E-1,3.075657558E0
4.631959600E0,6.629562378E-1,-3.085342884E0,-5.863170624E-1,3.209769366E0
4.636964340E0,5.560455322E-1,-3.253576756E0,-3.647352457E-1,3.320840276E0
4.641969080E0,4.230804443E-1,-3.396173000E0,-1.680654287E-1,3.426548424E0
4.646973819E0,3.269610405E-1,-3.498341560E0,-4.971462488E-2,3.513939205E0
4.651978559E0,3.302402496E-1,-3.583706856E0,9.538638592E-2,3.600154443E0
4.656983298E0,3.662524223E-1,-3.666311741E0,2.382435799E-1,3.692254409E0
4.661988038E0,4.828572273E-1,-3.726960182E0,3.019176722E-1,3.770217180E0
4.666992778E0,7.229032516E-1,-3.827904224E0,3.292576075E-1,3.909456540E0
4.671997517E0,1.114292622E0,-4.003022194E0,3.057588935E-1,4.166452116E0
4.677002257E0,1.574758053E0,-4.204930782E0,2.890869975E-1,4.499430753E0
4.682006996E0,2.012370110E0,-4.458195686E0,2.746532559E-1,4.899038339E0
4.687011736E0,2.249657154E0,-4.700973034E0,2.099408507E-1,5.215762642E0
4.692016475E0,2.420504570E0,-4.809127331E0,1.237896085E-1,5.385338608E0
4.697021215E0,2.491657257E0,-4.782684803E0,6.466907263E-2,5.393200525E0
4.702025955E0,2.506583214E0,-4.683728218E0,5.708611012E-2,5.312582070E0
4.707030694E0,2.498872280E0,-4.569663048E0,4.423743486E-2,5.208468104E0
4.712035434E0,2.397100925E0,-4.478544712E0,3.123676777E-2,5.079806229E0
4.717040173E0,2.182795048E0,-4.357367992E0,2.751368284E-2,4.873603086E0
4.722044913E0,1.832928658E0,-4.066975117E0,8.070343733E-2,4.461661922E0
4.727049653E0,1.420277596E0,-3.621361732E0,2.189937830E-1,3.896075913E0
4.732054392E0,1.031583786E0,-3.135136127E0,2.890906930E-1,3.313127989E0
4.737059132E0,7.483372688E-1,-2.603409767E0,3.826725483E-1,2.735724650E0
4.742063871E0,6.275382042E-1,-2.136462212E0,4.615846872E-1,2.274057036E0
4.747068611E0,5.627903938E-1,-1.648903370E0,4.729155302E-1,1.805343305E0
4.752073350E0,4.854960442E-1,-1.170644760E0,4.925972819E-1,1.359693953E0
4.757078090E0,3.272809982E-1,-7.410383224E-1,3.808159232E-1,8.951376512E-1
4.762082830E0,2.114911079E-1,-2.556200027E-1,3.188554645E-1,4.601509337E-1
4.767087569E0,1.423029900E-1,2.134823799E-1,3.454070687E-1,4.302684169E-1
4.772092309E0,3.775405884E-2,6.085519791E-1,4.082606435E-1,7.337830968E-1
4.777097048E0,-1.188945770E-2,8.862113953E-1,4.114897251E-1,9.771569936E-1
4.782101788E0,5.012083054E-2,1.003120422E0,1.390746832E-1,1.013954854E0
4.787106528E0,7.473421097E-2,1.088113308E0,-2.324069738E-1,1.115163116E0
4.792111267E0,8.563518524E-2,1.136182308E0,-5.936009884E-1,1.284759026E0
4.797116007E0,1.156878471E-1,1.194810390E0,-8.054064512E-1,1.445557020E0
4.802120746E0,1.356182098E-1,1.206340313E0,-9.481185079E-1,1.540317485E0
4.807125486E0,1.639981270E-1,1.161013126E0,-1.116235614E0,1.618897406E0
4.812130225E0,1.433081627E-1,1.116286755E0,-1.361477852E0,1.766424436E0
4.817134965E0,7.829380035E-2,9.238767624E-1,-1.377101302E0,1.660146436E0
4.822139705E0,-6.488704681E-2,7.414741516E-1,-1.096305728E0,1.325096410E0
4.827144444E0,-1.808423996E-1,5.163464546E-1,-1.294792414E0,1.405633320E0
4.832149184E0,-5.070834160E-1,5.937833786E-1,-1.699925900E0,1.870684462E0
4.837153923E0,-3.277554512E-1,-7.723236084E-2,-1.740173340E0,1.772453589E0
4.842158663E0,-8.016586304E-3,-7.973189354E-1,-1.476676464E0,1.678199967E0
4.847163403E0,-2.098560333E-2,-1.153862953E0,-1.660100937E0,2.021824728E0
4.852168142E0,-2.542033195E-1,-1.465588093E0,-1.827102423E0,2.356028660E0
4.857172882E0,-3.503375053E-1,-1.926320553E0,-1.968415976E0,2.776348086E0
4.862177621E0,-4.596428871E-1,-2.327674866E0,-1.881461143E0,3.028074949E0
4.867182361E0,-7.177677155E-1,-2.418811798E0,-1.083801031E0,2.745990838E0
4.872187100E0,-1.203899384E0,-1.974558353E0,1.474123001E-1,2.317322766E0
4.877191840E0,-1.338531017E0,-1.613007545E0,8.549683094E-1,2.263720265E0
4.882196580E0,-1.309166908E0,-1.248857498E0,1.204396963E0,2.173507554E0
4.887201319E0,-1.179521084E0,-8.312926292E-1,1.483525872E0,2.069581222E0
4.892206059E0,-1.171791077E0,-3.623070717E-1,1.575456977E0,1.996603473E0
4.897210798E0,-1.210510254E0,1.188817024E-1,1.662356257E0,2.059829182E0
4.902215538E0,-1.157415390E0,4.731192589E-1,1.715472460E0,2.122804272E0
4.907220278E0,-1.208984375E0,6.907405853E-1,1.773395538E0,2.254705637E0
4.912225017E0,-1.394045115E0,9.534416199E-1,1.808026791E0,2.474140978E0
4.917229757E0,-1.593810797E0,1.317916393E0,1.757926822E0,2.714303444E0
4.922234496E0,-1.728080988E0,1.725859642E0,1.590051055E0,2.914295414E0
4.927239236E0,-1.827012539E0,2.166714191E0,1.333403111E0,3.132185987E0
4.932243975E0,-1.930689573E0,2.667964935E0,1.016728163E0,3.446641159E0
4.937248715E0,-2.012477636E0,3.204373837E0,6.067060232E-1,3.832253922E0
4.942253455E0,-2.031443834E0,3.717336655E0,2.088134289E-1,4.241339282E0
4.947258194E0,-2.008197784E0,4.177471638E0,-1.338390112E-1,4.637029276E0
4.952262934E0,-1.943408728E0,4.527163029E0,-4.789609909E-1,4.949893555E0
4.957267673E0,-1.875617743E0,4.689979076E0,-8.027458787E-1,5.114513330E0
4.962272413E0,-1.799654722E0,4.747878551E0,-1.104578853E0,5.196268113E0
4.967277153E0,-1.681519747E0,4.682413578E0,-1.407427669E0,5.170431144E0
4.972281892E0,-1.621068239E0,4.546975613E0,-1.667101860E0,5.107061589E0
4.977286632E0,-1.617368460E0,4.418922424E0,-1.887317419E0,5.069982561E0
4.982291371E0,-1.592836618E0,4.265388966E0,-2.096737385E0,5.012681835E0
4.987296111E0,-1.522984028E0,4.139406204E0,-2.280909538E0,4.965552577E0
4.992300850E0,-1.455444336E0,4.089024544E0,-2.492014647E0,5.004855336E0
4.997305590E0,-1.418707371E0,4.128722191E0,-2.677002192E0,5.121075890E0
5.002310330E0,-1.379263878E0,4.158134937E0,-2.782593966E0,5.189921404E0
5.007315069E0,-1.289259911E0,4.115311623E0,-2.832063198E0,5.159318058E0
5.012319809E0,-1.163174868E0,3.981357574E0,-2.877413273E0,5.048137384E0
5.017324548E0,-1.053673506E0,3.818675041E0,-2.894312382E0,4.906072879E0
5.022329288E0,-9.462006092E-1,3.632342339E0,-2.896548033E0,4.741223151E0
5.027334028E0,-9.313151836E-1,3.451347828E0,-2.869458675E0,4.583987663E0
5.032338767E0,-8.745715618E-1,3.304597378E0,-2.837107658E0,4.442343876E0
5.037343507E0,-7.133896351E-1,3.144465923E0,-2.708719969E0,4.211146469E0
5.042348246E0,-4.714708328E-1,2.908869743E0,-2.456200123E0,3.836238649E0
5.047352986E0,-2.341499329E-1,2.536013126E0,-2.200083256E0,3.365494778E0
5.052357725E0,-3.874540329E-2,2.122044086E0,-2.003412008E0,2.918601032E0
5.057362465E0,7.240962982E-2,1.801263809E0,-1.794449568E0,2.543588747E0
5.062367205E0,1.135530472E-1,1.563954830E0,-1.639676213E0,2.268785378E0
5.067371944E0,1.464791298E-1,1.342881680E0,-1.452369452E0,1.983472804E0
5.072376684E0,1.276593208E-1,1.094696999E0,-1.270605803E0,1.681992130E0
5.077381423E0,4.273033142E-2,7.954120636E-1,-1.017916441E0,1.292540178E0
5.082386163E0,-3.119945526E-2,4.165310860E-1,-6.996523142E-1,8.148526936E-1
5.087390903E0,-7.447767258E-2,-2.738189697E-2,-2.878863811E-1,2.986222705E-1
5.092395642E0,-1.248226166E-1,-4.070253372E-1,1.780449152E-1,4.614653861E-1
5.097400382E0,-1.678519249E-1,-7.418060303E-1,5.632359982E-1,9.464064903E-1
5.102405121E0,-2.508974075E-1,-1.112964630E0,8.957271576E-1,1.450505746E0
5.107409861E0,-3.919634819E-1,-1.567925453E0,1.303383112E0,2.076254593E0
5.112414600E0,-5.802388191E-1,-2.000958443E0,1.708238840E0,2.694177372E0
5.117419340E0,-6.574060917E-1,-2.206285477E0,1.918633461E0,2.996837121E0
5.122424080E0,-7.010743618E-1,-2.256399155E0,1.897122860E0,3.030167908E0
5.127428819E0,-6.165964603E-1,-2.290580750E0,1.783807755E0,2.967982727E0
5.132433559E0,-3.715023994E-1,-2.414478302E0,1.751591444E0,3.005959429E0
5.137438298E0,-1.631960869E-1,-2.117031097E0,2.172475576E0,3.037779413E0
5.142443038E0,6.929826736E-2,-2.179122925E0,2.222100496E0,3.113054703E0
5.147447778E0,2.919468880E-1,-2.490586281E0,2.125467062E0,3.287227287E0
5.152452517E0,5.815625191E-1,-2.869226456E0,2.035590649E0,3.565712370E0
5.157457257E0,8.474173546E-1,-3.099553108E0,1.914638877E0,3.740479605E0
5.162461996E0,1.027154922E0,-3.095578194E0,1.764113069E0,3.708065062E0
5.167466736E0,1.134529591E0,-3.092132568E0,1.709527135E0,3.710919595E0
5.172471475E0,1.374865532E0,-3.036761284E0,1.660196424E0,3.724033632E0
5.177476215E0,1.699908733E0,-3.159243584E0,1.524816632E0,3.898150265E0
5.182480955E0,2.013798714E0,-3.182017326E0,1.408618689E0,4.020550477E0
5.187485694E0,2.216113091E0,-3.215106964E0,1.345720291E0,4.130258239E0
5.192490434E0,2.306654453E0,-3.138960838E0,1.294117212E0,4.104688693E0
5.197495173E0,2.376055479E0,-2.948981285E0,1.355330229E0,4.022319019E0
5.202499913E0,2.448297501E0,-2.879679680E0,1.566958904E0,4.091708191E0
5.207504653E0,2.634184837E0,-3.059800148E0,1.893863916E0,4.459599448E0
5.212509392E0,2.843110800E0,-3.340713501E0,2.205430508E0,4.909945971E0
5.217514132E0,2.988810301E0,-3.679356575E0,2.472356319E0,5.346325616E0
5.222518871E0,3.181460857E0,-4.243051529E0,2.765498877E0,5.981067087E0
5.227523611E0,3.225740671E0,-4.949934006E0,2.906651974E0,6.584517844E0
5.232528350E0,3.060140848E0,-5.445696831E0,2.929445982E0,6.899400680E0
5.237533090E0,2.670181990E0,-5.510713577E0,2.935111523E0,6.790634406E0
5.242537830E0,2.285162210E0,-5.169605255E0,2.847723722E0,6.329005864E0
5.247542569E0,1.842689276E0,-4.695547104E0,2.715287924E0,5.728564819E0
5.252547309E0,1.348353386E0,-4.298799515E0,2.561895847E0,5.182764171E0
5.257552048E0,8.556809425E-1,-4.045853615E0,2.320800066E0,4.742070676E0
5.262556788E0,5.611999035E-1,-3.701931953E0,1.993324995E0,4.241767327E0
5.267561528E0,5.271520615E-1,-3.573041916E0,1.714470625E0,3.997990414E0
5.272566267E0,6.668496132E-1,-3.381646156E0,1.522773743E0,3.768163877E0
5.277571007E0,8.932964802E-1,-3.137655258E0,1.399364829E0,3.549800142E0
5.282575746E0,1.167005777E0,-2.702886581E0,1.363363028E0,3.244419378E0
5.287580486E0,1.391149282E0,-2.211938858E0,1.395119667E0,2.962149342E0
5.292585225E0,1.569764137E0,-1.655655861E0,1.498497725E0,2.729624737E0
5.297589965E0,1.659208536E0,-1.010518074E0,1.743644118E0,2.610443364E0
5.302594705E0,1.721991301E0,-5.492191315E-1,1.918243408E0,2.635631512E0
5.307599444E0,1.763240099E0,-1.040687561E-1,2.102368355E0,2.745869380E0
5.312604184E0,1.725415707E0,4.061412811E-1,2.213587046E0,2.835838097E0
5.317608923E0,1.689509630E0,9.715690613E-1,2.217412949E0,2.952170289E0
5.322613663E0,1.727008820E0,1.376796246E0,2.084585428E0,3.037041944E0
5.327618403E0,1.775637865E0,1.626753807E0,1.862734437E0,3.044502810E0
5.332623142E0,1.710798264E0,1.836304665E0,1.614572763E0,2.984240394E0
5.337627882E0,1.503672600E0,2.115407467E0,1.250263333E0,2.880822529E0
5.342632621E0,1.292859554E0,2.444785595E0,8.383250833E-1,2.889853176E0
5.347637361E0,1.154526949E0,2.690356255E0,4.276471734E-1,2.958687438E0
5.352642100E0,1.054933071E0,2.756526947E0,-2.387875319E-2,2.951591908E0
5.357646840E0,9.364743233E-1,2.791783333E0,-5.243979096E-1,2.990991726E0
5.362651580E0,7.079460621E-1,2.810517311E0,-1.033725262E0,3.077138785E0
5.367656319E0,4.171116352E-1,2.774604797E0,-1.597635508E0,3.228754112E0
5.372661059E0,9.773421288E-2,2.765706062E0,-2.075376272E0,3.459171674E0
5.377665798E0,-2.356438637E-1,2.755352020E0,-2.513264418E0,3.736842359E0
5.382670538E0,-5.349364281E-1,2.681652069E0,-2.809503794E0,3.920551794E0
5.387675278E0,-8.379871845E-1,2.621556282E0,-3.005958796E0,4.075606475E0
5.392680017E0,-1.187350512E0,2.575349808E0,-2.996653795E0,4.125792268E0
5.397684757E0,-1.500890970E0,2.495490074E0,-2.738738060E0,3.997603104E0
5.402689496E0,-1.696477890E0,2.386992455E0,-2.329183340E0,3.741773008E0
5.407694236E0,-1.716383696E0,2.283378124E0,-1.912812948E0,3.437825188E0
5.412698975E0,-1.627925634E0,2.170032024E0,-1.428660870E0,3.065983160E0
5.417703715E0,-1.584824800E0,2.046495914E0,-9.403972626E-1,2.753935763E0
5.422708403E0,-1.572772741E0,1.907688618E0,-4.353109598E-1,2.510455255E0
5.427713090E0,-1.615547180E0,1.786914349E0,4.692900181E-2,2.409410283E0
5.432717778E0,-1.712683916E0,1.746267319E0,4.522554874E-1,2.487422516E0
5.437722465E0,-1.844607830E0,1.733031750E0,8.368746638E-1,2.665771238E0
5.442727153E0,-1.943825483E0,1.637225151E0,1.151556373E0,2.790169490E0
5.447731840E0,-2.057523489E0,1.468693733E0,1.337667942E0,2.860038411E0
5.452736528E0,-2.204237700E0,1.332950592E0,1.404162884E0,2.933785016E0
5.457741215E0,-2.311869383E0,1.254038811E0,1.360662699E0,2.961208598E0
5.462745903E0,-2.466319561E0,1.260766029E0,1.231676340E0,3.031384133E0
5.467750590E0,-2.677066326E0,1.305307388E0,9.749494195E-1,3.133853517E0
5.472755278E0,-2.967670441E0,1.335234642E0,7.012563944E-1,3.328915728E0
5.477759965E0,-3.275088549E0,1.355839729E0,4.255484343E-1,3.570097736E0
5.482764653E0,-3.550635338E0,1.353344917E0,1.532740593E-1,3.802899776E0
5.487769340E0,-3.784066677E0,1.376127243E0,-9.095323086E-2,4.027550036E0
5.492774028E0,-4.051285267E0,1.395960331E0,-2.540168166E-1,4.292568241E0
5.497778715E0,-4.294278145E0,1.427630901E0,-3.596545458E-1,4.539637229E0
5.502783403E0,-4.460009098E0,1.514542103E0,-4.650499523E-1,4.733052968E0
5.507788090E0,-4.562539101E0,1.671308994E0,-5.220651627E-1,4.886981567E0
5.512792778E0,-4.573247910E0,1.845331192E0,-5.019383430E-1,4.956993620E0
5.517797465E0,-4.482919693E0,1.988679886E0,-5.148882866E-1,4.931179028E0
5.522802153E0,-4.339934349E0,2.039008141E0,-5.562236905E-1,4.827211322E0
5.527806840E0,-4.149483681E0,2.044103622E0,-6.018865108E-1,4.664637372E0
5.532811528E0,-3.940649509E0,2.085210800E0,-5.987823009E-1,4.498373359E0
5.537816215E0,-3.738016844E0,2.200239182E0,-5.320928097E-1,4.370005165E0
5.542820903E0,-3.556715727E0,2.388672352E0,-4.016612768E-1,4.303174892E0
5.547825590E0,-3.344802856E0,2.592582226E0,-2.175701261E-1,4.237514071E0
5.552830278E0,-3.112623930E0,2.730157852E0,-9.044492245E-2,4.141300510E0
5.557834965E0,-2.856086731E0,2.824956894E0,4.148054123E-2,4.017378934E0
5.562839653E0,-2.518489361E0,2.819206238E0,2.493888736E-1,3.788523100E0
5.567844392E0,-2.081392050E0,2.679122448E0,4.461994767E-1,3.421839261E0
5.572849132E0,-1.588454008E0,2.500130177E0,5.639559031E-1,3.015274995E0
5.577853871E0,-1.126001120E0,2.363398075E0,6.450473666E-1,2.696222374E0
5.582858611E0,-7.229123116E-1,2.297388554E0,6.125650406E-1,2.485122191E0
5.587863350E0,-4.322595596E-1,2.239540577E0,4.381449819E-1,2.322576446E0
5.592868090E0,-2.208237648E-1,2.151431084E0,1.370670199E-1,2.167073190E0
5.597872830E0,-3.624105453E-2,1.966075897E0,-1.935861707E-1,1.975915852E0
5.602877569E0,1.645946503E-1,1.702870369E0,-4.712613821E-1,1.774527031E0
5.607882309E0,3.720984459E-1,1.424169064E0,-7.143287659E-1,1.636148025E0
5.612887048E0,5.578622818E-1,1.173289299E0,-9.028776884E-1,1.582089196E0
5.617891788E0,6.838946342E-1,9.743013382E-1,-1.060398340E0,1.594183054E0
5.622896528E0,6.835098267E-1,7.603149414E-1,-1.201061726E0,1.577280496E0
5.627901267E0,5.718402863E-1,4.695572853E-1,-1.339074135E0,1.529903558E0
5.632906007E0,4.072370529E-1,1.361265182E-1,-1.416699052E0,1.480340721E0
5.637910746E0,2.097835541E-1,-2.250194550E-1,-1.400306821E0,1.433702231E0
5.642915486E0,1.425790787E-2,-5.891962051E-1,-1.280633211E0,1.409743550E0
5.647920225E0,-1.398782730E-1,-9.461603165E-1,-1.077456474E0,1.440728194E0
5.652924965E0,-2.374095917E-1,-1.276303291E0,-8.632843494E-1,1.559029594E0
5.657929705E0,-2.778625488E-1,-1.608095169E0,-6.101869345E-1,1.742270290E0
5.662934444E0,-2.565217018E-1,-1.965512276E0,-2.997303605E-1,2.004714488E0
5.667939184E0,-1.688418388E-1,-2.382143021E0,2.934503555E-2,2.388299409E0
5.672943923E0,-1.991176605E-2,-2.853338242E0,4.290261865E-1,2.885480734E0
5.677948663E0,2.142605782E-1,-3.326422691E0,8.411563039E-1,3.437810269E0
5.682953403E0,5.193629265E-1,-3.763167381E0,1.212258339E0,3.987572804E0
5.687958142E0,7.997865677E-1,-4.044076920E0,1.532250881E0,4.397955144E0
5.692962882E0,1.102869034E0,-4.203223228E0,1.762449622E0,4.689310641E0
5.697967621E0,1.518563747E0,-4.236563683E0,1.912333250E0,4.889941324E0
5.702972361E0,2.012196064E0,-4.178408623E0,1.972292662E0,5.039639864E0
5.707977100E0,2.467601299E0,-4.115754128E0,1.966208935E0,5.185987446E0
5.712981840E0,2.859992504E0,-4.025238991E0,1.865522027E0,5.278473121E0
5.717986580E0,3.160287857E0,-3.888031960E0,1.703979254E0,5.292235554E0
5.722991319E0,3.416202545E0,-3.666001320E0,1.486990452E0,5.226963374E0
5.727996059E0,3.608657360E0,-3.383182526E0,1.262435675E0,5.105102915E0
5.733000798E0,3.742540836E0,-3.068356514E0,9.728598595E-1,4.936383283E0
5.738005538E0,3.837246418E0,-2.750142097E0,6.807291508E-1,4.769814861E0
5.743010278E0,3.887936592E0,-2.447694778E0,3.051798344E-1,4.604388711E0
5.748015017E0,3.966037750E0,-2.151555061E0,-1.436018944E-2,4.512078327E0
5.753019757E0,4.056796551E0,-1.895341873E0,-3.635985851E-1,4.492451781E0
5.758024496E0,4.150071621E0,-1.674454689E0,-6.654798388E-1,4.524351487E0
5.763029236E0,4.230953693E0,-1.536896706E0,-9.817308187E-1,4.607256889E0
5.768033975E0,4.341905594E0,-1.516261101E0,-1.316544652E0,4.783772751E0
5.773038715E0,4.410459042E0,-1.631796837E0,-1.602355599E0,4.968143853E0
5.778043455E0,4.402571678E0,-1.778284073E0,-1.886143208E0,5.109057430E0
5.783048194E0,4.308610916E0,-1.950834274E0,-2.114512444E0,5.180834418E0
5.788052934E0,4.133549213E0,-2.177872658E0,-2.310479641E0,5.212261945E0
5.793057673E0,3.892511845E0,-2.540151596E0,-2.468801975E0,5.262984114E0
5.798062413E0,3.524623871E0,-3.055923462E0,-2.632423639E0,5.356425660E0
5.803067153E0,3.017467022E0,-3.475255966E0,-2.844120979E0,5.410317496E0
5.808071892E0,2.373301983E0,-3.639099121E0,-2.902114868E0,5.224736876E0
5.813076632E0,1.756560802E0,-3.589667320E0,-2.757823467E0,4.855595494E0
5.818081371E0,1.230873108E0,-3.407638550E0,-2.444876194E0,4.370865898E0
5.823086111E0,7.731227875E-1,-3.083351135E0,-2.074854374E0,3.796023412E0
5.828090850E0,3.360772133E-1,-2.664763451E0,-1.750019312E0,3.205694891E0
5.833095590E0,-1.324658394E-1,-2.209478378E0,-1.486322522E0,2.666176390E0
5.838100330E0,-4.649915695E-1,-1.727272987E0,-1.322917581E0,2.224814612E0
5.843105069E0,-5.617337227E-1,-1.328530312E0,-1.211972833E0,1.883989308E0
5.848109809E0,-5.724668503E-1,-1.037825584E0,-1.182287216E0,1.674097757E0
5.853114548E0,-6.417930126E-1,-6.643161774E-1,-1.276662469E0,1.575779589E0
5.858119288E0,-5.312714577E-1,-2.658128738E-1,-1.369806290E0,1.493075724E0
5.863124028E0,-2.801856995E-1,1.378250122E-2,-1.222177863E0,1.253958816E0
5.868128767E0,5.054950714E-3,1.979503632E-1,-8.771376014E-1,8.992109155E-1
5.873133507E0,2.371969223E-1,3.816909790E-1,-4.888781905E-1,6.640423696E-1
5.878138246E0,4.010252953E-1,6.073384285E-1,-1.640013456E-1,7.460413497E-1
5.883142986E0,5.531120300E-1,8.215193748E-1,5.287492275E-2,9.917775751E-1
5.888147725E0,7.162699699E-1,9.662079811E-1,1.419827938E-1,1.211098529E0
5.893152465E0,8.510499001E-1,9.500365257E-1,1.223193407E-1,1.281334208E0
5.898157205E0,9.468722343E-1,8.111042976E-1,2.336442471E-2,1.246997637E0
5.903161944E0,9.552888870E-1,6.354937553E-1,-1.157296896E-1,1.153179315E0
5.908166684E0,8.523621559E-1,4.329547882E-1,-2.651826143E-1,9.921153725E-1
5.913171423E0,6.959176064E-1,2.181959152E-1,-4.479350448E-1,8.558951902E-1
5.918176163E0,4.963421822E-1,1.087760925E-2,-6.440083981E-1,8.131547829E-1
5.923180903E0,2.832813263E-1,-1.884174347E-1,-7.807446122E-1,8.516522700E-1
5.928185642E0,4.803705215E-2,-3.887414932E-1,-8.671278954E-1,9.514926662E-1
5.933190382E0,-1.511363983E-1,-5.800237656E-1,-9.169586301E-1,1.095482957E0
5.938195121E0,-4.044449329E-1,-7.714500427E-1,-9.203809500E-1,1.267206363E0
5.943199861E0,-6.678187847E-1,-9.147062302E-1,-8.629760146E-1,1.423866924E0
5.948204600E0,-8.923547268E-1,-1.066758156E0,-7.546276450E-1,1.582318806E0
5.953209340E0,-1.125132084E0,-1.098108292E0,-5.764253736E-1,1.674523884E0
5.958214080E0,-1.380138159E0,-9.562005997E-1,-3.623686433E-1,1.717676325E0
5.963218819E0,-1.590263367E0,-6.699724197E-1,-8.431601524E-2,1.727689153E0
5.968223559E0,-1.722084522E0,-3.497257233E-1,1.899313927E-1,1.767471957E0
5.973228298E0,-1.770808935E0,-9.888648987E-3,4.119451046E-1,1.818120139E0
5.978233038E0,-1.760684252E0,3.301582336E-1,6.145212650E-1,1.893845263E0
5.983237778E0,-1.740037918E0,6.079096794E-1,7.921068668E-1,2.006170338E0
5.988242517E0,-1.718714714E0,8.518996239E-1,9.295698404E-1,2.131622229E0
5.993247257E0,-1.768737078E0,1.085879326E0,1.050360322E0,2.326117273E0
5.998251996E0,-1.813615084E0,1.367156982E0,1.072826028E0,2.511826740E0
6.003256736E0,-1.872692347E0,1.729030132E0,1.063831806E0,2.761930473E0
6.008261475E0,-1.979573965E0,2.109126091E0,9.800654650E-1,3.054120866E0
6.013266215E0,-2.067155838E0,2.478717804E0,8.497761488E-1,3.337558196E0
6.018270955E0,-2.158915997E0,2.751965046E0,7.541828156E-1,3.578131022E0
6.023275694E0,-2.249913692E0,2.943438053E0,6.551204920E-1,3.762329339E0
6.028280434E0,-2.301716566E0,3.039052963E0,4.574744701E-1,3.839664693E0
6.033285173E0,-2.323714018E0,3.096478462E0,2.573627234E-1,3.879956350E0
6.038289913E0,-2.315885305E0,3.115839958E0,7.909119129E-2,3.883045043E0
6.043294653E0,-2.350145578E0,3.168896675E0,-6.738710403E-2,3.945837224E0
6.048299392E0,-2.383681536E0,3.226826668E0,-2.581446767E-1,4.020072970E0
6.053304132E0,-2.378520727E0,3.275228500E0,-4.588675499E-1,4.073701266E0
6.058308871E0,-2.344455957E0,3.261497498E0,-6.402115226E-1,4.067396029E0
6.063313611E0,-2.267307997E0,3.200077057E0,-7.776522636E-1,3.998239833E0
6.068318350E0,-2.171102047E0,3.105393410E0,-8.230774403E-1,3.877448749E0
6.073323090E0,-2.122664452E0,3.011075974E0,-7.763769627E-1,3.764975973E0
6.078327830E0,-2.059746265E0,2.979325294E0,-7.331978083E-1,3.695471947E0
6.083332569E0,-1.968175888E0,3.019571304E0,-6.790049672E-1,3.667775202E0
6.088337309E0,-1.809876680E0,3.064724922E0,-5.944998264E-1,3.608548530E0
6.093341996E0,-1.599684715E0,3.061958313E0,-4.558532834E-1,3.484592102E0
6.098346684E0,-1.385864973E0,3.011104584E0,-3.303392529E-1,3.331140429E0
6.103351371E0,-1.216485739E0,2.935961723E0,-1.752872467E-1,3.182834336E0
6.108356059E0,-1.077207565E0,2.846051693E0,-4.361474514E-2,3.043400832E0
6.113360746E0,-1.015773773E0,2.746156216E0,5.962562561E-2,2.928604708E0
6.118365434E0,-9.887185097E-1,2.622074604E0,9.597170353E-2,2.803934751E0
6.123370121E0,-9.719264507E-1,2.445228100E0,6.076455116E-2,2.632009464E0
6.128374809E0,-9.888796806E-1,2.292451859E0,6.966233253E-3,2.496651172E0
6.133379496E0,-9.869518280E-1,2.144598961E0,-4.609608650E-2,2.361250402E0
6.138384184E0,-9.421145916E-1,1.949187279E0,-5.014789104E-2,2.165508200E0
6.143388871E0,-8.592236042E-1,1.687200069E0,9.579539299E-3,1.893409899E0
6.148393559E0,-8.194262981E-1,1.325322151E0,5.632948875E-2,1.559202127E0
6.153398246E0,-8.127505779E-1,9.307661057E-1,3.714931011E-2,1.236231822E0
6.158402934E0,-8.292210102E-1,5.372500420E-1,-9.500741959E-3,9.880968351E-1
6.163407621E0,-8.255050182E-1,1.592769623E-1,-8.340239525E-2,8.448571745E-1
6.168412309E0,-7.393443584E-1,-2.221994400E-1,-1.219748855E-1,7.815884750E-1
6.173416996E0,-6.613314152E-1,-6.213102341E-1,-8.199375868E-2,9.111029712E-1
6.178421684E0,-5.910670757E-1,-1.028302193E0,7.549047470E-3,1.186095559E0
6.183426371E0,-5.182492733E-1,-1.351982117E0,1.797163486E-1,1.459018821E0
6.188431059E0,-4.039256573E-1,-1.539571762E0,3.860400915E-1,1.637822976E0
6.193435746E0,-2.047238350E-1,-1.653316498E0,5.971195698E-1,1.769722880E0
6.198440434E0,1.081809998E-1,-1.726748466E0,7.550437450E-1,1.887711432E0
6.203445121E0,4.818024635E-1,-1.779253960E0,9.454367757E-1,2.071648851E0
6.208449809E0,8.392271996E-1,-1.782405853E0,1.153421998E0,2.282904997E0
6.213454496E0,1.199291229E0,-1.712613106E0,1.340017557E0,2.483342537E0
6.218459184E0,1.547325134E0,-1.632369995E0,1.480859041E0,2.692914847E0
6.223463871E0,1.901828289E0,-1.522918701E0,1.542317867E0,2.883570116E0
6.228468559E0,2.261970520E0,-1.408609390E0,1.519840479E0,3.067671125E0
6.233473246E0,2.631460667E0,-1.299486160E0,1.418784857E0,3.259785268E0
6.238477934E0,2.952023983E0,-1.238935471E0,1.321118832E0,3.463345444E0
6.243482621E0,3.232509613E0,-1.184117317E0,1.218171597E0,3.651738525E0
6.248487309E0,3.491171837E0,-1.082748413E0,1.062928915E0,3.806631424E0
6.253491996E0,3.679627895E0,-9.972515106E-1,8.990117908E-1,3.916936842E0
6.258496684E0,3.811885834E0,-9.373207092E-1,7.553446293E-1,3.997447840E0
6.263501371E0,3.859169006E0,-9.698762894E-1,6.562390924E-1,4.032926380E0
6.268506111E0,3.811980724E0,-1.104322433E0,5.637954473E-1,4.008564629E0
6.273510850E0,3.718678474E0,-1.297271729E0,5.499122739E-1,3.976667832E0
6.278515590E0,3.594020367E0,-1.438455582E0,5.382757187E-1,3.908436721E0
6.283520330E0,3.443053246E0,-1.508724213E0,5.622000098E-1,3.800912161E0
6.288525069E0,3.270573139E0,-1.594277382E0,5.880203843E-1,3.685666426E0
6.293529809E0,3.124421120E0,-1.742961884E0,6.154077053E-1,3.630241053E0
6.298534548E0,3.086010933E0,-2.088592529E0,6.199630499E-1,3.777570173E0
6.303539288E0,3.097911835E0,-2.611794472E0,6.204724312E-1,4.099208965E0
6.308544028E0,3.002572060E0,-3.101769447E0,5.404958725E-1,4.350695170E0
6.313548767E0,2.843799591E0,-3.448230743E0,4.764265418E-1,4.494938667E0
6.318553507E0,2.550695896E0,-3.627031326E0,4.818399549E-1,4.460221467E0
6.323558246E0,2.157932281E0,-3.700073242E0,5.809146762E-1,4.322577424E0
6.328562986E0,1.762372494E0,-3.695706367E0,7.113074660E-1,4.155738283E0
6.333567725E0,1.455511570E0,-3.642493248E0,8.915904760E-1,4.022586801E0
6.338572465E0,1.242259026E0,-3.559574127E0,1.101977348E0,3.927865773E0
6.343577205E0,1.127024174E0,-3.466274261E0,1.356401086E0,3.889095608E0
6.348581944E0,1.123600483E0,-3.396333694E0,1.596805573E0,3.917569227E0
6.353586684E0,1.264751434E0,-3.383509636E0,1.856014967E0,4.061099014E0
6.358591423E0,1.496860027E0,-3.399455070E0,2.128511190E0,4.281056482E0
6.363596163E0,1.637314320E0,-3.415811539E0,2.317965508E0,4.440893012E0
6.368600903E0,1.480513096E0,-3.408717155E0,2.452351570E0,4.452561049E0
6.373605642E0,1.104270458E0,-3.234299660E0,2.540746450E0,4.258579582E0
6.378610382E0,6.297049522E-1,-2.853900909E0,2.664431810E0,3.954804116E0
6.383615121E0,2.063198090E-1,-2.353338242E0,2.861192465E0,3.710416562E0
6.388619861E0,-6.011652946E-2,-1.770754814E0,3.139583111E0,3.605019933E0
6.393624600E0,-2.081973553E-1,-1.125489235E0,3.435695648E0,3.621336320E0
6.398629340E0,-2.721936703E-1,-4.466705322E-1,3.656508923E0,3.693732727E0
6.403634080E0,-3.058485985E-1,2.029561996E-1,3.699863911E0,3.718027372E0
6.408638819E0,-2.911162376E-1,8.085393906E-1,3.579242706E0,3.680959516E0
6.413643559E0,-2.198736668E-1,1.340746403E0,3.371122122E0,3.634612731E0
6.418648298E0,-9.858226776E-2,1.751045227E0,3.004157066E0,3.478625811E0
6.423653038E0,8.966684341E-3,2.086646557E0,2.517785311E0,3.270079070E0
6.428657778E0,9.183788300E-2,2.323060513E0,1.904144764E0,3.005130883E0
6.433662517E0,9.652018547E-2,2.436069489E0,1.237163305E0,2.733920947E0
6.438667257E0,8.435964584E-3,2.444819450E0,5.811181068E-1,2.512948779E0
6.443671996E0,-2.200276852E-1,2.406878471E0,-7.198607922E-2,2.417986384E0
6.448676736E0,-6.217527390E-1,2.384705544E0,-7.491959929E-1,2.575789517E0
6.453681475E0,-1.104866028E0,2.350043297E0,-1.410349369E0,2.955083379E0
6.458686215E0,-1.653932571E0,2.236571789E0,-2.158669710E0,3.521022754E0
6.463690955E0,-2.153091431E0,2.078578472E0,-2.915351868E0,4.177986080E0
6.468695694E0,-2.525007010E0,1.852979183E0,-3.548616886E0,4.733061806E0
6.473700434E0,-2.831060886E0,1.570230484E0,-4.013434410E0,5.156373268E0
6.478705173E0,-3.070080042E0,1.207363129E0,-4.265764713E0,5.392575060E0
6.483709913E0,-3.331380844E0,8.850045204E-1,-4.281406879E0,5.496524010E0
6.488714653E0,-3.570385695E0,5.991020203E-1,-4.151908875E0,5.508622744E0
6.493719392E0,-3.709629059E0,4.218063354E-1,-3.878155708E0,5.383248094E0
6.498724132E0,-3.715359211E0,3.626279831E-1,-3.466319799E0,5.094189442E0
6.503728871E0,-3.607322454E0,4.401721954E-1,-2.908309937E0,4.654545471E0
6.508733611E0,-3.400994301E0,6.200542450E-1,-2.258800030E0,4.129577106E0
6.513738350E0,-3.174139738E0,7.578577995E-1,-1.615528107E0,3.641351752E0
6.518743090E0,-3.061363935E0,8.530430794E-1,-9.709630609E-1,3.323010819E0
6.523747830E0,-3.072330236E0,9.627423286E-1,-3.697730303E-1,3.240805142E0
6.528752569E0,-3.106538534E0,1.134573936E0,1.532049775E-1,3.310787134E0
6.533757309E0,-3.120952845E0,1.363562584E0,5.826092958E-1,3.455297841E0
6.538762048E0,-3.106190920E0,1.639908314E0,9.652709365E-1,3.642728275E0
6.543766788E0,-3.038482189E0,1.882122517E0,1.304944992E0,3.804949489E0
6.548771528E0,-2.980220795E0,2.085327148E0,1.610300779E0,3.977860468E0
6.553776267E0,-2.912327766E0,2.273386955E0,1.775193691E0,4.098933265E0
6.558781007E0,-2.825303316E0,2.408011436E0,1.765921831E0,4.110880419E0
6.563785746E0,-2.762114286E0,2.541931629E0,1.640150547E0,4.096435714E0
6.568790486E0,-2.708201647E0,2.622664928E0,1.408036709E0,4.024337816E0
6.573795225E0,-2.658643723E0,2.626489162E0,1.099263430E0,3.895537428E0
6.578799965E0,-2.570255756E0,2.654050350E0,7.385745645E-1,3.767716855E0
6.583804705E0,-2.505271912E0,2.671905994E0,3.605186939E-1,3.680413390E0
6.588809444E0,-2.420509100E0,2.694561481E0,9.216725826E-3,3.622100334E0
6.593814184E0,-2.368564367E0,2.722110271E0,-3.144502640E-1,3.621996750E0
6.598818871E0,-2.268101454E0,2.740281582E0,-6.814101934E-1,3.621843067E0
6.603823559E0,-2.138440132E0,2.768238544E0,-9.903783202E-1,3.635508225E0
6.608828246E0,-2.013373137E0,2.805913448E0,-1.274194479E0,3.681085877E0
6.613832934E0,-1.874193907E0,2.795781612E0,-1.508222580E0,3.688323871E0
6.618837621E0,-1.783420801E0,2.709139347E0,-1.710947394E0,3.667065140E0
6.623842309E0,-1.702743530E0,2.503079891E0,-1.872629881E0,3.559703238E0
6.628846996E0,-1.555563927E0,2.292635918E0,-1.921167850E0,3.371475121E0
6.633851684E0,-1.294091702E0,2.140058517E0,-1.832563162E0,3.100453440E0
6.638856371E0,-9.809648991E-1,2.035560608E0,-1.707354784E0,2.832112194E0
6.643861059E0,-6.977941990E-1,1.897542000E0,-1.517763853E0,2.528080200E0
6.648865746E0,-4.829173088E-1,1.730607510E0,-1.422890425E0,2.291905024E0
6.653870434E0,-3.555917740E-1,1.529798985E0,-1.428100824E0,2.122781762E0
6.658875121E0,-2.582364082E-1,1.233049393E0,-1.466141939E0,1.933046568E0
6.663879809E0,-2.237477303E-1,8.360052109E-1,-1.541601539E0,1.767909235E0
6.668884496E0,-2.463860512E-1,3.440876007E-1,-1.644585013E0,1.698164371E0
6.673889184E0,-2.673320770E-1,-1.748132706E-1,-1.721930742E0,1.751305684E0
6.678893871E0,-2.662816048E-1,-5.956754684E-1,-1.687652111E0,1.809393491E0
6.683898559E0,-2.091679573E-1,-8.417978287E-1,-1.590035200E0,1.811239011E0
6.688903246E0,-1.435065269E-1,-9.084634781E-1,-1.520455241E0,1.776987382E0
6.693907934E0,-6.466293335E-2,-8.103494644E-1,-1.440880775E0,1.654383558E0
6.698912621E0,6.505537033E-2,-6.627845764E-1,-1.346830130E0,1.502486936E0
6.703917309E0,2.640323639E-1,-5.188446045E-1,-1.291122198E0,1.416301290E0
6.708921996E0,5.265779495E-1,-3.741827011E-1,-1.254487753E0,1.411040947E0
6.713926684E0,7.849593163E-1,-1.909332275E-1,-1.241724372E0,1.481383151E0
6.718931371E0,9.999914169E-1,6.487846375E-3,-1.238081694E0,1.591499672E0
6.723936059E0,1.151745796E0,1.937170029E-1,-1.267268896E0,1.723373178E0
6.728940746E0,1.296993256E0,3.034744263E-1,-1.247689366E0,1.825107391E0
6.733945434E0,1.425661564E0,3.260440826E-1,-1.212689757E0,1.899850543E0
6.738950121E0,1.522842407E0,2.277746201E-1,-1.190794110E0,1.946515062E0
6.743954809E0,1.683908463E0,-1.526355743E-2,-1.124580264E0,2.024959619E0
6.748959496E0,1.860914230E0,-3.789968491E-1,-1.066649914E0,2.178160330E0
6.753964184E0,2.053839207E0,-8.298091888E-1,-9.453027248E-1,2.408409437E0
6.758968871E0,2.229397297E0,-1.329241753E0,-7.702297568E-1,2.707461878E0
6.763973559E0,2.325654507E0,-1.819828033E0,-5.661032200E-1,3.006811569E0
6.768978246E0,2.409989357E0,-2.358895302E0,-4.293217659E-1,3.399522455E0
6.773982934E0,2.540328026E0,-3.027467728E0,-3.363572359E-1,3.966353932E0
6.778987621E0,2.669945717E0,-3.834367752E0,-2.301431298E-1,4.678028650E0
6.783992309E0,2.651804924E0,-4.587505341E0,-1.015563607E-1,5.299772476E0
6.788996996E0,2.468159199E0,-5.042368889E0,-1.752811670E-2,5.614053890E0
6.794001684E0,2.225352287E0,-5.155746460E0,-1.614403725E-2,5.615529805E0
6.799006371E0,1.981532097E0,-5.032876968E0,-6.855064631E-2,5.409345545E0
6.804011059E0,1.832664013E0,-4.841242790E0,-2.156299353E-2,5.176558133E0
6.809015798E0,1.778921604E0,-4.719469070E0,3.845465183E-2,5.043751495E0
6.814020538E0,1.782340527E0,-4.643358231E0,1.112672687E-1,4.974926514E0
6.819025278E0,1.871807575E0,-4.488383293E0,2.159125209E-1,4.867840014E0
6.824030017E0,2.056441784E0,-4.259643555E0,3.235719800E-1,4.741119578E0
6.829034757E0,2.297325134E0,-4.038889885E0,3.765847087E-1,4.661775447E0
6.834039496E0,2.531340122E0,-3.864910126E0,3.221585751E-1,4.631306429E0
6.839044236E0,2.747960567E0,-3.695162773E0,2.273546457E-1,4.610553691E0
6.844048975E0,2.869441509E0,-3.654631615E0,4.482030869E-2,4.646723111E0
6.849053715E0,2.943112850E0,-3.671621323E0,-1.189739108E-1,4.707108579E0
6.854058455E0,2.973479271E0,-3.674416542E0,-2.298396826E-1,4.732413991E0
6.859063194E0,3.003515244E0,-3.667801857E0,-2.680932879E-1,4.748236335E0
6.864067934E0,2.999606609E0,-3.704465866E0,-2.864596248E-1,4.775224213E0
6.869072673E0,3.033450127E0,-3.822681427E0,-3.617364168E-1,4.893420705E0
6.874077413E0,3.052424908E0,-4.003162384E0,-4.123008847E-1,5.050999793E0
6.879082153E0,3.028132439E0,-4.145224571E0,-3.805727959E-1,5.147553639E0
6.884086892E0,2.903571129E0,-4.114780426E0,-3.427346349E-1,5.047733183E0
6.889091632E0,2.712602615E0,-3.864124298E0,-2.847332954E-1,4.729771938E0
6.894096371E0,2.594027519E0,-3.455737114E0,-1.734843850E-1,4.324487785E0
6.899101111E0,2.538049221E0,-3.043029785E0,-5.290985107E-2,3.962893334E0
6.904105850E0,2.487093449E0,-2.736153603E0,6.663751602E-2,3.698190222E0
6.909110590E0,2.383875370E0,-2.415440559E0,2.228187323E-1,3.401009124E0
6.914115330E0,2.261904716E0,-1.937498093E0,3.913487196E-1,3.003875102E0
6.919120069E0,2.173492908E0,-1.345800400E0,6.003034115E-1,2.625950176E0
6.924124809E0,2.132294178E0,-7.652635574E-1,7.483797073E-1,2.385870692E0
6.929129548E0,2.099330425E0,-1.963176727E-1,8.729709387E-1,2.282062033E0
6.934134288E0,2.049876690E0,2.935600281E-1,8.774409294E-1,2.249016345E0
6.939139028E0,2.016659260E0,6.992502213E-1,7.807229757E-1,2.272750274E0
6.944143767E0,1.965354443E0,1.025259495E0,5.498284101E-1,2.283875302E0
6.949148507E0,1.876255035E0,1.276237488E0,2.812347412E-1,2.286527512E0
6.954153246E0,1.691598892E0,1.409110069E0,-1.485320330E-1,2.206617267E0
6.959157986E0,1.373466969E0,1.448160172E0,-6.951415539E-1,2.113480820E0
6.964162725E0,1.051397800E0,1.484704018E0,-1.309000373E0,2.241264226E0
6.969167465E0,7.927246094E-1,1.452264786E0,-1.911548257E0,2.528142016E0
6.974172205E0,5.209312439E-1,1.303483963E0,-2.376470804E0,2.760082116E0
6.979176944E0,1.935353279E-1,1.077294827E0,-2.731218100E0,2.942375295E0
6.984181684E0,-1.740422249E-1,8.079590797E-1,-3.003704309E0,3.115337566E0
6.989186423E0,-5.471751690E-1,5.775318146E-1,-3.226838112E0,3.323466242E0
6.994191163E0,-9.584183693E-1,3.865470886E-1,-3.414573669E0,3.567533849E0
6.999195903E0,-1.363937616E0,2.928524017E-1,-3.552083492E0,3.816200399E0
7.004200642E0,-1.748601198E0,2.203655243E-1,-3.586130381E0,3.995810083E0
7.009205382E0,-2.078317165E0,2.411289215E-1,-3.497764111E0,4.075769764E0
7.014210121E0,-2.314424753E0,3.408355713E-1,-3.244545460E0,3.999975758E0
7.019214861E0,-2.428540707E0,5.143709183E-1,-2.856017590E0,3.784075036E0
7.024219600E0,-2.473761559E0,7.469143867E-1,-2.357286215E0,3.497738648E0
7.029224340E0,-2.469593525E0,9.710021019E-1,-1.845573187E0,3.232317690E0
7.034229080E0,-2.488055706E0,1.210149765E0,-1.360680938E0,3.083234708E0
7.039233819E0,-2.500534058E0,1.430612564E0,-9.370762706E-1,3.029428134E0
7.044238559E0,-2.435342789E0,1.574853420E0,-4.990079403E-1,2.942799130E0
7.049243298E0,-2.378692389E0,1.709759235E0,-4.260563850E-2,2.929721721E0
7.054248038E0,-2.345123053E0,1.882896900E0,4.358090162E-1,3.038886699E0
7.059252778E0,-2.296467066E0,2.089221954E0,8.298879862E-1,3.213615321E0
7.064257517E0,-2.218311071E0,2.309430122E0,1.124072909E0,3.393804857E0
7.069262257E0,-2.063400745E0,2.571823597E0,1.355848312E0,3.565140095E0
7.074266944E0,-1.880268812E0,2.866431713E0,1.419595003E0,3.710403151E0
7.079271632E0,-1.741486788E0,3.164117813E0,1.387125492E0,3.868919087E0
7.084276319E0,-1.695454836E0,3.411959648E0,1.253783345E0,4.010985966E0
7.089281007E0,-1.694624662E0,3.590755939E0,9.818782806E-1,4.090154755E0
7.094285694E0,-1.738853216E0,3.686409473E0,5.724812746E-1,4.115939762E0
7.099290382E0,-1.780155420E0,3.699239254E0,1.082562208E-1,4.106707171E0
7.104295069E0,-1.804243803E0,3.744252682E0,-2.709012032E-1,4.165106398E0
7.109299757E0,-1.892473936E0,3.788061619E0,-5.975043774E-1,4.276433082E0
7.114304444E0,-2.163970947E0,3.778340816E0,-9.378471375E-1,4.454007952E0
7.119309132E0,-2.455024481E0,3.696574688E0,-1.310413361E0,4.626985282E0
7.124313819E0,-2.649597645E0,3.519704342E0,-1.570923924E0,4.677230838E0
7.129318507E0,-2.780568838E0,3.320144653E0,-1.751898766E0,4.671624222E0
7.134323194E0,-2.871235132E0,3.127100945E0,-1.905399084E0,4.653310345E0
7.139327882E0,-2.887699366E0,2.983924866E0,-2.016764164E0,4.616270456E0
7.144332569E0,-2.839456320E0,2.861981869E0,-2.090644360E0,4.541392545E0
7.149337257E0,-2.731331348E0,2.794767857E0,-2.079099655E0,4.426460627E0
7.154341944E0,-2.568463326E0,2.710334301E0,-1.953452110E0,4.214129925E0
7.159346632E0,-2.356017351E0,2.622850895E0,-1.737838507E0,3.930680253E0
7.164351319E0,-2.075504780E0,2.541450024E0,-1.390025735E0,3.563545967E0
7.169356007E0,-1.828099966E0,2.503871441E0,-9.828599691E-1,3.252281568E0
7.174360694E0,-1.628508568E0,2.524035931E0,-6.512963772E-1,3.073594720E0
7.179365382E0,-1.419793367E0,2.534582615E0,-3.525757790E-1,2.926470898E0
7.184370069E0,-1.202306271E0,2.487456799E0,-9.663653374E-2,2.764474690E0
7.189374757E0,-9.288036823E-1,2.396730900E0,1.258299351E-1,2.573485663E0
7.194379444E0,-6.478216648E-1,2.276401520E0,3.239291906E-1,2.388850541E0
7.199384132E0,-4.075560570E-1,2.174105644E0,4.926478863E-1,2.266172816E0
7.204388819E0,-1.842203140E-1,2.056241989E0,6.319478750E-1,2.159033663E0
7.209393507E0,3.642320633E-2,1.946670532E0,6.701192856E-1,2.059104822E0
7.214398194E0,2.255182266E-1,1.840502262E0,5.785671473E-1,1.942433266E0
7.219402882E0,4.116868973E-1,1.704187870E0,3.670355678E-1,1.791216767E0
7.224407569E0,5.425481796E-1,1.494885921E0,1.748490334E-1,1.599879567E0
7.229412257E0,6.137714386E-1,1.198659897E0,2.709966898E-2,1.346935529E0
7.234416944E0,6.449198723E-1,8.254609108E-1,-5.612981319E-2,1.049027127E0
7.239421632E0,6.172838211E-1,5.286412239E-1,-1.030956507E-1,8.192249829E-1
7.244426319E0,5.360326767E-1,2.890920639E-1,-1.139885783E-1,6.195955519E-1
7.249431007E0,3.969135284E-1,7.827568054E-2,-9.829163551E-2,4.163276076E-1
7.254435694E0,2.340331078E-1,-1.992187500E-1,-3.689897060E-2,3.095498989E-1
7.259440382E0,1.198630333E-1,-5.333814621E-1,2.709293365E-2,5.473545084E-1
7.264445069E0,1.176691055E-2,-8.808898926E-1,1.938649416E-1,9.020471599E-1
7.269449757E0,-7.577991486E-2,-1.117358208E0,3.482004404E-1,1.172806679E0
7.274454444E0,-1.521034241E-1,-1.324129105E0,5.900530815E-1,1.457606249E0
7.279459132E0,-2.169523239E-1,-1.520262718E0,8.471072316E-1,1.753812335E0
7.284463819E0,-2.461357117E-1,-1.763043404E0,1.123432398E0,2.104995293E0
7.289468507E0,-2.157392502E-1,-2.076329231E0,1.399156690E0,2.513031226E0
7.294473194E0,-1.642112732E-1,-2.378806114E0,1.683307886E0,2.918768458E0
7.299477882E0,-1.205492020E-1,-2.622823715E0,1.956219554E0,3.274222243E0
7.304482569E0,-4.197311401E-2,-2.736864090E0,2.179240227E0,3.498753314E0
7.309487257E0,1.044235229E-1,-2.783554077E0,2.361402512E0,3.651752921E0
7.314491944E0,2.463040352E-1,-2.791951180E0,2.487936974E0,3.747730974E0
7.319496632E0,3.161616325E-1,-2.862832069E0,2.529744387E0,3.833454356E0
7.324501319E0,2.660136223E-1,-2.962748528E0,2.462974548E0,3.861979507E0
7.329506059E0,1.871695518E-1,-3.105800629E0,2.287900448E0,3.862061424E0
7.334510798E0,2.332153320E-1,-3.353772163E0,2.095990658E0,3.961736230E0
7.339515538E0,3.376760483E-1,-3.682214737E0,1.983438253E0,4.196040728E0
7.344520278E0,3.815093040E-1,-3.985447884E0,1.936097026E0,4.447225638E0
7.349525017E0,3.178696632E-1,-4.138616562E0,1.972943187E0,4.595834308E0
7.354529757E0,3.487949371E-1,-4.208249092E0,2.031172276E0,4.685795465E0
7.359534496E0,4.749846458E-1,-4.313531876E0,2.067142487E0,4.806791624E0
7.364539236E0,5.919680595E-1,-4.449144363E0,2.013603926E0,4.919340659E0
7.369543975E0,7.291874886E-1,-4.566825867E0,1.913613319E0,5.004950432E0
7.374548715E0,9.109621048E-1,-4.546838760E0,1.786255240E0,4.969336219E0
7.379553455E0,1.184782982E0,-4.380021095E0,1.598304391E0,4.810703944E0
7.384558194E0,1.592759609E0,-4.177098274E0,1.379020333E0,4.678325581E0
7.389562934E0,2.157184124E0,-4.082478523E0,1.119708657E0,4.751191610E0
7.394567673E0,2.804211140E0,-4.078003883E0,8.934128284E-1,5.029105514E0
7.399572413E0,3.326393127E0,-4.097553253E0,6.916840076E-1,5.322899648E0
7.404577153E0,3.574370384E0,-4.031762123E0,5.923117995E-1,5.420522367E0
7.409581892E0,3.600510120E0,-3.837970734E0,5.290600657E-1,5.289007188E0
7.414586632E0,3.476507664E0,-3.554731369E0,4.974814355E-1,4.996969924E0
7.419591371E0,3.255242348E0,-3.253817558E0,5.504568815E-1,4.635400115E0
7.424596111E0,3.018215179E0,-2.992574692E0,6.258028746E-1,4.296132609E0
7.429600850E0,2.789337158E0,-2.785295486E0,7.568290234E-1,4.013858854E0
7.434605590E0,2.563885212E0,-2.521870613E0,8.953781128E-1,3.706081588E0
7.439610330E0,2.327345848E0,-2.197664261E0,1.050401807E0,3.368918351E0
7.444615069E0,2.075019836E0,-1.874876976E0,1.182890534E0,3.036461924E0
7.449619809E0,1.869166851E0,-1.677804947E0,1.268423557E0,2.813843009E0
7.454624548E0,1.728753090E0,-1.606330872E0,1.359554291E0,2.723467273E0
7.459629288E0,1.629820824E0,-1.540702820E0,1.489376783E0,2.692271216E0
7.464634028E0,1.505406857E0,-1.447398186E0,1.714639664E0,2.702073368E0
7.469638767E0,1.150319099E0,-1.235361099E0,1.919590473E0,2.556203955E0
7.474643507E0,6.325979233E-1,-7.991161346E-1,2.065161705E0,2.302967563E0
7.479648246E0,1.540126801E-1,-2.820568085E-1,2.179335833E0,2.202902771E0
7.484652986E0,-1.513862610E-1,2.823476791E-1,2.299829960E0,2.322037006E0
7.489657725E0,-2.890617847E-1,8.268899918E-1,2.454602242E0,2.606218705E0
7.494662465E0,-3.413288593E-1,1.303418159E0,2.570963621E0,2.902629537E0
7.499667205E0,-3.809435368E-1,1.687708855E0,2.542719603E0,3.075532821E0
7.504671944E0,-4.754664898E-1,1.941352367E0,2.398534298E0,3.122160178E0
7.509676684E0,-6.299207211E-1,2.097841740E0,2.152987242E0,3.071334261E0
7.514681423E0,-7.629895210E-1,2.162025928E0,1.783312917E0,2.904602225E0
7.519686163E0,-8.509755135E-1,2.176946163E0,1.405594945E0,2.727444055E0
7.524690903E0,-9.370663166E-1,2.152164936E0,1.035149574E0,2.565432095E0
7.529695642E0,-1.021251440E0,2.068586826E0,6.681292653E-1,2.401749920E0
7.534700382E0,-1.098498583E0,1.935955524E0,3.055873215E-1,2.246776923E0
7.539705121E0,-1.168559074E0,1.768793106E0,3.459965438E-2,2.120225577E0
7.544709861E0,-1.259879112E0,1.600743294E0,-1.726571620E-1,2.044378870E0
7.549714548E0,-1.362565994E0,1.489350319E0,-3.298389316E-1,2.045371404E0
7.554719236E0,-1.428533316E0,1.425109863E0,-4.029455185E-1,2.057671171E0
7.559723923E0,-1.424061298E0,1.355505943E0,-3.727442622E-1,2.001071020E0
7.564728611E0,-1.439960480E0,1.333225250E0,-2.922044694E-1,1.984026009E0
7.569733298E0,-1.562193632E0,1.343901634E0,-1.954775155E-1,2.069959421E0
7.574737986E0,-1.661368132E0,1.401895523E0,-8.315412700E-2,2.175401052E0
7.579742673E0,-1.699223280E0,1.468895912E0,-3.398954868E-3,2.246113646E0
7.584747361E0,-1.747725487E0,1.501761436E0,7.669632137E-2,2.305583248E0
7.589752048E0,-1.744653463E0,1.510098457E0,1.805583388E-1,2.314479287E0
7.594756736E0,-1.771516562E0,1.503410339E0,2.453068942E-1,2.336383755E0
7.599761423E0,-1.852095127E0,1.496085167E0,2.323630899E-1,2.392178880E0
7.604766111E0,-2.000292778E0,1.521761894E0,2.085781544E-1,2.521990346E0
7.609770798E0,-2.100965261E0,1.566183090E0,1.884866953E-1,2.627263165E0
7.614775486E0,-2.163713694E0,1.643662453E0,1.478658020E-1,2.721240067E0
7.619780173E0,-2.255699873E0,1.734929562E0,5.299884081E-2,2.846220543E0
7.624784861E0,-2.405330181E0,1.840074062E0,-6.736855209E-2,3.029195332E0
7.629789548E0,-2.636012077E0,1.949723721E0,-2.512068450E-1,3.288325887E0
7.634794236E0,-2.865638256E0,2.054670811E0,-4.597846568E-1,3.555974787E0
7.639798923E0,-3.040773392E0,2.117102623E0,-6.543282866E-1,3.762522006E0
7.644803611E0,-3.122782230E0,2.180376053E0,-7.912603617E-1,3.889974492E0
7.649808298E0,-3.130769730E0,2.330681801E0,-9.084551930E-1,4.007379143E0
7.654812986E0,-3.083827019E0,2.462800980E0,-1.024747252E0,4.077436042E0
7.659817673E0,-3.048921585E0,2.600725651E0,-1.139959216E0,4.166437778E0
7.664822361E0,-3.006945610E0,2.768367290E0,-1.311349273E0,4.292460398E0
7.669827048E0,-2.924673796E0,2.941715717E0,-1.514111519E0,4.415873851E0
7.674831736E0,-2.840780020E0,3.063241005E0,-1.671076775E0,4.499552662E0
7.679836423E0,-2.664824963E0,3.161542892E0,-1.719402313E0,4.478056482E0
7.684841111E0,-2.483687639E0,3.274582863E0,-1.663864613E0,4.433964667E0
7.689845798E0,-2.360150099E0,3.397258759E0,-1.523645997E0,4.408307236E0
7.694850486E0,-2.203673840E0,3.471962452E0,-1.318079948E0,4.318337227E0
7.699855173E0,-1.995424986E0,3.465106487E0,-1.052629232E0,4.134817063E0
7.704859861E0,-1.869735956E0,3.419594765E0,-7.903479934E-1,3.976706030E0
7.709864548E0,-1.826683283E0,3.330545425E0,-6.181337833E-1,3.848557395E0
7.714869236E0,-1.708277702E0,3.193240166E0,-4.740539193E-1,3.652358496E0
7.719873923E0,-1.543294668E0,3.012521744E0,-2.863181829E-1,3.396913863E0
7.724878611E0,-1.394284010E0,2.773914814E0,-1.268865466E-1,3.107206381E0
7.729883298E0,-1.299489498E0,2.539634228E0,-8.268356323E-4,2.852790853E0
7.734887986E0,-1.234756470E0,2.300176620E0,9.162783623E-2,2.612246482E0
7.739892673E0,-1.151917934E0,2.031787872E0,1.599679887E-1,2.341082366E0
7.744897361E0,-1.007653952E0,1.796823978E0,2.568056881E-1,2.076027952E0
7.749902048E0,-8.926894665E-1,1.595344067E0,3.913883865E-1,1.869545946E0
7.754906736E0,-7.732694149E-1,1.365214348E0,4.958749115E-1,1.645493158E0
7.759911423E0,-6.968142986E-1,1.049266815E0,5.169690251E-1,1.361531487E0
7.764916111E0,-6.724746227E-1,7.482428551E-1,5.027315617E-1,1.124645949E0
7.769920798E0,-6.806461811E-1,5.245509148E-1,3.676077724E-1,9.346487898E-1
7.774925486E0,-7.255613804E-1,3.401432037E-1,2.747998834E-1,8.471432533E-1
7.779930173E0,-6.825497150E-1,2.094926834E-1,3.344326317E-1,7.884202452E-1
7.784934861E0,-4.703583717E-1,-2.527332306E-2,3.162914515E-1,5.673764368E-1
7.789939548E0,-3.478860855E-1,-2.973194122E-1,2.345850468E-1,5.142506252E-1
7.794944236E0,-2.673611641E-1,-4.966440201E-1,1.236969829E-1,5.774410951E-1
7.799948923E0,-3.292918205E-1,-5.898694992E-1,2.776566148E-2,6.761287312E-1
7.804953611E0,-5.858898163E-1,-6.774253845E-1,5.695021152E-2,8.974493607E-1
7.809958298E0,-8.451640606E-1,-7.638807297E-1,1.770783067E-1,1.152897561E0
7.814962986E0,-9.010937214E-1,-8.777351379E-1,2.395393848E-1,1.280534257E0
7.819967673E0,-8.687293530E-1,-9.663705826E-1,3.016749620E-1,1.334005463E0
7.824972361E0,-8.104746342E-1,-9.725160599E-1,3.249154091E-1,1.306991447E0
7.829977048E0,-7.171499729E-1,-9.729976654E-1,2.662234306E-1,1.237700875E0
7.834981736E0,-6.084415913E-1,-9.537563324E-1,2.549364567E-1,1.159674484E0
7.839986423E0,-3.701348305E-1,-1.034700394E0,1.902637482E-1,1.115260055E0
7.844991111E0,-7.916116714E-2,-1.249338150E0,1.820135713E-1,1.265006420E0
7.849995798E0,1.733832359E-1,-1.454131126E0,2.061288953E-1,1.478867202E0
7.855000486E0,4.449505806E-1,-1.639529228E0,2.480798364E-1,1.716851978E0
7.860005173E0,7.404446602E-1,-1.891599655E0,2.356506586E-1,2.044978920E0
7.865009861E0,1.122506618E0,-2.253083229E0,2.065318227E-1,2.525680213E0
7.870014600E0,1.486403465E0,-2.647061348E0,1.267050505E-1,3.038483703E0
7.875019340E0,1.760728836E0,-2.977678299E0,1.573610306E-2,3.459332553E0
7.880024080E0,1.988799095E0,-3.211431503E0,-1.544899344E-1,3.780539813E0
7.885028819E0,2.228108406E0,-3.324507713E0,-3.500843346E-1,4.017384429E0
7.890033559E0,2.526323795E0,-3.384087563E0,-5.946190953E-1,4.264731225E0
7.895038298E0,2.830429554E0,-3.366472244E0,-8.156542182E-1,4.473226871E0
7.900043038E0,3.073245049E0,-3.319631577E0,-9.788107872E-1,4.628483498E0
7.905047778E0,3.297813892E0,-3.310574532E0,-1.074280620E0,4.794742855E0
7.910052517E0,3.485336781E0,-3.386925697E0,-1.092599034E0,4.981225833E0
7.915057257E0,3.588256836E0,-3.457624435E0,-1.057936549E0,5.094112641E0
7.920061996E0,3.559149265E0,-3.412541389E0,-9.607512355E-1,5.023547070E0
7.925066736E0,3.484351635E0,-3.223107338E0,-8.777214885E-1,4.826957866E0
7.930071475E0,3.459252357E0,-2.975790024E0,-8.759716749E-1,4.646405010E0
7.935076215E0,3.569257736E0,-2.766640663E0,-9.506484270E-1,4.614935945E0
7.940080955E0,3.741443157E0,-2.605675697E0,-1.034542203E0,4.675277565E0
7.945085694E0,3.945960522E0,-2.550731659E0,-1.127500415E0,4.831986509E0
7.950090434E0,4.143559933E0,-2.554314613E0,-1.224884987E0,5.019358056E0
7.955095173E0,4.261458874E0,-2.554679871E0,-1.432050705E0,5.170801698E0
7.960099913E0,4.279971600E0,-2.599899292E0,-1.738972902E0,5.301099884E0
7.965104653E0,4.132197380E0,-2.742397308E0,-1.962744236E0,5.333681948E0
7.970109392E0,3.842677593E0,-3.000864029E0,-2.078875065E0,5.300290326E0
7.975114132E0,3.546123981E0,-3.293503761E0,-2.245147705E0,5.335058625E0
7.980118871E0,3.205090523E0,-3.485947609E0,-2.380053997E0,5.299914435E0
7.985123611E0,2.896921635E0,-3.558755875E0,-2.468863487E0,5.210775878E0
7.990128350E0,2.646163464E0,-3.616899490E0,-2.463294029E0,5.113898755E0
7.995133090E0,2.415092945E0,-3.645734787E0,-2.329789877E0,4.954995150E0
8.000137830E0,2.175452709E0,-3.544675827E0,-2.106961012E0,4.662253309E0
8.005142569E0,1.932613850E0,-3.284994125E0,-1.790673494E0,4.211020572E0
8.010147309E0,1.687102795E0,-2.914597511E0,-1.401102662E0,3.647503689E0
8.015152048E0,1.429903984E0,-2.490929604E0,-9.970145822E-1,3.040295014E0
8.020156788E0,1.123290062E0,-2.076157570E0,-6.370750070E-1,2.445010303E0
8.025161528E0,8.727331161E-1,-1.565093994E0,-2.981435657E-1,1.816609999E0
8.030166267E0,7.355701923E-1,-1.010570526E0,6.685531139E-2,1.251713197E0
8.035171007E0,6.491327286E-1,-4.655895233E-1,4.040199518E-1,8.951977575E-1
8.040175746E0,6.031675339E-1,5.983161926E-2,6.020685434E-1,8.543286414E-1
8.045180486E0,6.494052410E-1,4.743547440E-1,6.077470779E-1,1.008015923E0
8.050185225E0,7.196338177E-1,7.919425964E-1,4.787498713E-1,1.172282964E0
8.055189913E0,7.600195408E-1,1.031375408E0,1.776196957E-1,1.293411648E0
8.060194600E0,8.225281239E-1,1.197306156E0,-1.178153753E-1,1.457386362E0
8.065199288E0,8.112983704E-1,1.318542957E0,-4.688512087E-1,1.617585247E0
8.070203975E0,8.121504784E-1,1.423829079E0,-9.460034370E-1,1.892564437E0
8.075208663E0,8.676960468E-1,1.580153465E0,-1.528627396E0,2.363574225E0
8.080213350E0,9.340226650E-1,1.768223763E0,-2.114613295E0,2.910430037E0
8.085218038E0,9.815084934E-1,1.896986485E0,-2.664340973E0,3.414766385E0
8.090222725E0,1.004752159E0,1.942609310E0,-3.147634506E0,3.832865875E0
8.095227413E0,1.003332376E0,1.862293720E0,-3.510098457E0,4.098244129E0
8.100232100E0,9.677395821E-1,1.642152786E0,-3.659366131E0,4.126032738E0
8.105236788E0,9.079856873E-1,1.234804630E0,-3.690851212E0,3.996443813E0
8.110241475E0,7.626910210E-1,7.555694580E-1,-3.604748726E0,3.761222697E0
8.115246163E0,4.708967209E-1,3.771095276E-1,-3.430107117E0,3.482756114E0
8.120250850E0,1.342592239E-1,1.188383102E-1,-3.186102152E0,3.191143213E0
8.125255538E0,-2.176342010E-1,1.434421539E-2,-2.739162445E0,2.747832110E0
8.130260225E0,-4.646744728E-1,-3.492355347E-3,-2.176569939E0,2.225621545E0
8.135264913E0,-6.163892746E-1,1.718330383E-2,-1.552671313E0,1.670634374E0
8.140269600E0,-7.492725849E-1,3.307342529E-2,-9.696033001E-1,1.225819651E0
8.145274288E0,-9.157283306E-1,7.757282257E-2,-3.806301951E-1,9.947136592E-1
8.150278975E0,-1.067706108E0,1.362504959E-1,1.225225925E-1,1.083315428E0
8.155283663E0,-1.233845234E0,2.329425812E-1,5.249465704E-1,1.360957460E0
8.160288350E0,-1.428106070E0,3.915596008E-1,9.262089729E-1,1.746616423E0
8.165293038E0,-1.612082481E0,5.545854568E-1,1.200970411E0,2.085354858E0
8.170297725E0,-1.866793633E0,6.790866852E-1,1.363344908E0,2.409312460E0
8.175302413E0,-2.120096445E0,8.034982681E-1,1.417877197E0,2.674096885E0
8.180307100E0,-2.366768360E0,9.376015663E-1,1.431527734E0,2.920609666E0
8.185311788E0,-2.620870829E0,1.105450153E0,1.327722549E0,3.139081253E0
8.190316475E0,-2.848730803E0,1.273660183E0,1.221601725E0,3.351087618E0
8.195321163E0,-3.016628981E0,1.447189331E0,1.103863001E0,3.523197538E0
8.200325850E0,-3.138776779E0,1.592678070E0,9.794152379E-1,3.653463742E0
8.205330538E0,-3.177049875E0,1.729288101E0,8.244879246E-1,3.709968138E0
8.210335225E0,-3.193834782E0,1.919184208E0,6.776119471E-1,3.787216205E0
8.215339913E0,-3.170235872E0,2.190917492E0,6.153842807E-1,3.902462396E0
8.220344600E0,-3.120877981E0,2.486871719E0,6.182199121E-1,4.038143903E0
8.225349288E0,-3.012560844E0,2.821228504E0,6.139041781E-1,4.172736686E0
8.230353975E0,-2.865461588E0,3.107425213E0,5.355208516E-1,4.260721083E0
8.235358663E0,-2.651542664E0,3.321341515E0,4.261322021E-1,4.271250005E0
8.240363350E0,-2.447777748E0,3.448580742E0,3.386470079E-1,4.242523640E0
8.245368038E0,-2.273558617E0,3.551338196E0,2.782501578E-1,4.225931248E0
8.250372725E0,-2.004754066E0,3.624773026E0,2.546904087E-1,4.150046452E0
8.255377413E0,-1.747250080E0,3.683033943E0,2.345406413E-1,4.083213340E0
8.260382100E0,-1.616189718E0,3.745094776E0,1.746805310E-1,4.082685069E0
8.265386788E0,-1.491990805E0,3.763105869E0,6.609243155E-2,4.048625761E0
8.270391475E0,-1.417745829E0,3.741951466E0,-1.374554634E-2,4.001548818E0
